trial_index,time_elapsed,phase,context_n,context_im,trial_n,rt,chosen_pirate,choice_optimal,outcome,pR_red,pR_white,pR_black,subject_id
82,288688.0,learn,0,city,0,838.5,red,1,1.0,0.6,0.3,0.1,ryan
84,292497.0,learn,1,city,0,298.8000000002794,red,0,0.0,0.7040666669280193,0.32135683287001293,0.08023465001340098,ryan
86,296425.0,learn,0,city,0,417.40000000037253,white,1,0.0,0.6707858720977166,0.3860112465802025,0.18749731183455112,ryan
88,300751.0,learn,1,city,0,816.2000000001863,black,1,0.0,0.8129219481220801,0.45051682239675817,0.269343406306751,ryan
90,304893.0,learn,0,city,0,631.8999999999069,red,1,1.0,0.7043042719636342,0.3994273590057394,0.13291075271028985,ryan
92,309168.0,learn,0,city,0,765.6000000000931,red,1,1.0,0.6201295894070186,0.29528738930539455,0.08335337728199385,ryan
94,313096.0,learn,1,city,0,418.1999999997206,red,1,1.0,0.6177042176639297,0.3700108009970603,0.13609188348997606,ryan
96,317030.0,learn,0,city,0,424.5,red,1,1.0,0.5403240431910846,0.30537124708530866,0.09586530305288365,ryan
98,320840.0,learn,0,city,0,300.6999999997206,red,1,1.0,0.6394554060534058,0.22240967379635637,0.15272195255531748,ryan
100,324668.0,learn,0,city,0,320.39999999990687,red,1,1.0,0.7100745231171444,0.40454611109496674,0.13077980871745795,ryan
102,328508.0,learn,0,city,0,328.70000000018626,red,0,0.0,0.6555107009089455,0.3451465886952835,0.2090585003907455,ryan
104,332526.0,learn,1,city,0,509.89999999990687,red,1,1.0,0.6199411746162656,0.3220517274420923,0.26663921646574656,ryan
106,337233.0,learn,0,city,0,1196.6999999997206,red,1,1.0,0.7129562755548317,0.46680668220210697,0.13677557799939163,ryan
108,341063.0,learn,1,city,0,321.5,red,0,0.0,0.6428774594443981,0.4984771655683272,0.18682620562153357,ryan
110,344934.0,learn,1,city,0,361.79999999981374,white,1,1.0,0.6870717170683863,0.5229887966445922,0.19522770092258113,ryan
112,349285.0,learn,1,city,0,840.6999999997206,white,0,1.0,0.5715867800764611,0.44594456861332193,0.1593474270881543,ryan
114,353261.0,learn,0,city,0,466.59999999962747,white,1,0.0,0.5889743394859055,0.36584397550654046,0.2051727249158401,ryan
116,358099.0,learn,0,city,0,1329.2000000001863,black,0,0.0,0.49201786618676296,0.3424688812682307,0.1361948995975135,ryan
118,361904.0,learn,0,city,0,293.89999999990687,red,1,1.0,0.5768072499502326,0.19428223772977718,0.13909088547753376,ryan
120,365672.0,learn,0,city,0,258.39999999990687,red,1,1.0,0.605513577724979,0.20520960959817713,0.12655250967459275,ryan
122,369494.0,learn,0,city,0,313.89999999990687,red,0,0.0,0.5568344545587272,0.33580692907124166,0.21410183470892377,ryan
124,373374.0,learn,0,city,0,370.20000000018626,red,0,0.0,0.4825639760779697,0.43202137870654206,0.1658210414340744,ryan
126,377175.0,learn,1,city,0,290.20000000018626,white,0,1.0,0.608580305279083,0.3898125835534926,0.1558328850227138,ryan
128,381095.0,learn,1,city,0,412.0,white,0,1.0,0.41522799824811907,0.47228094303899737,0.19174386312359432,ryan
130,385021.0,learn,0,city,0,416.10000000009313,white,1,0.0,0.31836004694432296,0.5017718986593911,0.07735431085438461,ryan
132,388792.0,learn,1,city,0,261.79999999981374,white,0,1.0,0.4133370985710112,0.4282988827925149,0.1034154676258065,ryan
134,392689.0,learn,0,city,0,386.3000000002794,white,1,0.0,0.48272736287640344,0.31932911110673057,0.1050901219295326,ryan
136,398900.0,learn,0,city,0,2702.399999999907,red,1,1.0,0.5039595478117922,0.35624016148669085,0.1385095066130416,ryan
138,403110.0,learn,0,city,0,700.1000000000931,red,1,1.0,0.5822212621961328,0.32012963944099054,0.21236843686131643,ryan
140,407384.0,learn,1,city,0,764.7000000001863,red,1,1.0,0.5899543623060526,0.46207971011644755,0.12133281865714071,ryan
147,438323.0,learn,0,coast,1,1055.0,red,1,1.0,1.0,0.4181008225478407,0.08894599049824159,ryan
149,442085.0,learn,0,coast,1,251.10000000009313,red,1,1.0,1.0,0.31067968791880846,0.05474683731009909,ryan
151,445958.0,learn,1,coast,1,363.09999999962747,red,1,1.0,1.0,0.32068346713988144,0.12038146629850005,ryan
153,449756.0,learn,1,coast,1,289.70000000018626,red,0,0.0,0.7947710272295367,0.33742025090610944,0.13327278423976774,ryan
155,453562.0,learn,1,coast,1,297.10000000009313,white,0,1.0,0.7930870070242594,0.3950640092941459,0.16797756839180664,ryan
157,457427.0,learn,1,coast,1,354.10000000009313,white,0,1.0,0.6309853422877916,0.4220532492721892,0.05749892861851178,ryan
159,461275.0,learn,0,coast,1,337.29999999981374,white,1,0.0,0.6001342919605398,0.4441919780525839,0.12098040910331179,ryan
161,465166.0,learn,1,coast,1,383.10000000009313,black,0,0.0,0.4656934164876008,0.41537980853918294,0.19546784091345465,ryan
163,469022.0,learn,0,coast,1,345.5,red,1,1.0,0.49956467383274644,0.2943170761027279,0.18397052624775506,ryan
165,473043.0,learn,1,coast,1,512.0999999996275,red,0,0.0,0.5647163135611468,0.2433221050108735,0.21563347484200923,ryan
167,476828.0,learn,0,coast,1,274.8000000002794,white,1,0.0,0.620449333452512,0.27107391219170296,0.20128579707437344,ryan
169,480481.0,learn,0,coast,1,142.79999999981374,black,1,0.0,0.6152265386095896,0.30770357564934914,0.11343705985398385,ryan
171,484063.0,learn,0,coast,1,73.0,red,1,1.0,0.6032057308644,0.5019347603680037,0.14316345258357208,ryan
173,487940.0,learn,1,coast,1,367.20000000018626,red,1,1.0,0.4677763985752777,0.5392769119385868,0.1764541450722051,ryan
175,491875.0,learn,0,coast,1,425.89999999990687,red,1,1.0,0.29494067505465155,0.4131770927402177,0.26047827975176774,ryan
177,495656.0,learn,0,coast,1,273.60000000009313,red,0,0.0,0.47989753105317645,0.6006708676899298,0.34501081553895835,ryan
179,499482.0,learn,1,coast,1,315.10000000009313,red,1,1.0,0.32215682638328497,0.5722308569644593,0.1544748998289162,ryan
181,503463.0,learn,0,coast,1,470.60000000009313,red,0,0.0,0.44981462566221053,0.5911123720781732,0.05866262024454423,ryan
183,507219.0,learn,0,coast,1,246.0,red,1,1.0,0.4819911829024129,0.5937080594120022,0.08140320271167557,ryan
185,510975.0,learn,0,coast,1,246.3000000002794,white,1,0.0,0.47445898291316896,0.6867507084666243,0.12393337046227408,ryan
187,514767.0,learn,1,coast,1,282.5,red,0,0.0,0.2992663815724567,0.6821096008567442,0.05817563915232718,ryan
189,518636.0,learn,0,coast,1,359.20000000018626,white,0,0.0,0.43553828536808553,0.7336802397956029,0.1852506835352776,ryan
191,522498.0,learn,1,coast,1,353.29999999981374,black,0,0.0,0.4091960684477566,0.6794633778338215,0.14774623128539732,ryan
193,526321.0,learn,1,coast,1,312.89999999990687,red,1,1.0,0.32542794233847633,0.6698791879097321,0.15454321227528905,ryan
195,530129.0,learn,0,coast,1,299.60000000009313,red,0,0.0,0.38554146239325454,0.7167361306617166,0.22982572071001223,ryan
197,534154.0,learn,1,coast,1,515.2999999998137,red,0,0.0,0.3031464703996595,0.7627092742185625,0.08066349273402727,ryan
199,538123.0,learn,1,coast,1,459.79999999981374,white,1,1.0,0.30565355052734283,0.8179109384440143,0.05328356504585168,ryan
201,542692.0,learn,0,coast,1,1061.5,white,0,0.0,0.44672714002128716,0.6619577239399026,0.15860481387089065,ryan
203,546724.0,learn,1,coast,1,522.2999999998137,white,0,1.0,0.40733084939522657,0.6762136995432384,0.13155596968192637,ryan
205,550526.0,learn,1,coast,1,292.60000000009313,white,1,1.0,0.4012228851628312,0.7932552367528158,0.2959506645112694,ryan
207,554851.0,learn,0,coast,1,815.8999999999069,black,0,0.0,0.2847745757512855,0.6581060379022826,0.07157312140789703,ryan
209,558709.0,learn,0,coast,1,347.39999999990687,white,0,0.0,0.35225108385927506,0.46124733658869715,0.18479886435164905,ryan
211,562510.0,learn,0,coast,1,292.6999999997206,white,0,0.0,0.3742288571705605,0.5058969354522507,0.1719928511677321,ryan
213,566937.0,learn,1,coast,1,917.5,white,0,1.0,0.3294355859305939,0.5852855840913443,0.24100387214417296,ryan
215,570713.0,learn,0,coast,1,266.20000000018626,white,0,0.0,0.14161570533217724,0.6074297571322292,0.0850183892178775,ryan
217,574354.0,learn,1,coast,1,132.3000000002794,red,1,1.0,0.2799819573322982,0.5700849317618262,0.15546528555442313,ryan
219,578305.0,learn,1,coast,1,441.1999999997206,red,0,0.0,0.23879015348888188,0.7019977133245473,0.06942249633707456,ryan
221,582069.0,learn,1,coast,1,252.70000000018626,red,1,1.0,0.25099669707120364,0.590885172076611,0.11795960493542562,ryan
223,585999.0,learn,1,coast,1,420.5,red,0,0.0,0.38787246901147177,0.7220704322876149,0.21091701461552093,ryan
225,590030.0,learn,1,coast,1,520.7000000001863,red,0,0.0,0.3474495831107016,0.6183883713937991,0.27263700953506415,ryan
232,613941.0,learn,1,forest,2,1974.5,red,0,0.0,0.3993132381856325,1.0,0.05710427915341846,ryan
234,617888.0,learn,1,forest,2,435.70000000018626,white,0,1.0,0.34277235491764024,1.0,0.18968223051584054,ryan
236,621947.0,learn,0,forest,2,549.8999999999069,white,0,0.0,0.4322047257652235,0.75669059773684,0.1551203555668107,ryan
238,625784.0,learn,1,forest,2,328.20000000018626,black,0,0.0,0.20239654375363203,0.5626247898019144,0.1877600137697538,ryan
240,629719.0,learn,1,forest,2,427.3000000002794,black,1,1.0,0.25910886871279254,0.47675637114434366,0.23206290595953882,ryan
242,634769.0,learn,0,forest,2,1541.2999999998137,red,0,0.0,0.38821033791171633,0.46237446547982125,0.16856462588068907,ryan
244,638693.0,learn,0,forest,2,412.79999999981374,black,1,0.0,0.31911211918286403,0.623215551803497,0.10118088865333835,ryan
246,642475.0,learn,1,forest,2,272.60000000009313,white,1,1.0,0.2071227981995773,0.5565126104276279,0.18550403675587596,ryan
248,646056.0,learn,0,forest,2,72.5,white,0,0.0,0.31036662291226935,0.6384580355821927,0.0741228843273636,ryan
250,649819.0,learn,0,forest,2,253.20000000018626,white,0,0.0,0.15444435342117033,0.6625171384225291,0.08039420115308156,ryan
252,653575.0,learn,0,forest,2,246.6999999997206,black,0,0.0,0.16181640713376078,0.5428254096916669,0.14490065095160598,ryan
254,657482.0,learn,0,forest,2,397.10000000009313,black,0,0.0,0.20395560145547242,0.5638312477444114,0.0751194522662623,ryan
256,661389.0,learn,1,forest,2,396.20000000018626,red,0,0.0,0.4526475167230795,0.4410717136453689,0.18012892718072424,ryan
258,665166.0,learn,0,forest,2,267.70000000018626,white,1,0.0,0.5471435358807559,0.18432460767887754,0.17972022708566956,ryan
260,668921.0,learn,0,forest,2,245.60000000009313,white,0,0.0,0.4388060580412028,0.11854694399531482,0.29807798507563976,ryan
262,672723.0,learn,0,forest,2,292.70000000018626,black,0,1.0,0.3975116168244604,0.06766075977026023,0.27705549940123964,ryan
264,676281.0,learn,0,forest,2,48.299999999813735,black,0,0.0,0.45994537048112416,0.12668607089246342,0.27882849904580786,ryan
266,681196.0,learn,0,forest,2,1406.2999999998137,black,1,0.0,0.4331165391236916,0.15086928885009535,0.4068478838583686,ryan
268,684990.0,learn,0,forest,2,284.29999999981374,white,0,0.0,0.5365088846326195,0.2059436519860591,0.2092786685041096,ryan
270,688880.0,learn,1,forest,2,380.6999999997206,red,0,0.0,0.42471967631558216,0.13653596693168815,0.2498923628877402,ryan
272,692910.0,learn,0,forest,2,519.4000000003725,white,1,0.0,0.5839267655566929,0.23247016794659675,0.17696093393829204,ryan
274,696779.0,learn,0,forest,2,359.5,black,1,1.0,0.5788322294255762,0.18092420919750557,0.2997046787239833,ryan
276,700694.0,learn,0,forest,2,406.0,black,1,0.0,0.623275858834659,0.13892625072057724,0.32573010383385365,ryan
278,704534.0,learn,0,forest,2,329.39999999990687,black,1,0.0,0.536337785079898,0.08567089784339929,0.34549538875251673,ryan
280,708868.0,learn,0,forest,2,824.6000000000931,black,1,0.0,0.5867191192834679,0.06454179110424119,0.30343793544127706,ryan
282,712410.0,learn,0,forest,2,33.6999999997206,white,0,0.0,0.5797678817673988,0.05763499803204018,0.3420361306720466,ryan
284,716152.0,learn,0,forest,2,233.29999999981374,black,1,0.0,0.6269522357251962,0.07403286818800918,0.4384200671170908,ryan
286,720113.0,learn,0,forest,2,451.5,black,1,0.0,0.6143478895307437,0.1296922946607907,0.30302530279165785,ryan
288,724188.0,learn,0,forest,2,564.8000000002794,black,1,1.0,0.6162812693082834,0.11001770711471304,0.2405462851940469,ryan
290,729199.0,learn,0,forest,2,1500.6999999997206,black,0,1.0,0.61466399270273,0.15282031042747973,0.4970026812524991,ryan
292,733044.0,learn,0,forest,2,335.10000000009313,black,1,1.0,0.5517597587216545,0.1341255118669626,0.47999643457096414,ryan
294,736808.0,learn,0,forest,2,254.6999999997206,black,0,0.0,0.6741018925070955,0.07480186210749447,0.44820603511486,ryan
296,740437.0,learn,0,forest,2,120.5,black,1,1.0,0.6637906752343515,0.19609409022602553,0.3187442869708029,ryan
298,744188.0,learn,0,forest,2,242.5,black,1,0.0,0.5556922425594164,0.10517617075469084,0.3689954339924686,ryan
300,747964.0,learn,1,forest,2,265.6999999997206,black,1,0.0,0.5367519785071919,0.15951349600826234,0.36767554439487393,ryan
302,751715.0,learn,0,forest,2,240.5,black,0,0.0,0.6312671050230587,0.12761540593145587,0.3376635079455821,ryan
304,755751.0,learn,0,forest,2,527.1000000000931,black,1,0.0,0.7648650867541248,0.23018983381719374,0.35419602994957516,ryan
306,759802.0,learn,0,forest,2,540.5999999996275,black,1,1.0,0.6861782700639603,0.07437565585267172,0.4310181006092643,ryan
308,764906.0,learn,0,forest,2,1596.6000000000931,black,0,1.0,0.6823698052558227,0.15995003260022914,0.49521687283901733,ryan
310,768891.0,learn,0,forest,2,476.59999999962747,black,1,1.0,0.6243777950938261,0.20100194198160726,0.293937794452173,ryan
317,791207.0,learn,0,mountain,3,1624.8999999999069,red,1,1.0,1.0,0.15626971004256462,0.4420517137082101,ryan
319,794964.0,learn,0,mountain,3,247.20000000018626,red,1,1.0,1.0,0.13615939130118024,0.48359488310445403,ryan
321,798770.0,learn,1,mountain,3,295.09999999962747,red,1,1.0,0.8849279071099396,0.13685218879514996,0.20714971881205507,ryan
323,802613.0,learn,0,mountain,3,333.6999999997206,red,1,1.0,0.7883830925840632,0.07785286697027237,0.2587081852847901,ryan
325,806516.0,learn,0,mountain,3,392.1999999997206,red,1,1.0,0.7844055626475485,0.052555338153039866,0.42319160827736496,ryan
327,810279.0,learn,0,mountain,3,252.0,red,0,0.0,0.722446271321172,0.14129742112747604,0.32353344247559096,ryan
329,814033.0,learn,0,mountain,3,244.0,white,1,0.0,0.5835070026254234,0.16367000432061882,0.38306732413741884,ryan
331,817553.0,learn,0,mountain,3,8.300000000279397,black,1,1.0,0.4947073984892598,0.12121706922674955,0.4414659784967322,ryan
333,821354.0,learn,0,mountain,3,291.0,black,0,0.0,0.5695560861696005,0.1739946435089569,0.3412682548831993,ryan
335,828363.0,learn,0,mountain,3,,,0,,0.7656838166154419,0.10779214992369923,0.18809997699105702,ryan
337,832212.0,learn,0,mountain,3,337.39999999990687,red,1,1.0,0.7356703606882471,0.10455856339156551,0.1291628243895009,ryan
339,835989.0,learn,0,mountain,3,268.20000000018626,red,1,1.0,0.6431942228806843,0.19000822491208852,0.14362558016453736,ryan
341,839861.0,learn,0,mountain,3,362.0,red,0,0.0,0.49253344399414517,0.26862611804630404,0.19038598728011635,ryan
343,843382.0,learn,1,mountain,3,12.200000000186265,red,0,0.0,0.10577299117458427,0.44464419840049363,0.31995712702379914,ryan
345,847120.0,learn,1,mountain,3,227.40000000037253,white,0,1.0,0.1434262679514457,0.5344899441605974,0.3027613466338587,ryan
347,851003.0,learn,0,mountain,3,373.39999999990687,white,1,0.0,0.1893707023262448,0.501459734477193,0.1999662707256461,ryan
349,854622.0,learn,1,mountain,3,109.40000000037253,black,0,0.0,0.24138252119631226,0.5210468741928816,0.26871509701511626,ryan
351,858233.0,learn,0,mountain,3,102.10000000009313,red,1,1.0,0.28312242920812714,0.5951820028165458,0.2735358845440469,ryan
353,861942.0,learn,0,mountain,3,199.6999999997206,red,0,0.0,0.13536219210097908,0.5330003576167095,0.19818438266614613,ryan
355,865703.0,learn,0,mountain,3,250.79999999981374,red,0,0.0,0.09762378360519282,0.6795986509938107,0.19552936926947617,ryan
357,869369.0,learn,1,mountain,3,156.0,white,0,1.0,0.05705004579976744,0.6336939506582185,0.14018331975512274,ryan
359,873216.0,learn,0,mountain,3,337.79999999981374,white,1,0.0,0.108600584256227,0.7547145819006927,0.24885134152794158,ryan
361,877266.0,learn,0,mountain,3,541.0,red,0,0.0,0.1547385597751469,0.672401683459621,0.14376467796058007,ryan
363,881612.0,learn,1,mountain,3,836.5,white,0,1.0,0.17158028285608407,0.7817998416986106,0.27266333664753306,ryan
365,885440.0,learn,1,mountain,3,317.79999999981374,white,0,1.0,0.2758443897039247,0.7894334471460064,0.31073222651152377,ryan
367,889380.0,learn,1,mountain,3,428.60000000009313,white,0,1.0,0.29263299511186,0.7059816585283997,0.3094703380263275,ryan
369,893480.0,learn,1,mountain,3,589.6000000000931,white,0,1.0,0.24033975304866986,0.6589854791982357,0.36441030779279,ryan
371,897353.0,learn,0,mountain,3,362.39999999990687,white,1,0.0,0.2500611745824186,0.7049786817739979,0.36164378954602905,ryan
373,902103.0,learn,1,mountain,3,1240.2999999998137,white,0,1.0,0.1467940879164224,0.6717737645379414,0.31366935641048704,ryan
375,906059.0,learn,0,mountain,3,446.5,white,0,0.0,0.18498398141995517,0.5914441940390937,0.4987555441171807,ryan
377,910020.0,learn,0,mountain,3,451.10000000009313,white,0,0.0,0.050831166833892175,0.6895524730728205,0.5615960124995955,ryan
379,914081.0,learn,0,mountain,3,550.2999999998137,white,1,0.0,0.22125426786014607,0.6354680306118118,0.44240608702999135,ryan
381,917945.0,learn,0,mountain,3,353.0,red,0,0.0,0.1227579008393105,0.5989910102438636,0.24864024403495144,ryan
383,921592.0,learn,0,mountain,3,137.20000000018626,red,0,0.0,0.27282663843405003,0.674662390497876,0.2984901666314692,ryan
385,925385.0,learn,1,mountain,3,283.3000000002794,black,1,0.0,0.2478194781617026,0.6113998088363871,0.28245511751050845,ryan
387,928935.0,learn,0,mountain,3,40.200000000186265,white,0,0.0,0.15457903340815496,0.5453818330213219,0.4420061897149597,ryan
389,932510.0,learn,0,mountain,3,65.29999999981374,white,0,0.0,0.13418493617738064,0.5738823378494157,0.3449502786687414,ryan
391,936320.0,learn,1,mountain,3,299.89999999990687,white,1,1.0,0.07599725044109021,0.5380190355410922,0.3554552412809057,ryan
393,940132.0,learn,0,mountain,3,301.3000000002794,white,0,0.0,0.1692803349363782,0.4975177200611874,0.2488249725555384,ryan
395,945477.0,learn,0,mountain,3,1836.8000000002794,white,0,0.0,0.08939250386881108,0.45213212076337167,0.25734236737134863,ryan
402,1018829.0,learn,1,highway,4,715.5,red,0,0.0,0.2929513475638553,1.0,0.25895617925086645,ryan
404,1022752.0,learn,1,highway,4,412.39999999990687,white,0,1.0,0.2651091314228544,1.0,0.3559878237134158,ryan
406,1026520.0,learn,1,highway,4,258.29999999981374,white,0,1.0,0.1913074296972798,0.8204677855849487,0.3292628443440136,ryan
408,1030332.0,learn,1,highway,4,301.5,white,0,1.0,0.0663343582629271,0.6983403150781847,0.23636824407709012,ryan
410,1034120.0,learn,0,highway,4,277.60000000009313,white,0,0.0,0.11720607702333222,0.6806606943983272,0.3237936326549305,ryan
412,1037761.0,learn,1,highway,4,130.3000000002794,black,0,0.0,0.12983233464392188,0.7283529867053927,0.3343916339189709,ryan
414,1041307.0,learn,1,highway,4,36.5,white,0,1.0,0.15295223072018035,0.5275716520813455,0.299061806698723,ryan
416,1044991.0,learn,1,highway,4,174.0,white,0,1.0,0.0852191035353481,0.5881067699511962,0.27104588997358237,ryan
418,1049123.0,learn,1,highway,4,622.1000000000931,white,0,1.0,0.08770378082623174,0.6380095423960943,0.24293403841882172,ryan
420,1052945.0,learn,1,highway,4,311.3000000002794,white,0,1.0,0.19021074844840513,0.678857087926392,0.07522142206856156,ryan
422,1056810.0,learn,1,highway,4,355.40000000037253,white,0,1.0,0.13873614865473716,0.7220940389842097,0.130915652651442,ryan
424,1061216.0,learn,1,highway,4,897.8999999999069,white,0,1.0,0.228851178407892,0.8674791119899189,0.07949589204922763,ryan
426,1065072.0,learn,1,highway,4,347.0,white,1,1.0,0.4501590427071819,0.7193216993109818,0.4126195630786402,ryan
428,1068872.0,learn,0,highway,4,290.0,white,1,0.0,0.617459255825761,0.5911866463301902,0.29746638115298835,ryan
430,1072598.0,learn,1,highway,4,215.79999999981374,white,0,1.0,0.5322720064720323,0.4327197220752556,0.16686816775236402,ryan
432,1076504.0,learn,0,highway,4,396.5,white,1,0.0,0.5883681856069799,0.5314600808690968,0.07252361634027164,ryan
434,1080210.0,learn,0,highway,4,195.39999999990687,white,0,0.0,0.7133804860879773,0.49876809174105957,0.10024250719390387,ryan
436,1083939.0,learn,0,highway,4,219.6999999997206,red,1,1.0,0.6788895496949303,0.4153981201729322,0.08664531553377434,ryan
438,1087895.0,learn,1,highway,4,447.29999999981374,red,1,1.0,0.637135438738795,0.42914728304075733,0.1505240201217735,ryan
440,1091517.0,learn,0,highway,4,113.0,red,0,0.0,0.5375720268881627,0.39102333975551956,0.13633087032540972,ryan
442,1095957.0,learn,1,highway,4,931.3999999999069,red,1,1.0,0.4892153792378289,0.3967111195709785,0.22852482479222133,ryan
444,1100015.0,learn,1,highway,4,548.3000000002794,red,1,1.0,0.43069106421070547,0.4477870648765676,0.23821946971386546,ryan
446,1104167.0,learn,0,highway,4,642.1999999997206,red,1,1.0,0.5802162308341822,0.3864784873816355,0.14667964898380917,ryan
448,1108159.0,learn,1,highway,4,483.10000000009313,red,1,1.0,0.6404270967133945,0.42842053362816906,0.15119909540612667,ryan
450,1112112.0,learn,0,highway,4,445.1999999997206,red,0,0.0,0.666236782844173,0.42699777796739347,0.18014645449805566,ryan
452,1116319.0,learn,0,highway,4,697.6999999997206,red,1,1.0,0.5871151354507458,0.3716154236965928,0.05968040312630135,ryan
454,1120192.0,learn,0,highway,4,362.89999999990687,red,1,1.0,0.5895399733461631,0.286842582215056,0.09939509315891126,ryan
456,1124116.0,learn,0,highway,4,413.59999999962747,red,1,1.0,0.6075147868771474,0.47209732947065486,0.10827569497466161,ryan
458,1128088.0,learn,0,highway,4,460.89999999990687,red,0,0.0,0.6275783929882709,0.3194158273207642,0.12996829393272524,ryan
460,1131740.0,learn,1,highway,4,142.60000000009313,red,1,1.0,0.5937500089734015,0.34561445086153597,0.08708323281305563,ryan
462,1135530.0,learn,0,highway,4,280.29999999981374,red,0,0.0,0.47972634086100535,0.20318419268442284,0.07411186273802153,ryan
464,1139265.0,learn,0,highway,4,224.59999999962747,red,0,0.0,0.5243279295488747,0.11680985489793946,0.06332306203147488,ryan
466,1143008.0,learn,0,highway,4,233.89999999990687,red,1,1.0,0.6321068102234938,0.2536037715280125,0.19287158204821073,ryan
468,1146733.0,learn,0,highway,4,214.60000000009313,red,1,1.0,0.6731577941634656,0.2728572034247755,0.21705892865325688,ryan
470,1150864.0,learn,0,highway,4,620.1999999997206,red,1,1.0,0.7381643400373862,0.40760670301131313,0.11893434619411851,ryan
472,1155289.0,learn,0,highway,4,915.5,red,1,1.0,0.6620785761789253,0.3532059128090407,0.18975214718071776,ryan
474,1159265.0,learn,1,highway,4,465.29999999981374,red,1,1.0,0.6531422481842172,0.47772040715283154,0.2313346513932464,ryan
476,1162841.0,learn,0,highway,4,64.70000000018626,red,0,0.0,0.5106215871481757,0.32319071769705277,0.08019886202114142,ryan
478,1166606.0,learn,1,highway,4,256.29999999981374,red,1,1.0,0.5170530795444681,0.3431516303331709,0.1895161547406434,ryan
480,1171160.0,learn,0,highway,4,1043.0,red,1,1.0,0.5597095145081439,0.24222477815082422,0.17522456467573622,ryan
487,1222046.0,learn,0,countryside,5,1211.0,white,1,0.0,1.0,0.17525678484883805,0.07382778957019494,ryan
489,1225752.0,learn,0,countryside,5,195.79999999981374,red,1,1.0,1.0,0.220078796686608,0.10803447985995346,ryan
491,1229491.0,learn,0,countryside,5,229.60000000009313,red,1,1.0,0.8675016125568134,0.2631326465370907,0.08824180990409039,ryan
493,1233322.0,learn,1,countryside,5,320.0,red,1,1.0,0.7834901296802265,0.39073252537710895,0.05484406243522212,ryan
495,1237201.0,learn,0,countryside,5,368.29999999981374,red,1,1.0,0.6343500682309796,0.45380504770910457,0.11903116998670146,ryan
497,1240822.0,learn,0,countryside,5,112.20000000018626,red,1,1.0,0.755748903522934,0.3774845292899997,0.11637943620987082,ryan
499,1244687.0,learn,0,countryside,5,354.5,red,1,1.0,0.8236595213696294,0.34875944840263984,0.11973133668997109,ryan
501,1248588.0,learn,0,countryside,5,391.70000000018626,red,1,1.0,0.7174586656025488,0.429402375597024,0.15756165934034175,ryan
503,1252385.0,learn,0,countryside,5,287.60000000009313,red,1,1.0,0.6409059517910669,0.48238117287438953,0.0913501278626217,ryan
505,1256192.0,learn,0,countryside,5,295.20000000018626,red,0,0.0,0.5661226360865775,0.33665296219993557,0.166435056815718,ryan
507,1260002.0,learn,0,countryside,5,300.6999999997206,red,1,1.0,0.5322662643926963,0.27712134231783636,0.2324230854101726,ryan
509,1263614.0,learn,0,countryside,5,102.70000000018626,red,1,1.0,0.5551826290606086,0.24980862859091413,0.2985456861053454,ryan
511,1267385.0,learn,1,countryside,5,259.8000000002794,red,0,0.0,0.4257982889750961,0.3140402399225663,0.28933074397458153,ryan
513,1271498.0,learn,0,countryside,5,603.8999999999069,red,0,0.0,0.3379315784394358,0.2499240470215745,0.3742563680629323,ryan
515,1275362.0,learn,0,countryside,5,354.89999999990687,red,0,0.0,0.2593788141610966,0.2831728828448896,0.5294875943570438,ryan
517,1279050.0,learn,0,countryside,5,179.39999999990687,black,0,1.0,0.1300769558701867,0.2925666388356375,0.4913756192094422,ryan
519,1282699.0,learn,0,countryside,5,139.79999999981374,black,0,1.0,0.16620573292570875,0.31106490045714463,0.48122353955623154,ryan
521,1286645.0,learn,0,countryside,5,435.10000000009313,black,0,1.0,0.2391016448150117,0.3555820031792609,0.5138129336442708,ryan
523,1290533.0,learn,0,countryside,5,378.79999999981374,black,0,0.0,0.0940992527331862,0.32086193964516035,0.4148747084004386,ryan
525,1294589.0,learn,0,countryside,5,545.7999999998137,black,0,0.0,0.08207071173468045,0.16870017886136382,0.38694039740755953,ryan
527,1300171.0,learn,0,countryside,5,2072.7000000001863,white,0,0.0,0.08518330314374489,0.2560145375518955,0.3967514637385389,ryan
529,1304830.0,learn,0,countryside,5,1149.2000000001863,black,0,1.0,0.09327199479356191,0.22742235835251434,0.5417812066877062,ryan
531,1308469.0,learn,0,countryside,5,127.6999999997206,black,1,0.0,0.1637284473077577,0.2356064549788829,0.5814520532230071,ryan
533,1312351.0,learn,1,countryside,5,371.39999999990687,black,1,1.0,0.22051327027289788,0.19246823742051547,0.6658118344775731,ryan
535,1316214.0,learn,0,countryside,5,353.29999999981374,black,0,0.0,0.14443359946453535,0.2693782680333733,0.5327556367615279,ryan
537,1320132.0,learn,1,countryside,5,407.39999999990687,black,1,0.0,0.1448134534505568,0.2708511498463787,0.6089309086156928,ryan
539,1323925.0,learn,1,countryside,5,282.5,red,0,0.0,0.11134926053952356,0.22755723169641376,0.5321907535497036,ryan
541,1329194.0,learn,0,countryside,5,1759.2000000001863,red,0,0.0,0.10652974414528261,0.2049547902396096,0.5137795306556646,ryan
543,1333118.0,learn,0,countryside,5,414.39999999990687,black,1,1.0,0.2430127806726903,0.22346823950872913,0.604579443282106,ryan
545,1336998.0,learn,0,countryside,5,364.10000000009313,black,1,0.0,0.255032199799347,0.4226376936758956,0.5723614895446902,ryan
547,1340766.0,learn,1,countryside,5,249.89999999990687,black,0,1.0,0.17058206518542676,0.28738132781826803,0.6492937862803468,ryan
549,1345361.0,learn,1,countryside,5,1077.8999999999069,black,1,0.0,0.1738723499033745,0.28323403366962413,0.6037563944238528,ryan
551,1349248.0,learn,1,countryside,5,372.10000000009313,black,1,1.0,0.06635204907549039,0.3191841949386933,0.7126498746353981,ryan
553,1353182.0,learn,1,countryside,5,421.70000000018626,black,0,0.0,0.09343419444849554,0.3419129812836228,0.6035371652729289,ryan
555,1357059.0,learn,0,countryside,5,364.5,black,0,1.0,0.12689430227277643,0.25399238701509413,0.6526485785533899,ryan
557,1361002.0,learn,0,countryside,5,432.1999999997206,black,0,0.0,0.050346299236908795,0.3034504980247905,0.7306260694870501,ryan
559,1364662.0,learn,1,countryside,5,149.40000000037253,black,1,1.0,0.06903010531643759,0.46834514291543783,0.5606098689279316,ryan
561,1368307.0,learn,1,countryside,5,132.89999999990687,black,1,0.0,0.12527325913238452,0.4121841381877342,0.6550754923593559,ryan
563,1372062.0,learn,0,countryside,5,245.0,black,0,0.0,0.05937912352749919,0.30149043475996906,0.634293064980493,ryan
565,1375887.0,learn,1,countryside,5,314.40000000037253,red,0,0.0,0.1438902405367264,0.3358081215155251,0.6064140200763253,ryan
572,1401863.0,judgement,1,city,0,2036.8999999999069,red,0,0.0,,,,ryan
574,1408091.0,judgement,0,city,0,716.3999999999069,white,0,0.0,,,,ryan
576,1414042.0,judgement,1,city,0,440.79999999981374,black,0,1.0,,,,ryan
578,1421223.0,judgement,0,city,0,1669.6999999997206,white,0,0.0,,,,ryan
580,1427006.0,judgement,0,city,0,272.39999999990687,black,1,0.0,,,,ryan
582,1432909.0,judgement,1,city,0,393.20000000018626,black,1,1.0,,,,ryan
584,1438815.0,judgement,1,city,0,395.3000000002794,black,0,0.0,,,,ryan
586,1444778.0,judgement,0,city,0,452.29999999981374,red,1,1.0,,,,ryan
588,1450659.0,judgement,0,city,0,370.39999999990687,red,0,0.0,,,,ryan
590,1457670.0,judgement,0,city,0,,,1,,,,,ryan
595,1469963.0,judgement,0,coast,1,400.70000000018626,black,0,1.0,,,,ryan
597,1475774.0,judgement,1,coast,1,300.89999999990687,black,0,0.0,,,,ryan
599,1481726.0,judgement,1,coast,1,441.8000000002794,black,0,0.0,,,,ryan
601,1487341.0,judgement,0,coast,1,104.1999999997206,white,0,0.0,,,,ryan
603,1493232.0,judgement,1,coast,1,379.79999999981374,red,0,0.0,,,,ryan
605,1499695.0,judgement,1,coast,1,954.5,black,0,0.0,,,,ryan
607,1505549.0,judgement,1,coast,1,343.5,black,0,1.0,,,,ryan
609,1511337.0,judgement,0,coast,1,275.39999999990687,black,0,0.0,,,,ryan
611,1517206.0,judgement,0,coast,1,359.10000000009313,black,0,0.0,,,,ryan
613,1522902.0,judgement,1,coast,1,184.5,white,0,1.0,,,,ryan
618,1539931.0,judgement,0,forest,2,,,1,,,,,ryan
620,1546040.0,judgement,0,forest,2,599.3999999999069,white,0,0.0,,,,ryan
622,1551837.0,judgement,1,forest,2,286.70000000018626,red,1,1.0,,,,ryan
624,1557460.0,judgement,0,forest,2,112.29999999981374,red,1,1.0,,,,ryan
626,1563041.0,judgement,0,forest,2,70.8000000002794,red,1,1.0,,,,ryan
628,1568768.0,judgement,1,forest,2,217.39999999990687,red,0,0.0,,,,ryan
630,1574852.0,judgement,1,forest,2,574.6999999997206,white,0,1.0,,,,ryan
632,1581100.0,judgement,0,forest,2,737.7000000001863,white,1,0.0,,,,ryan
634,1588161.0,judgement,1,forest,2,1551.7000000001863,white,0,1.0,,,,ryan
636,1593847.0,judgement,1,forest,2,174.60000000009313,white,0,1.0,,,,ryan
641,1608070.0,judgement,0,mountain,3,1199.6999999997206,white,1,0.0,,,,ryan
643,1613827.0,judgement,0,mountain,3,247.20000000018626,black,1,0.0,,,,ryan
645,1619456.0,judgement,0,mountain,3,117.90000000037253,red,0,0.0,,,,ryan
647,1625015.0,judgement,0,mountain,3,48.700000000186265,white,0,0.0,,,,ryan
649,1630564.0,judgement,1,mountain,3,40.0,black,1,0.0,,,,ryan
651,1636930.0,judgement,1,mountain,3,856.7999999998137,red,0,0.0,,,,ryan
653,1642830.0,judgement,0,mountain,3,388.60000000009313,red,1,1.0,,,,ryan
655,1648446.0,judgement,1,mountain,3,106.69999999925494,red,1,1.0,,,,ryan
657,1656518.0,judgement,0,mountain,3,2561.100000000559,red,0,0.0,,,,ryan
659,1662677.0,judgement,0,mountain,3,649.6000000005588,red,1,1.0,,,,ryan
664,1679521.0,judgement,0,highway,4,1315.3999999994412,black,0,1.0,,,,ryan
666,1685101.0,judgement,1,highway,4,69.5,black,1,1.0,,,,ryan
668,1692394.0,judgement,0,highway,4,1781.0999999996275,black,0,0.0,,,,ryan
670,1699707.0,judgement,1,highway,4,1802.7999999998137,white,1,1.0,,,,ryan
672,1705327.0,judgement,1,highway,4,110.6000000005588,white,1,1.0,,,,ryan
674,1710886.0,judgement,1,highway,4,49.5,white,0,1.0,,,,ryan
676,1716691.0,judgement,0,highway,4,294.79999999981374,white,1,0.0,,,,ryan
678,1722520.0,judgement,1,highway,4,317.6000000005588,red,0,0.0,,,,ryan
680,1729155.0,judgement,0,highway,4,1123.0,black,0,0.0,,,,ryan
682,1734676.0,judgement,0,highway,4,10.799999999813735,white,0,0.0,,,,ryan
687,1747594.0,judgement,0,countryside,5,1130.6000000005588,red,0,0.0,,,,ryan
689,1753311.0,judgement,0,countryside,5,205.8999999994412,white,1,0.0,,,,ryan
691,1760324.0,judgement,0,countryside,5,,,0,,,,,ryan
693,1766214.0,judgement,0,countryside,5,380.5,red,0,0.0,,,,ryan
695,1771827.0,judgement,0,countryside,5,103.0,white,0,0.0,,,,ryan
697,1778564.0,judgement,1,countryside,5,1227.0,black,0,0.0,,,,ryan
699,1785577.0,judgement,1,countryside,5,,,0,,,,,ryan
701,1791848.0,judgement,0,countryside,5,761.9000000003725,black,0,0.0,,,,ryan
703,1797461.0,judgement,0,countryside,5,103.20000000018626,white,0,0.0,,,,ryan
705,1803422.0,judgement,1,countryside,5,450.70000000018626,red,0,0.0,,,,ryan
