"success","trial_type","trial_index","time_elapsed","internal_node_id","interactions","blur_events","focus_events","fullscreenenter_events","fullscreenexit_events"
"true","fullscreen","0","2854","0.0-0.0","""event"",""trial"",""time""
""blur"",""0"",""0""
""focus"",""0"",""1141""
""fullscreenenter"",""0"",""2054""
","""event"",""trial"",""time""
""blur"",""0"",""0""
","""event"",""trial"",""time""
""focus"",""0"",""1141""
","""event"",""trial"",""time""
""fullscreenenter"",""0"",""2054""
","
"
"","pavlovia","1","2858","0.0-1.0","""event"",""trial"",""time""
""blur"",""0"",""0""
""focus"",""0"",""1141""
""fullscreenenter"",""0"",""2054""
""fullscreenexit"",""2"",""8067""
""blur"",""2"",""10333""
""focus"",""2"",""14012""
""blur"",""2"",""14012""
","""event"",""trial"",""time""
""blur"",""0"",""0""
""blur"",""2"",""10333""
""blur"",""2"",""14012""
","""event"",""trial"",""time""
""focus"",""0"",""1141""
""focus"",""2"",""14012""
","""event"",""trial"",""time""
""fullscreenenter"",""0"",""2054""
","""event"",""trial"",""time""
""fullscreenexit"",""2"",""8067""
"
