"success","trial_type","trial_index","time_elapsed","internal_node_id","interactions","blur_events","focus_events","fullscreenenter_events","fullscreenexit_events"
"true","fullscreen","0","6142","0.0-0.0","""event"",""trial"",""time""
""fullscreenenter"",""0"",""5186""
","
","
","""event"",""trial"",""time""
""fullscreenenter"",""0"",""5186""
","
"
"","pavlovia","1","6150","0.0-1.0","""event"",""trial"",""time""
""fullscreenenter"",""0"",""5186""
""blur"",""2"",""13475""
""fullscreenexit"",""2"",""36006""
""focus"",""2"",""40844""
""blur"",""2"",""44761""
""focus"",""2"",""46695""
""blur"",""2"",""52987""
","""event"",""trial"",""time""
""blur"",""2"",""13475""
""blur"",""2"",""44761""
""blur"",""2"",""52987""
","""event"",""trial"",""time""
""focus"",""2"",""40844""
""focus"",""2"",""46695""
","""event"",""trial"",""time""
""fullscreenenter"",""0"",""5186""
","""event"",""trial"",""time""
""fullscreenexit"",""2"",""36006""
"
