"success","trial_type","trial_index","time_elapsed","internal_node_id","interactions","blur_events","focus_events","fullscreenenter_events","fullscreenexit_events"
"true","fullscreen","0","5565","0.0-0.0","""event"",""trial"",""time""
""fullscreenenter"",""0"",""4578""
","
","
","""event"",""trial"",""time""
""fullscreenenter"",""0"",""4578""
","
"
"","pavlovia","1","5571","0.0-1.0","""event"",""trial"",""time""
""fullscreenenter"",""0"",""4578""
""fullscreenexit"",""2"",""76176""
""blur"",""2"",""76181""
""focus"",""2"",""76895""
""blur"",""2"",""157813""
""focus"",""2"",""157816""
","""event"",""trial"",""time""
""blur"",""2"",""76181""
""blur"",""2"",""157813""
","""event"",""trial"",""time""
""focus"",""2"",""76895""
""focus"",""2"",""157816""
","""event"",""trial"",""time""
""fullscreenenter"",""0"",""4578""
","""event"",""trial"",""time""
""fullscreenexit"",""2"",""76176""
"
