"success","trial_type","trial_index","time_elapsed","internal_node_id","interactions","blur_events","focus_events","fullscreenenter_events","fullscreenexit_events"
"true","fullscreen","0","3142","0.0-0.0","""event"",""trial"",""time""
""fullscreenenter"",""0"",""2150""
","
","
","""event"",""trial"",""time""
""fullscreenenter"",""0"",""2150""
","
"
"","pavlovia","1","3150","0.0-1.0","""event"",""trial"",""time""
""fullscreenenter"",""0"",""2150""
""fullscreenexit"",""2"",""11318""
""blur"",""2"",""16389""
","""event"",""trial"",""time""
""blur"",""2"",""16389""
","
","""event"",""trial"",""time""
""fullscreenenter"",""0"",""2150""
","""event"",""trial"",""time""
""fullscreenexit"",""2"",""11318""
"
