"success","trial_type","trial_index","time_elapsed","internal_node_id","interactions","blur_events","focus_events","fullscreenenter_events","fullscreenexit_events","rt","stimulus","key_press","subject_id","participant_id","age","gender","prompt"
"true","fullscreen","0","570181","0.0-0.0","""event"",""trial"",""time""
""blur"",""0"",""0""
""focus"",""0"",""18581""
""blur"",""0"",""18591""
""focus"",""0"",""36313""
""blur"",""0"",""37043""
""focus"",""0"",""55593""
""blur"",""0"",""56245""
""focus"",""0"",""566960""
""fullscreenenter"",""0"",""569830""
","""event"",""trial"",""time""
""blur"",""0"",""0""
""blur"",""0"",""18591""
""blur"",""0"",""37043""
""blur"",""0"",""56245""
","""event"",""trial"",""time""
""focus"",""0"",""18581""
""focus"",""0"",""36313""
""focus"",""0"",""55593""
""focus"",""0"",""566960""
","""event"",""trial"",""time""
""fullscreenenter"",""0"",""569830""
","
","","","","","","","",""
"","pavlovia","1","570185","0.0-1.0","""event"",""trial"",""time""
""blur"",""0"",""0""
""focus"",""0"",""18581""
""blur"",""0"",""18591""
""focus"",""0"",""36313""
""blur"",""0"",""37043""
""focus"",""0"",""55593""
""blur"",""0"",""56245""
""focus"",""0"",""566960""
""fullscreenenter"",""0"",""569830""
""fullscreenexit"",""2"",""571626""
""blur"",""2"",""572900""
","""event"",""trial"",""time""
""blur"",""0"",""0""
""blur"",""0"",""18591""
""blur"",""0"",""37043""
""blur"",""0"",""56245""
""blur"",""2"",""572900""
","""event"",""trial"",""time""
""focus"",""0"",""18581""
""focus"",""0"",""36313""
""focus"",""0"",""55593""
""focus"",""0"",""566960""
","""event"",""trial"",""time""
""fullscreenenter"",""0"",""569830""
","""event"",""trial"",""time""
""fullscreenexit"",""2"",""571626""
","","","","","","","",""
"","instruc1","2","615275","0.0-2.0","""event"",""trial"",""time""
""blur"",""0"",""0""
""focus"",""0"",""18581""
""blur"",""0"",""18591""
""focus"",""0"",""36313""
""blur"",""0"",""37043""
""focus"",""0"",""55593""
""blur"",""0"",""56245""
""focus"",""0"",""566960""
""fullscreenenter"",""0"",""569830""
""fullscreenexit"",""2"",""571626""
""blur"",""2"",""572900""
","""event"",""trial"",""time""
""blur"",""0"",""0""
""blur"",""0"",""18591""
""blur"",""0"",""37043""
""blur"",""0"",""56245""
""blur"",""2"",""572900""
","""event"",""trial"",""time""
""focus"",""0"",""18581""
""focus"",""0"",""36313""
""focus"",""0"",""55593""
""focus"",""0"",""566960""
","""event"",""trial"",""time""
""fullscreenenter"",""0"",""569830""
","""event"",""trial"",""time""
""fullscreenexit"",""2"",""571626""
","null","run_exp/static/audio/clip_1_welcome.m4a","null","229","626","10","male","<div class='center'><p>Welcome! This is the first part of the study. It will last ~30 minutes. In part 1 and part 2 of the study, you are the head captain of a pirate ship traveling around the world to different islands. You will play a few different games throughout these two parts. Here is an overview of them:</p><br><p>Part 1 (today)</p><p>1. Instructions, practice game, and quiz</p><p>2. Pick a pirate game on 6 different islands</p><br><p>Part 2 (tomorrow)</p><p>3. Pick a pirate game and memory game</p><p>4. Where did you see this ship? </p></div>"
