"success","trial_type","trial_index","time_elapsed","internal_node_id","interactions","blur_events","focus_events","fullscreenenter_events","fullscreenexit_events"
"true","fullscreen","0","34932","0.0-0.0","""event"",""trial"",""time""
""blur"",""0"",""0""
""focus"",""0"",""0""
""blur"",""0"",""0""
""focus"",""0"",""0""
""blur"",""0"",""0""
""focus"",""0"",""0""
""blur"",""0"",""0""
""focus"",""0"",""0""
""blur"",""0"",""0""
""focus"",""0"",""0""
""blur"",""0"",""0""
""focus"",""0"",""0""
""blur"",""0"",""0""
""focus"",""0"",""3815""
""blur"",""0"",""5614""
""focus"",""0"",""7043""
""blur"",""0"",""8241""
""focus"",""0"",""9614""
""blur"",""0"",""10665""
""focus"",""0"",""12549""
""blur"",""0"",""13223""
""focus"",""0"",""32214""
""fullscreenenter"",""0"",""33981""
","""event"",""trial"",""time""
""blur"",""0"",""0""
""blur"",""0"",""0""
""blur"",""0"",""0""
""blur"",""0"",""0""
""blur"",""0"",""0""
""blur"",""0"",""0""
""blur"",""0"",""0""
""blur"",""0"",""5614""
""blur"",""0"",""8241""
""blur"",""0"",""10665""
""blur"",""0"",""13223""
","""event"",""trial"",""time""
""focus"",""0"",""0""
""focus"",""0"",""0""
""focus"",""0"",""0""
""focus"",""0"",""0""
""focus"",""0"",""0""
""focus"",""0"",""0""
""focus"",""0"",""3815""
""focus"",""0"",""7043""
""focus"",""0"",""9614""
""focus"",""0"",""12549""
""focus"",""0"",""32214""
","""event"",""trial"",""time""
""fullscreenenter"",""0"",""33981""
","
"
"","pavlovia","1","34940","0.0-1.0","""event"",""trial"",""time""
""blur"",""0"",""0""
""focus"",""0"",""0""
""blur"",""0"",""0""
""focus"",""0"",""0""
""blur"",""0"",""0""
""focus"",""0"",""0""
""blur"",""0"",""0""
""focus"",""0"",""0""
""blur"",""0"",""0""
""focus"",""0"",""0""
""blur"",""0"",""0""
""focus"",""0"",""0""
""blur"",""0"",""0""
""focus"",""0"",""3815""
""blur"",""0"",""5614""
""focus"",""0"",""7043""
""blur"",""0"",""8241""
""focus"",""0"",""9614""
""blur"",""0"",""10665""
""focus"",""0"",""12549""
""blur"",""0"",""13223""
""focus"",""0"",""32214""
""fullscreenenter"",""0"",""33981""
""fullscreenexit"",""2"",""36764""
""blur"",""2"",""38489""
""focus"",""2"",""38491""
","""event"",""trial"",""time""
""blur"",""0"",""0""
""blur"",""0"",""0""
""blur"",""0"",""0""
""blur"",""0"",""0""
""blur"",""0"",""0""
""blur"",""0"",""0""
""blur"",""0"",""0""
""blur"",""0"",""5614""
""blur"",""0"",""8241""
""blur"",""0"",""10665""
""blur"",""0"",""13223""
""blur"",""2"",""38489""
","""event"",""trial"",""time""
""focus"",""0"",""0""
""focus"",""0"",""0""
""focus"",""0"",""0""
""focus"",""0"",""0""
""focus"",""0"",""0""
""focus"",""0"",""0""
""focus"",""0"",""3815""
""focus"",""0"",""7043""
""focus"",""0"",""9614""
""focus"",""0"",""12549""
""focus"",""0"",""32214""
""focus"",""2"",""38491""
","""event"",""trial"",""time""
""fullscreenenter"",""0"",""33981""
","""event"",""trial"",""time""
""fullscreenexit"",""2"",""36764""
"
