"success","trial_type","trial_index","time_elapsed","internal_node_id","interactions","blur_events","focus_events","fullscreenenter_events","fullscreenexit_events"
"true","fullscreen","0","4142","0.0-0.0","""event"",""trial"",""time""
""fullscreenenter"",""0"",""3197""
","
","
","""event"",""trial"",""time""
""fullscreenenter"",""0"",""3197""
","
"
"","pavlovia","1","4144","0.0-1.0","""event"",""trial"",""time""
""fullscreenenter"",""0"",""3197""
""fullscreenexit"",""2"",""46363""
""blur"",""2"",""62942""
""focus"",""2"",""62966""
","""event"",""trial"",""time""
""blur"",""2"",""62942""
","""event"",""trial"",""time""
""focus"",""2"",""62966""
","""event"",""trial"",""time""
""fullscreenenter"",""0"",""3197""
","""event"",""trial"",""time""
""fullscreenexit"",""2"",""46363""
"
