"success","trial_type","trial_index","time_elapsed","internal_node_id","rt","stimulus","key_press","subject_id","response"
"true","fullscreen","0","5408","0.0-0.0","","","","",""
"","pavlovia","1","5411","0.0-1.0","","","","",""
"","html-keyboard-response","2","22176","0.0-2.0","16765","<div class='center'><p>Welcome! This is the first day of the experiment which will last ~30 minutes. In this experiment, you are the head captain of a pirate ship traveling around the world to different places. You will complete several different tasks during this experiment. Here is an overview of these tasks:</p><br><p>Day 1</p><p>1. Tutorial and quiz</p><p>2. Pick a pirate game in 6 different places</p><br><p>Day 2</p><p>3. Pick a pirate game and memory game</p><p>4. Final questions and payment</p><br><p>If you complete the entire experiment, you will receive $15 and a possible bonus payment.</p><p><b>[Press the space bar to begin the tutorial]</b></p></div>","32","5d6ab68809f9270001dac666",""
"","html-keyboard-response","3","30056","0.0-3.0","7878.399999976158","<div class='center'><p>You are the head captain of a pirate ship.</p><p> Your pirates rob other ships as they leave the marketplace port.</p> These ships have just sold all their goods at the marketplace, so they have lots and lots of gold on them.</p><p><img src='run_exp/static/images/ship_center.png' height='400'></p><p><b>[Press the space bar to continue]</b></p></div>","32","",""
"","html-keyboard-response","4","44136","0.0-4.0","14079.599999964237","<div class='center'><p>As the head captain, you do not have to rob any ships yourself.</p><p>You get to choose which pirate you want to rob the next ship. </p><p>If they are successful at robbing the ship, then you will get gold coins.</p><p> If they are not successful, then you will get no gold coins.</p><p> The more coins you collect, the more bonus money you will win. So, choose your pirate wisely.</p><p><img src='run_exp/static/images/goal.png' height='400'></p><p><b>[Press the space bar to continue]</b></p><div>","32","",""
"","html-keyboard-response","5","56208","0.0-5.0","12071.199999988079","<div class='center'><p>Even the most skilled pirate will not be able to rob EVERY ship.</p><p> Some ships will have very strong defenses against attacks.</p><p> For example, blue beard, here,  is very good at robbing ships.</p><p> You can press the <b>‘1’</b> button on the keyboard to choose him.</p><p> Try choosing him 10 times to see how often he is successful at robbing ships. </p><p><img src='run_exp/static/images/blue.png' height='500'></p></div>","49","",""
"","html-keyboard-response","6","57709","0.0-6.0","null","<br><br><br><br><p><img src='run_exp/static/images/blue_win.png' height='500'></p>","null","",""
"","html-keyboard-response","7","58872","0.0-7.0","1162.5","<br><br><br><br><p><img src='run_exp/static/images/blue.png' height='500'></p>","49","",""
"","html-keyboard-response","8","60373","0.0-8.0","null","<br><br><br><br><p><img src='run_exp/static/images/blue_win.png' height='500'></p>","null","",""
"","html-keyboard-response","9","61079","0.0-9.0","705.5999999642372","<br><br><br><br><p><img src='run_exp/static/images/blue.png' height='500'></p>","49","",""
"","html-keyboard-response","10","62581","0.0-10.0","null","<br><br><br><br><p><img src='run_exp/static/images/blue_win.png' height='500'></p>","null","",""
"","html-keyboard-response","11","63103","0.0-11.0","521.5","<br><br><br><br><p><img src='run_exp/static/images/blue.png' height='500'></p>","49","",""
"","html-keyboard-response","12","64605","0.0-12.0","null","<br><br><br><br><p><img src='run_exp/static/images/blue_no_win.png' height='500'></p>","null","",""
"","html-keyboard-response","13","65063","0.0-13.0","457.69999998807907","<br><br><br><br><p><img src='run_exp/static/images/blue.png' height='500'></p>","49","",""
"","html-keyboard-response","14","66566","0.0-14.0","null","<br><br><br><br><p><img src='run_exp/static/images/blue_win.png' height='500'></p>","null","",""
"","html-keyboard-response","15","66943","0.0-15.0","376.9000000357628","<br><br><br><br><p><img src='run_exp/static/images/blue.png' height='500'></p>","49","",""
"","html-keyboard-response","16","68445","0.0-16.0","null","<br><br><br><br><p><img src='run_exp/static/images/blue_win.png' height='500'></p>","null","",""
"","html-keyboard-response","17","68799","0.0-17.0","353.9000000357628","<br><br><br><br><p><img src='run_exp/static/images/blue.png' height='500'></p>","49","",""
"","html-keyboard-response","18","70301","0.0-18.0","null","<br><br><br><br><p><img src='run_exp/static/images/blue_win.png' height='500'></p>","null","",""
"","html-keyboard-response","19","70655","0.0-19.0","353.9000000357628","<br><br><br><br><p><img src='run_exp/static/images/blue.png' height='500'></p>","49","",""
"","html-keyboard-response","20","72156","0.0-20.0","null","<br><br><br><br><p><img src='run_exp/static/images/blue_no_win.png' height='500'></p>","null","",""
"","html-keyboard-response","21","72535","0.0-21.0","378.9000000357628","<br><br><br><br><p><img src='run_exp/static/images/blue.png' height='500'></p>","49","",""
"","html-keyboard-response","22","74036","0.0-22.0","null","<br><br><br><br><p><img src='run_exp/static/images/blue_win.png' height='500'></p>","null","",""
"","html-keyboard-response","23","74432","0.0-23.0","395.19999998807907","<br><br><br><br><p><img src='run_exp/static/images/blue.png' height='500'></p>","49","",""
"","html-keyboard-response","24","75934","0.0-24.0","null","<br><br><br><br><p><img src='run_exp/static/images/blue_win.png' height='500'></p>","null","",""
"","html-keyboard-response","25","78280","0.0-25.0","2345.5","<div class='center'><p> See, he was successful at robbing the ships most of the time but not every time. </p><p><b>[Press the space bar to continue]</b></p></div>","32","",""
"","html-keyboard-response","26","87272","0.0-26.0","8991.300000011921","<div class='center'><p>In the game, you will get to choose which of three pirates you want to rob the next ship. <p>Press the <b>‘1’</b> button on your keyboard to pick the pirate with the red beard.</p><p> Press <b>‘2’</b> to pick the pirate with the white beard.</p><p> Press <b>‘3’</b> to pick the pirate with the black beard.</p><p>Try picking a pirate now!</p><p><img src='run_exp/static/images/all_pirates.png' height='500'></p></div>","50","",""
"","html-keyboard-response","27","89272","0.0-27.0-0.0","1998.699999988079","<div class='center'><p>This pirate was successful at robbing the ship!</p><p><img src='run_exp/static/images/white_win.png' height='500'></p><p><b>[Press the space bar to continue]</b></p></div>","32","",""
"","html-keyboard-response","28","90560","0.0-27.0-1.0","1287.5999999642372","<div class='center'><p>Now try choosing another</p><p><img src='run_exp/static/images/all_pirates.png' height='500'></p></div>","50","",""
"","html-keyboard-response","29","92640","0.0-28.0-0.0","2079.099999964237","<div class='center'><p>This pirate was not successful at robbing the ship!</p><p><img src='run_exp/static/images/white_no_win.png' height='500'></p><p><b>[Press the space bar to continue]</b></p></div>","32","",""
"","html-keyboard-response","30","96392","0.0-29.0-0.0","3751.399999976158","<div class='center'><p>You’ll stop at these 6 places on your journey.</p><p><img src='run_exp/static/images/all_contexts.png' height='500'></p><p><b>[Press the space bar to continue]</b></p></div>","32","",""
"","html-keyboard-response","31","103408","0.0-29.0-1.0","7015.899999976158","<div class='center'><p>How good a pirate is at robbing ships will depend on the current place.</p><p> Some pirates will have been to the place before, and will have more experience robbing ships there.</p><p>So, they will be more successful at stealing gold and bringing it back to you.</p><p><b>[Press the space bar to continue]</b></p></div>","32","",""
"","html-keyboard-response","32","114895","0.0-29.0-2.0","11487.400000035763","<div class='center'><p>How successful a pirate is at robbing ships can also change in a place.<p> Ships may hear about the pirates coming and will improve their defenses. This may make it more difficult to rob them.</p><p> Ships may also grow lazy and lower their defenses. This may make it easier to rob them.</p><br><p>Things are always changing on the high seas! So, try your best to pay attention!</p><p><img src='run_exp/static/images/contingency.png' height='500'></p><p><b>[Press the space bar to continue]</b></p></div>","32","",""
"","html-keyboard-response","33","141792","0.0-29.0-3.0","26895.600000023842","<div class='center'><p>Once you choose a pirate to rob a ship, you’ll be shown the ship they are robbing.</p><p>The ship will have a picture of the item they sold at the marketplace.</p><p> Try your best to remember the ship and where you saw the ship.</p><p> You’ll have to remember this for later, and remembering this correctly will help you win more bonus money!</p><p>You can remember the ship by remembering the item they sold at the marketplace</p><p>A helpful strategy is to try to come up with a story of the chosen pirate and ship’s item interacting with the scene.</p><p> For example, a ship might have sold travel mugs and you could imagine red beard walking through the city with a travel mug. </p><p>Or imagine an apple falling from a tree into white beard's hands in the forest.</p><p><img src='run_exp/static/images/example_probe.png' height='500'></p><p><b>[Press the space bar to continue]</b></p></div>","32","",""
"","html-keyboard-response","34","148207","0.0-29.0-4.0","6414.800000011921","<div class='center'><p>If you don’t make your choice fast enough, you’ll have to wait a few seconds before you can make another one. </p><p>You can’t win more gold. You just have to sit and wait.</p><p><img src='run_exp/static/images/hurry_up.png' height='500'></p><p><b>[Press the space bar to continue]</b></p></div>","32","",""
"","html-keyboard-response","35","182278","0.0-29.0-5.0","34071.90000003576","<div class='center'><p>Again, you have two important things to do: </p><b><p> 1. Pick the pirate who you think will be most successful at robbing the next ship.</p></b><b><p> 2. Remember where a pirate robbed a ship.</p> </b><p>Both are important in determining how much bonus money you’ll win.</p><br><p>Let’s try a practice game. The game will start by showing you the pirates. First pick a pirate using the <b> 1, 2, 3 </b> buttons on your keyboard. When you are shown a ship, try to remember the place you’re in by making up a story.</p><p> You only have 3 seconds to pick a pirate, so please make a choice quickly! If you are too slow, you’ll have to wait a bit during the time out.</p><p> Don’t feel rushed, but please do try to make a choice every time.</p><p>How good a pirate is at robbing a ship will change depending on the place they are in and how good the defenses are of the ship.</p> <p>This is just a practice game, so you’re not playing for money. </p><p>You’ll receive a bag which may or may not contain gold coins.</p><p> In the real game, though, you’ll be able to see whether or not you received the gold coins.</p><p> Good luck, remember press <b>'1'</b> to choose red beard, <b>'2'</b> to choose white beard, and <b>'3'</b> to choose black beard</p><p><b>[Press the space bar to begin the practice game]</b></p></div>","32","",""
"","do_trial_prac","36","188300","0.0-29.0-6.0","1516.1000000238419","","","","50"
"","do_trial_prac","37","194252","0.0-29.0-7.0","1447.5","","","","50"
"","do_trial_prac","38","199692","0.0-29.0-8.0","935.9000000357628","","","","49"
"","do_trial_prac","39","205539","0.0-29.0-9.0","1343.300000011921","","","","49"
"","do_trial_prac","40","211108","0.0-29.0-10.0","1065.3999999761581","","","","51"
"","html-keyboard-response","41","217862","0.0-29.0-11.0","6753.399999976158","<div class='center'><p>Great job on the practice game!</p><p> Now, you will be asked you some true or false questions to make sure you really understand the rules of the game.</p><p> Press <b>'1'</b> on the keyboard for true and press <b>'2'</b> for false.</p><p><b>[Press the space bar to begin the quiz]</b></p></div>","32","",""
"","html-keyboard-response","42","221646","0.0-29.0-12.0","3783.599999964237","<div class='center'><p>You win bonus money by making choices as fast as possible.</p><p>Press 1 for true and press  2 for false.</p></div>","50","",""
"","html-keyboard-response","43","222774","0.0-30.0-0.0","1127.5","<br><br><br><br><p>That's correct!</p> <p><b>[press the space bar to continue with the quiz]</b></p>","32","",""
