"success","trial_type","trial_index","time_elapsed","internal_node_id","interactions","blur_events","focus_events","fullscreenenter_events","fullscreenexit_events"
"true","fullscreen","0","2090","0.0-0.0","""event"",""trial"",""time""
""fullscreenenter"",""0"",""1144""
","
","
","""event"",""trial"",""time""
""fullscreenenter"",""0"",""1144""
","
"
"","pavlovia","1","2094","0.0-1.0","""event"",""trial"",""time""
""fullscreenenter"",""0"",""1144""
""blur"",""2"",""5638""
""fullscreenexit"",""2"",""2056561""
","""event"",""trial"",""time""
""blur"",""2"",""5638""
","
","""event"",""trial"",""time""
""fullscreenenter"",""0"",""1144""
","""event"",""trial"",""time""
""fullscreenexit"",""2"",""2056561""
"
