"success","trial_type","trial_index","time_elapsed","internal_node_id","interactions","blur_events","focus_events","fullscreenenter_events","fullscreenexit_events","rt","stimulus","key_press","subject_id","participant_id","age","gender","prompt"
"true","fullscreen","0","2626","0.0-0.0","""event"",""trial"",""time""
""fullscreenenter"",""0"",""1663""
","
","
","""event"",""trial"",""time""
""fullscreenenter"",""0"",""1663""
","
","","","","","","","",""
"","pavlovia","1","2637","0.0-1.0","""event"",""trial"",""time""
""fullscreenenter"",""0"",""1663""
","
","
","""event"",""trial"",""time""
""fullscreenenter"",""0"",""1663""
","
","","","","","","","",""
"","instruc1","2","48026","0.0-2.0","""event"",""trial"",""time""
""fullscreenenter"",""0"",""1663""
","
","
","""event"",""trial"",""time""
""fullscreenenter"",""0"",""1663""
","
","null","run_exp/static/audio/clip_1_welcome.m4a","null","284","928","15","Male","<div class='center'><p>Welcome! This is the first part of the study. It will last ~30 minutes. In part 1 and part 2 of the study, you are the head captain of a pirate ship traveling around the world to different islands. You will play a few different games throughout these two parts. Here is an overview of them:</p><br><p>Part 1 (today)</p><p>1. Instructions, practice game, and quiz</p><p>2. Pick a pirate game on 6 different islands</p><br><p>Part 2 (tomorrow)</p><p>3. Pick a pirate game and memory game</p><p>4. Where did you see this ship? </p></div>"
"","html-keyboard-response","3","52619","0.0-3.0","""event"",""trial"",""time""
""fullscreenenter"",""0"",""1663""
","
","
","""event"",""trial"",""time""
""fullscreenenter"",""0"",""1663""
","
","4588.9000000003725","<div class='center'><p>Welcome! This is the first part of the study. It will last ~30 minutes. In part 1 and part 2 of the study, you are the head captain of a pirate ship traveling around the world to different islands. You will play a few different games throughout these two parts. Here is an overview of them:</p><br><p>Part 1 (today)</p><p>1. Instructions, practice game, and quiz</p><p>2. Pick a pirate game on 6 different islands</p><br><p>Part 2 (tomorrow)</p><p>3. Pick a pirate game and memory game</p><p>4. Where did you see this ship? </p><p><b>[Press the space bar to continue]</b></p></div>","32","","","","",""
"","instruc2","4","58149","0.0-4.0","""event"",""trial"",""time""
""fullscreenenter"",""0"",""1663""
","
","
","""event"",""trial"",""time""
""fullscreenenter"",""0"",""1663""
","
","null","run_exp/static/audio/clip_2_different_places.m4a","null","","","","","<div class='center'><p>Today, you’ll visit these 6 islands on your journey. You'll be able to see these islands from your ship.</p><p><img src='run_exp/static/images/contexts/all_contexts.png' height='500'></p></div>"
"","html-keyboard-response","5","58750","0.0-5.0","""event"",""trial"",""time""
""fullscreenenter"",""0"",""1663""
","
","
","""event"",""trial"",""time""
""fullscreenenter"",""0"",""1663""
","
","597.5999999996275","<div class='center'><p>Today, you’ll visit these 6 islands on your journey. You'll be able to see these islands from your ship.</p><p><img src='run_exp/static/images/contexts/all_contexts.png' height='500'></p><p><b>[Press the space bar to continue]</b></p></div>","32","","","","",""
"","instruc3","6","68650","0.0-6.0","""event"",""trial"",""time""
""fullscreenenter"",""0"",""1663""
","
","
","""event"",""trial"",""time""
""fullscreenenter"",""0"",""1663""
","
","null","run_exp/static/audio/clip_3_goal_of_game_1.m4a","null","","","","","<div class='center'><p> The pirates on your ship will rob other ships as they leave the island.</p> These ships have just sold their goods to the islanders, so they will be filled with lots and lots of gold.</p><p><img src='run_exp/static/images/tutorial/ship_center.png' height='400'></p></div>"
"","html-keyboard-response","7","68961","0.0-7.0","""event"",""trial"",""time""
""fullscreenenter"",""0"",""1663""
","
","
","""event"",""trial"",""time""
""fullscreenenter"",""0"",""1663""
","
","307.2000000011176","<div class='center'><p> The pirates on your ship will rob other ships as they leave the island.</p> These ships have just sold their goods to the islanders, so they will be filled with lots and lots of gold.</p><p><img src='run_exp/static/images/tutorial/ship_center.png' height='400'></p><p><b>[Press the space bar to continue]</b></p></div>","32","","","","",""
"","instruc4","8","97182","0.0-8.0","""event"",""trial"",""time""
""fullscreenenter"",""0"",""1663""
","
","
","""event"",""trial"",""time""
""fullscreenenter"",""0"",""1663""
","
","null","run_exp/static/audio/clip_4_goal_of_game_2.m4a","null","","","","","<div class='center'><p>As the head captain, you do not have to rob any ships yourself. Another pirate will be doing the robbing for you. First, you will choose a pirate to rob the next ship.</p><p><img src='run_exp/static/images/tutorial/pirates_all_crop.png' height='200'></p><p>Then, you'll see if the pirate successfully robbed the ship of their gold. If they were successful, then you'll get a stack of gold coins like this:</p><p><img src='run_exp/static/images/tutorial/reward.png' height='150'></p><p> If they were <b>not</b> successful, then you'll get no gold coins, and you'll see a big red x like this: </p><p><img src='run_exp/static/images/tutorial/reward_no.png' height='150'></p><p> How much bonus money you make is based on how many gold coins you collect.</p><div>"
"","html-keyboard-response","9","98827","0.0-9.0","""event"",""trial"",""time""
""fullscreenenter"",""0"",""1663""
","
","
","""event"",""trial"",""time""
""fullscreenenter"",""0"",""1663""
","
","1639.7999999988824","<div class='center'><p>As the head captain, you do not have to rob any ships yourself. Another pirate will be doing the robbing for you. First, you will choose a pirate to rob the next ship.</p><p><img src='run_exp/static/images/tutorial/pirates_all_crop.png' height='200'></p><p>Then, you'll see if the pirate successfully robbed the ship of their gold. If they were successful, then you'll get a stack of gold coins like this:</p><p><img src='run_exp/static/images/tutorial/reward.png' height='150'></p><p> If they were <b>not</b> successful, then you'll get no gold coins, and you'll see a big red x like this: </p><p><img src='run_exp/static/images/tutorial/reward_no.png' height='150'></p><p> How much bonus money you make is based on how many gold coins you collect.</p<p><b>[Press the space bar to continue]</b></p></div>","32","","","","",""
"","instruc5","10","119022","0.0-10.0","""event"",""trial"",""time""
""fullscreenenter"",""0"",""1663""
","
","
","""event"",""trial"",""time""
""fullscreenenter"",""0"",""1663""
","
","20190","run_exp/static/audio/clip_5_probabilistic.m4a","49","","","","","<div class='center'><p>Even the most skilled pirate can not rob EVERY ship.</p><p> Some ships will have very strong protections against pirate attacks.</p><p> Blue beard, here, is very, very good at robbing ships, but he won't be successful every time he tries to rob one.</p><p> You can press the <b>‘1’</b> key on the keyboard to choose him.</p><p> Try choosing him 10 times to see how often he succeeds at robbing a ship. </p><p><img src='run_exp/static/images/tutorial/blue.png' height='500'></p></div>"
"","html-keyboard-response","11","120525","0.0-11.0","""event"",""trial"",""time""
""fullscreenenter"",""0"",""1663""
","
","
","""event"",""trial"",""time""
""fullscreenenter"",""0"",""1663""
","
","null","<div class='center'><p><img src='run_exp/static/images/tutorial/blue_win.png' height='500'></p></div>","null","","","","",""
"","html-keyboard-response","12","121362","0.0-12.0","""event"",""trial"",""time""
""fullscreenenter"",""0"",""1663""
","
","
","""event"",""trial"",""time""
""fullscreenenter"",""0"",""1663""
","
","835.2000000011176","<div class='center'><img src='run_exp/static/images/tutorial/blue.png' height='500'></p></div>","49","","","","",""
"","html-keyboard-response","13","122865","0.0-13.0","""event"",""trial"",""time""
""fullscreenenter"",""0"",""1663""
","
","
","""event"",""trial"",""time""
""fullscreenenter"",""0"",""1663""
","
","null","<div class='center'><p><img src='run_exp/static/images/tutorial/blue_win.png' height='500'></p></div>","null","","","","",""
"","html-keyboard-response","14","123349","0.0-14.0","""event"",""trial"",""time""
""fullscreenenter"",""0"",""1663""
","
","
","""event"",""trial"",""time""
""fullscreenenter"",""0"",""1663""
","
","482.59999999962747","<div class='center'><img src='run_exp/static/images/tutorial/blue.png' height='500'></p></div>","49","","","","",""
"","html-keyboard-response","15","124851","0.0-15.0","""event"",""trial"",""time""
""fullscreenenter"",""0"",""1663""
","
","
","""event"",""trial"",""time""
""fullscreenenter"",""0"",""1663""
","
","null","<div class='center'><p><img src='run_exp/static/images/tutorial/blue_win.png' height='500'></p></div>","null","","","","",""
"","html-keyboard-response","16","125144","0.0-16.0","""event"",""trial"",""time""
""fullscreenenter"",""0"",""1663""
","
","
","""event"",""trial"",""time""
""fullscreenenter"",""0"",""1663""
","
","290.90000000037253","<div class='center'><img src='run_exp/static/images/tutorial/blue.png' height='500'></p></div>","49","","","","",""
"","html-keyboard-response","17","126648","0.0-17.0","""event"",""trial"",""time""
""fullscreenenter"",""0"",""1663""
","
","
","""event"",""trial"",""time""
""fullscreenenter"",""0"",""1663""
","
","null","<div class='center'><p><img src='run_exp/static/images/tutorial/blue_no_win.png' height='500'></p></div>","null","","","","",""
"","html-keyboard-response","18","126968","0.0-18.0","""event"",""trial"",""time""
""fullscreenenter"",""0"",""1663""
","
","
","""event"",""trial"",""time""
""fullscreenenter"",""0"",""1663""
","
","317.5","<div class='center'><img src='run_exp/static/images/tutorial/blue.png' height='500'></p></div>","49","","","","",""
"","html-keyboard-response","19","128472","0.0-19.0","""event"",""trial"",""time""
""fullscreenenter"",""0"",""1663""
","
","
","""event"",""trial"",""time""
""fullscreenenter"",""0"",""1663""
","
","null","<div class='center'><p><img src='run_exp/static/images/tutorial/blue_win.png' height='500'></p></div>","null","","","","",""
"","html-keyboard-response","20","128723","0.0-20.0","""event"",""trial"",""time""
""fullscreenenter"",""0"",""1663""
","
","
","""event"",""trial"",""time""
""fullscreenenter"",""0"",""1663""
","
","248.80000000074506","<div class='center'><img src='run_exp/static/images/tutorial/blue.png' height='500'></p></div>","49","","","","",""
"","html-keyboard-response","21","130226","0.0-21.0","""event"",""trial"",""time""
""fullscreenenter"",""0"",""1663""
","
","
","""event"",""trial"",""time""
""fullscreenenter"",""0"",""1663""
","
","null","<div class='center'><p><img src='run_exp/static/images/tutorial/blue_win.png' height='500'></p></div>","null","","","","",""
"","html-keyboard-response","22","130473","0.0-22.0","""event"",""trial"",""time""
""fullscreenenter"",""0"",""1663""
","
","
","""event"",""trial"",""time""
""fullscreenenter"",""0"",""1663""
","
","244.19999999925494","<div class='center'><img src='run_exp/static/images/tutorial/blue.png' height='500'></p></div>","49","","","","",""
"","html-keyboard-response","23","131976","0.0-23.0","""event"",""trial"",""time""
""fullscreenenter"",""0"",""1663""
","
","
","""event"",""trial"",""time""
""fullscreenenter"",""0"",""1663""
","
","null","<div class='center'><p><img src='run_exp/static/images/tutorial/blue_win.png' height='500'></p></div>","null","","","","",""
"","html-keyboard-response","24","132248","0.0-24.0","""event"",""trial"",""time""
""fullscreenenter"",""0"",""1663""
","
","
","""event"",""trial"",""time""
""fullscreenenter"",""0"",""1663""
","
","270.19999999925494","<div class='center'><img src='run_exp/static/images/tutorial/blue.png' height='500'></p></div>","49","","","","",""
"","html-keyboard-response","25","133750","0.0-25.0","""event"",""trial"",""time""
""fullscreenenter"",""0"",""1663""
","
","
","""event"",""trial"",""time""
""fullscreenenter"",""0"",""1663""
","
","null","<div class='center'><p><img src='run_exp/static/images/tutorial/blue_no_win.png' height='500'></p></div>","null","","","","",""
"","html-keyboard-response","26","134101","0.0-26.0","""event"",""trial"",""time""
""fullscreenenter"",""0"",""1663""
","
","
","""event"",""trial"",""time""
""fullscreenenter"",""0"",""1663""
","
","348.90000000037253","<div class='center'><img src='run_exp/static/images/tutorial/blue.png' height='500'></p></div>","49","","","","",""
"","html-keyboard-response","27","135604","0.0-27.0","""event"",""trial"",""time""
""fullscreenenter"",""0"",""1663""
","
","
","""event"",""trial"",""time""
""fullscreenenter"",""0"",""1663""
","
","null","<div class='center'><p><img src='run_exp/static/images/tutorial/blue_win.png' height='500'></p></div>","null","","","","",""
"","html-keyboard-response","28","136148","0.0-28.0","""event"",""trial"",""time""
""fullscreenenter"",""0"",""1663""
","
","
","""event"",""trial"",""time""
""fullscreenenter"",""0"",""1663""
","
","540.5999999996275","<div class='center'><img src='run_exp/static/images/tutorial/blue.png' height='500'></p></div>","49","","","","",""
"","html-keyboard-response","29","137651","0.0-29.0","""event"",""trial"",""time""
""fullscreenenter"",""0"",""1663""
","
","
","""event"",""trial"",""time""
""fullscreenenter"",""0"",""1663""
","
","null","<div class='center'><p><img src='run_exp/static/images/tutorial/blue_win.png' height='500'></p></div>","null","","","","",""
"","instruc6","30","143156","0.0-30.0","""event"",""trial"",""time""
""fullscreenenter"",""0"",""1663""
","
","
","""event"",""trial"",""time""
""fullscreenenter"",""0"",""1663""
","
","null","run_exp/static/audio/clip_6_blue_beard_outcome.m4a","null","","","","","<div class='center'><p> See, he succeeded in robbing the ships most of the time but not every time. </p></div>"
"","html-keyboard-response","31","143795","0.0-31.0","""event"",""trial"",""time""
""fullscreenenter"",""0"",""1663""
","
","
","""event"",""trial"",""time""
""fullscreenenter"",""0"",""1663""
","
","637.8000000007451","<div class='center'><p> See, he succeeded in robbing the ships most of the time but not every time. </p><p><b>[Press the space bar to continue]</b></p></div>","32","","","","",""
"","audio-keyboard-response","32","151566","0.0-32.0","""event"",""trial"",""time""
""fullscreenenter"",""0"",""1663""
","
","
","""event"",""trial"",""time""
""fullscreenenter"",""0"",""1663""
","
","7761","run_exp/static/audio/clip_7_pick_pirate.m4a","49","","","","",""
"","audio-keyboard-response","33","153517","0.0-33.0-0.0","""event"",""trial"",""time""
""fullscreenenter"",""0"",""1663""
","
","
","""event"",""trial"",""time""
""fullscreenenter"",""0"",""1663""
","
","1938.5","run_exp/static/audio/clip_8_chosen_pirate_win.m4a","32","","","","",""
"","audio-keyboard-response","34","154408","0.0-33.0-1.0","""event"",""trial"",""time""
""fullscreenenter"",""0"",""1663""
","
","
","""event"",""trial"",""time""
""fullscreenenter"",""0"",""1663""
","
","882.5","run_exp/static/audio/clip_9_pick_a_pirate_again.m4a","50","","","","",""
"","audio-keyboard-response","35","155532","0.0-34.0-0.0","""event"",""trial"",""time""
""fullscreenenter"",""0"",""1663""
","
","
","""event"",""trial"",""time""
""fullscreenenter"",""0"",""1663""
","
","1107.199999999255","run_exp/static/audio/clip_10_chosen_pirate_loss.m4a","32","","","","",""
"","instruc9","36","161276","0.0-35.0-0.0","""event"",""trial"",""time""
""fullscreenenter"",""0"",""1663""
","
","
","""event"",""trial"",""time""
""fullscreenenter"",""0"",""1663""
","
","null","run_exp/static/audio/clip_11_time_out.m4a","null","","","","","<div class='center'><p>If you don’t make your choice fast enough, you’ll have to wait a few seconds before you can make another one. </p><p><img src='run_exp/static/images/miscellaneous/hurry_up.png' height='500'></p></div>"
"","html-keyboard-response","37","161608","0.0-35.0-1.0","""event"",""trial"",""time""
""fullscreenenter"",""0"",""1663""
""fullscreenexit"",""38"",""191308""
""blur"",""38"",""208350""
""focus"",""38"",""208351""
""blur"",""38"",""221443""
""focus"",""38"",""226311""
""blur"",""38"",""290269""
""focus"",""38"",""290274""
","""event"",""trial"",""time""
""blur"",""38"",""208350""
""blur"",""38"",""221443""
""blur"",""38"",""290269""
","""event"",""trial"",""time""
""focus"",""38"",""208351""
""focus"",""38"",""226311""
""focus"",""38"",""290274""
","""event"",""trial"",""time""
""fullscreenenter"",""0"",""1663""
","""event"",""trial"",""time""
""fullscreenexit"",""38"",""191308""
","329.40000000037253","<div class='center'><p>If you don’t make your choice fast enough, you’ll have to wait a few seconds before you can make another one. </p><p><img src='run_exp/static/images/miscellaneous/hurry_up.png' height='500'></p><p><b>[Press the space bar to continue]</b></p></div>","32","","","","",""
