"success","trial_type","trial_index","time_elapsed","internal_node_id","interactions","blur_events","focus_events","fullscreenenter_events","fullscreenexit_events"
"true","fullscreen","0","5824","0.0-0.0","""event"",""trial"",""time""
""fullscreenenter"",""0"",""4910""
","
","
","""event"",""trial"",""time""
""fullscreenenter"",""0"",""4910""
","
"
"","pavlovia","1","5827","0.0-1.0","""event"",""trial"",""time""
""fullscreenenter"",""0"",""4910""
""fullscreenexit"",""2"",""29914""
""blur"",""2"",""29928""
""focus"",""2"",""29962""
""blur"",""2"",""45287""
","""event"",""trial"",""time""
""blur"",""2"",""29928""
""blur"",""2"",""45287""
","""event"",""trial"",""time""
""focus"",""2"",""29962""
","""event"",""trial"",""time""
""fullscreenenter"",""0"",""4910""
","""event"",""trial"",""time""
""fullscreenexit"",""2"",""29914""
"
