"success","trial_type","trial_index","time_elapsed","internal_node_id","rt","stimulus","key_press","subject_id","response","choice_outcomes","context_n","context_img_id","trial_n","probe_img_id","pR_red","pR_white","pR_black","outcome","is_valid","image_to_show","probed_trial","probed_context","correct","context_id"
"true","fullscreen","0","12574","0.0-0.0","","","","","","","","","","","","","","","","","","","",""
"","pavlovia","1","12582","0.0-1.0","","","","","","","","","","","","","","","","","","","",""
"","html-keyboard-response","2","30039","0.0-2.0","17454.799999952316","<div class='center'><p>Welcome! This experiment will last ~1 hour. In this experiment, you are the head captain of a pirate ship traveling around the world to different places. You will complete several different tasks during this experiment. Here is an overview of these tasks:</p><br><p>1. Tutorial and quiz</p><p>2. Pick a pirate game in 6 different places</p><p>3. Pick a pirate game and memory game</p><p>4. Final questions and payment</p><br><p>If you complete the entire experiment, you will receive $15 and a possible bonus payment.</p><p><b>[Press the space bar to begin the tutorial]</b></p></div>","32","6108151937923a2afd803927","","","","","","","","","","","","","","","",""
"","html-keyboard-response","3","42749","0.0-3.0","12707.599999904633","<div class='center'><p>You are the head captain of a pirate ship.</p><p> Your pirates rob other ships as they leave the marketplace port.</p> These ships have just sold all their goods at the marketplace, so they have lots and lots of gold on them.</p><p><img src='run_exp/static/images/ship_center.png' height='400'></p><p><b>[Press the space bar to continue]</b></p></div>","32","","","","","","","","","","","","","","","","",""
"","html-keyboard-response","4","64016","0.0-4.0","21266.299999952316","<div class='center'><p>As the head captain, you do not have to rob any ships yourself.</p><p>You get to choose which pirate you want to rob the next ship. </p><p>If they are successful at robbing the ship, then you will get gold coins.</p><p> If they are not successful, then you will get no gold coins.</p><p> The more coins you collect, the more bonus money you will win. So, choose your pirate wisely.</p><p><img src='run_exp/static/images/goal.png' height='400'></p><p><b>[Press the space bar to continue]</b></p><div>","32","","","","","","","","","","","","","","","","",""
"","html-keyboard-response","5","80040","0.0-5.0","16022.300000190735","<div class='center'><p>Even the most skilled pirate will not be able to rob EVERY ship.</p><p> Some ships will have very strong defenses against attacks.</p><p> For example, blue beard, here,  is very good at robbing ships.</p><p> You can press the <b>‘1’</b> button on the keyboard to choose him.</p><p> Try choosing him 10 times to see how often he is successful at robbing ships. </p><p><img src='run_exp/static/images/blue.png' height='500'></p></div>","49","","","","","","","","","","","","","","","","",""
"","html-keyboard-response","6","81553","0.0-6.0","null","<br><br><br><br><p><img src='run_exp/static/images/blue_win.png' height='500'></p>","null","","","","","","","","","","","","","","","","",""
"","html-keyboard-response","7","83541","0.0-7.0","1986.2999999523163","<br><br><br><br><p><img src='run_exp/static/images/blue.png' height='500'></p>","49","","","","","","","","","","","","","","","","",""
"","html-keyboard-response","8","85055","0.0-8.0","null","<br><br><br><br><p><img src='run_exp/static/images/blue_win.png' height='500'></p>","null","","","","","","","","","","","","","","","","",""
"","html-keyboard-response","9","85854","0.0-9.0","797.2000000476837","<br><br><br><br><p><img src='run_exp/static/images/blue.png' height='500'></p>","49","","","","","","","","","","","","","","","","",""
"","html-keyboard-response","10","87371","0.0-10.0","null","<br><br><br><br><p><img src='run_exp/static/images/blue_win.png' height='500'></p>","null","","","","","","","","","","","","","","","","",""
"","html-keyboard-response","11","87923","0.0-11.0","551","<br><br><br><br><p><img src='run_exp/static/images/blue.png' height='500'></p>","49","","","","","","","","","","","","","","","","",""
"","html-keyboard-response","12","89431","0.0-12.0","null","<br><br><br><br><p><img src='run_exp/static/images/blue_no_win.png' height='500'></p>","null","","","","","","","","","","","","","","","","",""
"","html-keyboard-response","13","90100","0.0-13.0","667.8000001907349","<br><br><br><br><p><img src='run_exp/static/images/blue.png' height='500'></p>","49","","","","","","","","","","","","","","","","",""
"","html-keyboard-response","14","91603","0.0-14.0","null","<br><br><br><br><p><img src='run_exp/static/images/blue_win.png' height='500'></p>","null","","","","","","","","","","","","","","","","",""
"","html-keyboard-response","15","91906","0.0-15.0","301.2999999523163","<br><br><br><br><p><img src='run_exp/static/images/blue.png' height='500'></p>","49","","","","","","","","","","","","","","","","",""
"","html-keyboard-response","16","93414","0.0-16.0","null","<br><br><br><br><p><img src='run_exp/static/images/blue_win.png' height='500'></p>","null","","","","","","","","","","","","","","","","",""
"","html-keyboard-response","17","93669","0.0-17.0","253.30000019073486","<br><br><br><br><p><img src='run_exp/static/images/blue.png' height='500'></p>","49","","","","","","","","","","","","","","","","",""
"","html-keyboard-response","18","95182","0.0-18.0","null","<br><br><br><br><p><img src='run_exp/static/images/blue_win.png' height='500'></p>","null","","","","","","","","","","","","","","","","",""
"","html-keyboard-response","19","95437","0.0-19.0","253.79999995231628","<br><br><br><br><p><img src='run_exp/static/images/blue.png' height='500'></p>","49","","","","","","","","","","","","","","","","",""
"","html-keyboard-response","20","96951","0.0-20.0","null","<br><br><br><br><p><img src='run_exp/static/images/blue_no_win.png' height='500'></p>","null","","","","","","","","","","","","","","","","",""
"","html-keyboard-response","21","97244","0.0-21.0","292.2000000476837","<br><br><br><br><p><img src='run_exp/static/images/blue.png' height='500'></p>","49","","","","","","","","","","","","","","","","",""
"","html-keyboard-response","22","98758","0.0-22.0","null","<br><br><br><br><p><img src='run_exp/static/images/blue_win.png' height='500'></p>","null","","","","","","","","","","","","","","","","",""
"","html-keyboard-response","23","99005","0.0-23.0","245.79999995231628","<br><br><br><br><p><img src='run_exp/static/images/blue.png' height='500'></p>","49","","","","","","","","","","","","","","","","",""
"","html-keyboard-response","24","100510","0.0-24.0","null","<br><br><br><br><p><img src='run_exp/static/images/blue_win.png' height='500'></p>","null","","","","","","","","","","","","","","","","",""
"","html-keyboard-response","25","102575","0.0-25.0","2063.7999999523163","<div class='center'><p> See, he was successful at robbing the ships most of the time but not every time. </p><p><b>[Press the space bar to continue]</b></p></div>","32","","","","","","","","","","","","","","","","",""
"","html-keyboard-response","26","112413","0.0-26.0","9836.399999856949","<div class='center'><p>In the game, you will get to choose which of three pirates you want to rob the next ship. <p>Press the <b>‘1’</b> button on your keyboard to pick the pirate with the red beard.</p><p> Press <b>‘2’</b> to pick the pirate with the white beard.</p><p> Press <b>‘3’</b> to pick the pirate with the black beard.</p><p>Try picking a pirate now!</p><p><img src='run_exp/static/images/all_pirates.png' height='500'></p></div>","49","","","","","","","","","","","","","","","","",""
"","html-keyboard-response","27","114253","0.0-27.0-0.0","1836.2000000476837","<div class='center'><p>This pirate was successful at robbing the ship!</p><p><img src='run_exp/static/images/red_win.png' height='500'></p><p><b>[Press the space bar to continue]</b></p></div>","32","","","","","","","","","","","","","","","","",""
"","html-keyboard-response","28","114935","0.0-27.0-1.0","681.2000000476837","<div class='center'><p>Now try choosing another</p><p><img src='run_exp/static/images/all_pirates.png' height='500'></p></div>","50","","","","","","","","","","","","","","","","",""
"","html-keyboard-response","29","115976","0.0-28.0-0.0","1038.7999999523163","<div class='center'><p>This pirate was not successful at robbing the ship!</p><p><img src='run_exp/static/images/white_no_win.png' height='500'></p><p><b>[Press the space bar to continue]</b></p></div>","32","","","","","","","","","","","","","","","","",""
"","html-keyboard-response","30","123054","0.0-29.0-0.0","7076.900000095367","<div class='center'><p>You’ll stop at these 6 places on your journey.</p><p><img src='run_exp/static/images/all_contexts.png' height='500'></p><p><b>[Press the space bar to continue]</b></p></div>","32","","","","","","","","","","","","","","","","",""
"","html-keyboard-response","31","133069","0.0-29.0-1.0","10014","<div class='center'><p>How good a pirate is at robbing ships will depend on the current place.</p><p> Some pirates will have been to the place before, and will have more experience robbing ships there.</p><p>So, they will be more successful at stealing gold and bringing it back to you.</p><p><b>[Press the space bar to continue]</b></p></div>","32","","","","","","","","","","","","","","","","",""
"","html-keyboard-response","32","151206","0.0-29.0-2.0","18136.400000095367","<div class='center'><p>How successful a pirate is at robbing ships can also change in a place.<p> Ships may hear about the pirates coming and will improve their defenses. This may make it more difficult to rob them.</p><p> Ships may also grow lazy and lower their defenses. This may make it easier to rob them.</p><br><p>Things are always changing on the high seas! So, try your best to pay attention!</p><p><img src='run_exp/static/images/contingency.png' height='500'></p><p><b>[Press the space bar to continue]</b></p></div>","32","","","","","","","","","","","","","","","","",""
"","html-keyboard-response","33","181828","0.0-29.0-3.0","30619.700000047684","<div class='center'><p>Once you choose a pirate to rob a ship, you’ll be shown the ship they are robbing.</p><p>The ship will have a picture of the item they sold at the marketplace.</p><p> Try your best to remember the ship and where you saw the ship.</p><p> You’ll have to remember this for later, and remembering this correctly will help you win more bonus money!</p><p>You can remember the ship by remembering the item they sold at the marketplace</p><p>A helpful strategy is to try to come up with a story of the chosen pirate and ship’s item interacting with the scene.</p><p> For example, a ship might have sold travel mugs and you could imagine red beard walking through the city with a travel mug. </p><p>Or imagine an apple falling from a tree into white beard's hands in the forest.</p><p><img src='run_exp/static/images/example_probe.png' height='500'></p><p><b>[Press the space bar to continue]</b></p></div>","32","","","","","","","","","","","","","","","","",""
"","html-keyboard-response","34","186932","0.0-29.0-4.0","5103.099999904633","<div class='center'><p>If you don’t make your choice fast enough, you’ll have to wait a few seconds before you can make another one. </p><p>You can’t win more gold. You just have to sit and wait.</p><p><img src='run_exp/static/images/hurry_up.png' height='500'></p><p><b>[Press the space bar to continue]</b></p></div>","32","","","","","","","","","","","","","","","","",""
"","html-keyboard-response","35","217358","0.0-29.0-5.0","30425.099999904633","<div class='center'><p>Again, you have two important things to do: </p><b><p> 1. Pick the pirate who you think will be most successful at robbing the next ship.</p></b><b><p> 2. Remember where a pirate robbed a ship.</p> </b><p>Both are important in determining how much bonus money you’ll win.</p><br><p>Let’s try a practice game. The game will start by showing you the pirates. First pick a pirate using the <b> 1, 2, 3 </b> buttons on your keyboard. When you are shown a ship, try to remember the place you’re in by making up a story.</p><p> You only have 3 seconds to pick a pirate, so please make a choice quickly! If you are too slow, you’ll have to wait a bit during the time out.</p><p> Don’t feel rushed, but please do try to make a choice every time.</p><p>How good a pirate is at robbing a ship will change depending on the place they are in and how good the defenses are of the ship.</p> <p>This is just a practice game, so you’re not playing for money. </p><p>You’ll receive a bag which may or may not contain gold coins.</p><p> In the real game, though, you’ll be able to see whether or not you received the gold coins.</p><p> Good luck, remember press <b>'1'</b> to choose red beard, <b>'2'</b> to choose white beard, and <b>'3'</b> to choose black beard</p><p><b>[Press the space bar to begin the practice game]</b></p></div>","32","","","","","","","","","","","","","","","","",""
"","do_trial_prac","36","224751","0.0-29.0-6.0","2870.7999999523163","","","","51","","","","","","","","","","","","","","",""
"","do_trial_prac","37","231336","0.0-29.0-7.0","2064.899999856949","","","","50","","","","","","","","","","","","","","",""
"","do_trial_prac","38","237169","0.0-29.0-8.0","1313.1000001430511","","","","49","","","","","","","","","","","","","","",""
"","do_trial_prac","39","243192","0.0-29.0-9.0","1501.1000001430511","","","","51","","","","","","","","","","","","","","",""
"","do_trial_prac","40","248648","0.0-29.0-10.0","932","","","","50","","","","","","","","","","","","","","",""
"","html-keyboard-response","41","254118","0.0-29.0-11.0","5468.900000095367","<div class='center'><p>Great job on the practice game!</p><p> Now, you will be asked you some true or false questions to make sure you really understand the rules of the game.</p><p> Press <b>'1'</b> on the keyboard for true and press <b>'2'</b> for false.</p><p><b>[Press the space bar to begin the quiz]</b></p></div>","32","","","","","","","","","","","","","","","","",""
"","html-keyboard-response","42","264621","0.0-29.0-12.0","10501.5","<div class='center'><p>You win bonus money by making choices as fast as possible.</p><p>Press 1 for true and press  2 for false.</p></div>","49","","","","","","","","","","","","","","","","",""
"","html-keyboard-response","43","269625","0.0-30.0-0.0","5002.100000143051","<br><br><br><br><p>That’s incorrect! You win bonus money by collecting as many gold coins as possible!</p><p><b>[press the space bar to continue with the quiz]</b></p>","32","","","","","","","","","","","","","","","","",""
"","html-keyboard-response","44","275885","0.0-30.0-1.0","6259.200000047684","<div class='center'><p>You press the <b>‘3’</b> button on the keyboard to choose the red bearded pirate? </p><p>Press 1 for true and press  2 for false.</p></div>","50","","","","","","","","","","","","","","","","",""
"","html-keyboard-response","45","277140","0.0-31.0-0.0","1253.2000000476837","<br><br><br><br><p>That's correct!</p> <p><b>[press the space bar to continue with the quiz]</b></p>","32","","","","","","","","","","","","","","","","",""
"","html-keyboard-response","46","279867","0.0-31.0-1.0","2726.300000190735","<div class='center'><p>A pirate will always be equally successful at robbing ships in each place</p><p>Press 1 for true and press  2 for false.</p></div>","50","","","","","","","","","","","","","","","","",""
"","html-keyboard-response","47","280700","0.0-32.0-0.0","832.2000000476837","<br><br><br><br><p>That's correct!</p> <p><b>[press the space bar to continue with the quiz]</b></p>","32","","","","","","","","","","","","","","","","",""
"","html-keyboard-response","48","284408","0.0-32.0-1.0","3707.100000143051","<div class='center'><p>You should remember the place where a pirate robbed a ship.</p><p>Press 1 for true and press  2 for false.</p></div>","49","","","","","","","","","","","","","","","","",""
"","html-keyboard-response","49","285219","0.0-33.0-0.0","809.0999999046326","<br><br><br><br><p>That's correct!</p> <p><b>[press the space bar to continue with the quiz]</b></p>","32","","","","","","","","","","","","","","","","",""
"","html-keyboard-response","50","290897","0.0-34.0-0.0","5677.300000190735","<br><br><br><br><p>Oops, you missed some questions. Now that you’ve heard the correct answers. Try the quiz again! If you fail the quiz too many times, you won’t be able to do the experiment. </p> <p><br>[press the space bar to repeat the quiz]</br></p>","32","","","","","","","","","","","","","","","","",""
"","html-keyboard-response","51","293415","0.0-34.0-1.0","2517","<div class='center'><p>You win bonus money by making choices as fast as possible.</p><p>Press 1 for true and press  2 for false.</p></div>","50","","","","","","","","","","","","","","","","",""
"","html-keyboard-response","52","294139","0.0-35.0-0.0","722.7000000476837","<br><br><br><br><p>That's correct!</p> <p><b>[press the space bar to continue with the quiz]</b></p>","32","","","","","","","","","","","","","","","","",""
"","html-keyboard-response","53","295959","0.0-35.0-1.0","1819.1000001430511","<div class='center'><p>You press the <b>‘3’</b> button on the keyboard to choose the red bearded pirate? </p><p>Press 1 for true and press  2 for false.</p></div>","50","","","","","","","","","","","","","","","","",""
"","html-keyboard-response","54","296446","0.0-36.0-0.0","485.40000009536743","<br><br><br><br><p>That's correct!</p> <p><b>[press the space bar to continue with the quiz]</b></p>","32","","","","","","","","","","","","","","","","",""
"","html-keyboard-response","55","297896","0.0-36.0-1.0","1449.1999998092651","<div class='center'><p>A pirate will always be equally successful at robbing ships in each place</p><p>Press 1 for true and press  2 for false.</p></div>","50","","","","","","","","","","","","","","","","",""
"","html-keyboard-response","56","298412","0.0-37.0-0.0","515.8999998569489","<br><br><br><br><p>That's correct!</p> <p><b>[press the space bar to continue with the quiz]</b></p>","32","","","","","","","","","","","","","","","","",""
"","html-keyboard-response","57","299533","0.0-37.0-1.0","1119.8000001907349","<div class='center'><p>You should remember the place where a pirate robbed a ship.</p><p>Press 1 for true and press  2 for false.</p></div>","49","","","","","","","","","","","","","","","","",""
"","html-keyboard-response","58","299993","0.0-38.0-0.0","440.30000019073486","<br><br><br><br><p>That's correct!</p> <p><b>[press the space bar to continue with the quiz]</b></p>","32","","","","","","","","","","","","","","","","",""
"","html-keyboard-response","59","301211","0.0-39.0-0.0","1216.5999999046326","<br><br><br><br><p>Good job! You’re now ready to move on to the real game!</p> <p><br>[press the space bar to begin!]</br></p>","32","","","","","","","","","","","","","","","","",""
"","do_welcome","60","302729","0.0-40.0-0.0","null","","","","null","","","","","","","","","","","","","","",""
"","do_trial","61","311266","0.0-41.0-0.0","2922.5","","","","49","1,0,0","0","highway","0","probe-39","1","0.4","0.1","1","","","","","",""
"","do_trial","62","318503","0.0-42.0-0.0","1628.1000001430511","","","","50","1,1,0","0","highway","1","probe-229","1","0.42596565817070814","0.1112086840618606","1","","","","","",""
"","do_trial","63","325051","0.0-43.0-0.0","988.5","","","","51","1,1,0","0","highway","2","probe-22","1","0.4148838832053172","0.18937297862597835","0","","","","","",""
"","do_trial","64","333072","0.0-44.0-0.0","2417.5","","","","49","1,0,0","0","highway","3","probe-188","1","0.4426796751389995","0.13734566455529706","1","","","","","",""
"","do_trial","65","339042","0.0-45.0-0.0","419.09999990463257","","","","50","1,1,0","0","highway","4","probe-06","0.856698056700037","0.4324086591635404","0.08646265550515166","1","","","","","",""
"","do_trial","66","345404","0.0-46.0-0.0","803.2000000476837","","","","51","1,1,0","0","highway","5","probe-77","0.8926718831770577","0.41815034267784285","0.07246680164201565","0","","","","","",""
"","do_trial","67","351790","0.0-47.0-0.0","832.4000000953674","","","","49","1,0,1","0","highway","6","probe-105","0.8217926876964629","0.3629504975239457","0.15700003915772193","1","","","","","",""
"","do_trial","68","357782","0.0-48.0-0.0","432.5","","","","50","0,0,0","0","highway","7","probe-126","0.8041592722406999","0.4000552203371255","0.13919202009909573","0","","","","","",""
"","do_trial","69","363704","0.0-49.0-0.0","316.09999990463257","","","","49","1,1,0","0","highway","8","probe-38","0.8003198165974496","0.3555424164479149","0.19726943806313707","1","","","","","",""
"","do_trial","70","370014","0.0-50.0-0.0","743.7999999523163","","","","49","1,0,0","0","highway","9","probe-24","0.9097996025554853","0.42398847939747397","0.17596392359354768","1","","","","","",""
"","do_trial","71","376476","0.0-51.0-0.0","857.9000000953674","","","","49","1,0,0","0","highway","10","probe-143","0.6999697830556058","0.5893667912545917","0.054274400745884396","1","","","","","",""
"","do_trial","72","382354","0.0-52.0-0.0","326.09999990463257","","","","49","1,1,0","0","highway","11","probe-05","0.6132476349376541","0.7889653374689569","0.19044853290329447","1","","","","","",""
"","do_trial","73","388828","0.0-53.0-0.0","900","","","","49","0,1,0","0","highway","12","probe-127","0.40200959697850247","0.8651275037179679","0.18867262956241848","0","","","","","",""
"","do_trial","74","395666","0.0-54.0-0.0","1275.2999999523163","","","","50","0,1,0","0","highway","13","probe-10","0.2523808244264523","0.9383682573777056","0.12806651759108972","1","","","","","",""
"","do_trial","75","402369","0.0-55.0-0.0","1151.1000001430511","","","","49","0,0,0","0","highway","14","probe-79","0.36004428246327924","0.8210118471819167","0.08159055809099597","0","","","","","",""
"","do_trial","76","408284","0.0-56.0-0.0","351.2999999523163","","","","51","0,0,0","0","highway","15","probe-194","0.3429105292365322","0.76301678593915","0.13566281347985498","0","","","","","",""
"","do_trial","77","414327","0.0-57.0-0.0","485","","","","50","1,1,0","0","highway","16","probe-100","0.37153834211919146","0.7978791267133464","0.06214250655182104","1","","","","","",""
"","do_trial","78","420629","0.0-58.0-0.0","699.3000001907349","","","","49","1,1,0","0","highway","17","probe-227","0.42124421275182417","0.7248323183699888","0.11596131612091005","1","","","","","",""
"","do_trial","79","427160","0.0-59.0-0.0","924.5","","","","50","1,0,0","0","highway","18","probe-47","0.40585847555322424","0.5709233350057986","0.1424676596856362","0","","","","","",""
"","do_trial","80","433459","0.0-60.0-0.0","688.9000000953674","","","","49","1,0,1","0","highway","19","probe-33","0.4529982974651911","0.614557132107011","0.17183874942367805","1","","","","","",""
"","do_trial","81","440322","0.0-61.0-0.0","1251.2999999523163","","","","49","0,0,1","0","highway","20","probe-72","0.4817179601521901","0.6336037702016546","0.21461803720963843","0","","","","","",""
"","do_trial","82","446285","0.0-62.0-0.0","403.5","","","","50","0,1,0","0","highway","21","probe-222","0.24875309369048676","0.6283953200374307","0.18915729288478422","1","","","","","",""
"","do_trial","83","452662","0.0-63.0-0.0","819.1000001430511","","","","49","1,1,0","0","highway","22","probe-163","0.34003793330503135","0.7252159509287748","0.05528512779530944","1","","","","","",""
"","do_trial","84","458866","0.0-64.0-0.0","635.4000000953674","","","","50","0,1,0","0","highway","23","probe-82","0.4274799352276408","0.7513905117868173","0.05845171204963184","1","","","","","",""
"","do_trial","85","465123","0.0-65.0-0.0","648.7999999523163","","","","49","0,0,0","0","highway","24","probe-148","0.2536402332469515","0.7756383844121209","0.06463663818428474","0","","","","","",""
"","do_trial","86","471222","0.0-66.0-0.0","488.5","","","","50","1,1,0","0","highway","25","probe-224","0.2607523650787151","0.8176367204608731","0.07607429533090902","1","","","","","",""
"","do_trial","87","477598","0.0-67.0-0.0","810","","","","49","0,1,0","0","highway","26","probe-146","0.17621581898419347","0.7768182724818644","0.09662659993939957","0","","","","","",""
"","do_trial","88","483822","0.0-68.0-0.0","612.7999999523163","","","","50","0,1,0","0","highway","27","probe-26","0.1717037223919458","0.9299744531280216","0.1319553802661176","1","","","","","",""
"","do_trial","89","490112","0.0-69.0-0.0","734.7999999523163","","","","51","0,0,0","0","highway","28","probe-14","0.3660100475287784","0.7376918591717783","0.08234927541552513","0","","","","","",""
"","do_trial","90","496213","0.0-70.0-0.0","491.40000009536743","","","","50","0,0,0","0","highway","29","probe-109","0.44843932966259586","0.7128367697744864","0.09584480921217894","0","","","","","",""
"","do_trial","91","502112","0.0-71.0-0.0","339.2000000476837","","","","49","0,1,0","0","highway","30","probe-175","0.3714101000213856","0.7436560587496339","0.17244555958434973","0","","","","","",""
"","do_trial","92","508208","0.0-72.0-0.0","498.5","","","","50","1,1,0","0","highway","31","probe-123","0.3941955747385677","0.7959383065820856","0.09949179326714783","1","","","","","",""
"","do_trial","93","514126","0.0-73.0-0.0","367.89999985694885","","","","49","1,1,0","0","highway","32","probe-31","0.401094878043037","0.7206381107576156","0.17783755546510427","1","","","","","",""
"","do_trial","94","520287","0.0-74.0-0.0","593.5999999046326","","","","50","0,1,1","0","highway","33","probe-155","0.3654231953489067","0.8068517255802422","0.301531101816699","1","","","","","",""
"","do_trial","95","526432","0.0-75.0-0.0","592.9000000953674","","","","49","0,0,0","0","highway","34","probe-215","0.384550810170037","0.8393257443177192","0.22393452959985324","0","","","","","",""
"","do_trial","96","532348","0.0-76.0-0.0","354.2000000476837","","","","50","0,1,0","0","highway","35","probe-23","0.32176758851188497","0.9004406808819597","0.1892317504622972","1","","","","","",""
"","do_trial","97","538357","0.0-77.0-0.0","446.89999985694885","","","","49","0,1,0","0","highway","36","probe-211","0.4359395707118833","0.7745352977715015","0.13711075104052575","0","","","","","",""
"","do_trial","98","544943","0.0-78.0-0.0","1020.8999998569489","","","","50","0,1,0","0","highway","37","probe-68","0.32696550393779256","0.841376094263582","0.06401571588828599","1","","","","","",""
"","do_trial","99","551011","0.0-79.0-0.0","467.2999999523163","","","","50","0,1,0","0","highway","38","probe-50","0.2218933570715479","0.8461615967938408","0.06340808388552797","1","","","","","",""
"","do_trial","100","556900","0.0-80.0-0.0","335","","","","49","1,1,0","0","highway","39","probe-94","0.2886405740835622","0.9017443758078655","0.07761212374645662","1","","","","","",""
"","do_bye","101","558418","0.0-81.0-0.0","null","","","","null","","","","","","","","","","","","","","",""
"","do_travel","102","564423","0.0-82.0-0.0","null","","","","null","","","","","","","","","","","","","","",""
"","do_welcome","103","565937","0.0-82.0-1.0","null","","","","null","","","","","","","","","","","","","","",""
"","do_trial","104","572099","0.0-83.0-0.0","null","","","","null","0,1,1","1","city","40","probe-144","0.44197759673129355","1","0.13059507646274907","","","","","","",""
"","do_trial","105","578224","0.0-84.0-0.0","569.7999999523163","","","","51","0,1,0","1","city","41","probe-52","0.6257016750290966","1","0.1204871453965257","0","","","","","",""
"","do_trial","106","584056","0.0-85.0-0.0","280.19999980926514","","","","50","0,1,0","1","city","42","probe-174","0.668798465998484","1","0.1451980151880079","1","","","","","",""
"","do_trial","107","590115","0.0-86.0-0.0","461","","","","49","0,1,0","1","city","43","probe-113","0.4768289067795003","1","0.21447036433501104","0","","","","","",""
"","do_trial","108","596033","0.0-87.0-0.0","340.09999990463257","","","","51","0,0,0","1","city","44","probe-107","0.40322348541712444","0.8372177692902685","0.18962045324259905","0","","","","","",""
"","do_trial","109","601872","0.0-88.0-0.0","282.7999999523163","","","","50","0,1,0","1","city","45","probe-111","0.408653436752182","0.5740406324027191","0.1833827795572671","1","","","","","",""
"","do_trial","110","607733","0.0-89.0-0.0","300.40000009536743","","","","49","0,1,0","1","city","46","probe-17","0.45332087872284926","0.7257644066555549","0.260523903116137","0","","","","","",""
"","do_trial","111","613728","0.0-90.0-0.0","441.09999990463257","","","","50","0,0,0","1","city","47","probe-118","0.3089317976191103","0.794073753077128","0.05360005638409916","0","","","","","",""
"","do_trial","112","619684","0.0-91.0-0.0","353","","","","50","0,1,0","1","city","48","probe-141","0.426487009883165","0.9193005827786314","0.15157596241653365","1","","","","","",""
"","do_trial","113","625728","0.0-92.0-0.0","439.39999985694885","","","","50","0,1,0","1","city","49","probe-162","0.4941490460827408","0.9450407561755985","0.08998854492161826","1","","","","","",""
"","do_trial","114","631767","0.0-93.0-0.0","427.09999990463257","","","","50","1,0,1","1","city","50","probe-186","0.6122367880810373","0.5236892398295799","0.2526974821856783","0","","","","","",""
"","do_trial","115","637762","0.0-94.0-0.0","378.60000014305115","","","","49","1,0,0","1","city","51","probe-177","0.8150464726379935","0.37523295560765796","0.32639353722883985","1","","","","","",""
"","do_trial","116","644515","0.0-95.0-0.0","1148.2999999523163","","","","49","1,0,0","1","city","52","probe-182","0.8750728445790555","0.20445904438825444","0.30759816009089663","1","","","","","",""
"","do_trial","117","651574","0.0-96.0-0.0","1463.2000000476837","","","","51","1,0,1","1","city","53","probe-71","0.8032123214114079","0.11215994204576146","0.41120202238959425","1","","","","","",""
"","do_trial","118","657651","0.0-97.0-0.0","476.90000009536743","","","","49","1,1,1","1","city","54","probe-168","0.9023313485009118","0.16208162027648784","0.43312931172772673","1","","","","","",""
"","do_trial","119","664010","0.0-98.0-0.0","759.5999999046326","","","","50","0,0,0","1","city","55","probe-219","0.7845070734821308","0.11354614935642986","0.4753862328468017","0","","","","","",""
"","do_trial","120","670217","0.0-99.0-0.0","594.5","","","","51","1,1,0","1","city","56","probe-133","0.8586181192310897","0.08924652270646384","0.5230706548820883","0","","","","","",""
"","do_trial","121","676277","0.0-100.0-0.0","439.5","","","","50","1,0,1","1","city","57","probe-89","0.7779152117845918","0.07254417000543371","0.5054778734697266","0","","","","","",""
"","do_trial","122","682185","0.0-101.0-0.0","303.7999999523163","","","","49","1,0,0","1","city","58","probe-30","0.7193910770778014","0.053168719135443174","0.6048362708553564","1","","","","","",""
"","do_trial","123","688594","0.0-102.0-0.0","799.7999999523163","","","","49","1,0,1","1","city","59","probe-12","0.691561666641293","0.06598044141313836","0.6418204289958908","1","","","","","",""
"","do_trial","124","696633","0.0-103.0-0.0","2443.199999809265","","","","51","1,0,0","1","city","60","probe-209","0.7090180179509927","0.0636003307730367","0.6141644933781544","0","","","","","",""
"","do_trial","125","703088","0.0-104.0-0.0","845.2000000476837","","","","50","1,0,0","1","city","61","probe-134","0.7299208299488489","0.10163463984334771","0.5891156582854046","0","","","","","",""
"","do_trial","126","709137","0.0-105.0-0.0","497.09999990463257","","","","49","1,0,0","1","city","62","probe-151","0.753148391900627","0.21622926499187145","0.5288133324705123","1","","","","","",""
"","do_trial","127","715790","0.0-106.0-0.0","1048.3000001907349","","","","49","1,0,0","1","city","63","probe-19","0.8744419344180255","0.058017215492070735","0.495010889709525","1","","","","","",""
"","do_trial","128","723197","0.0-107.0-0.0","1796.7000000476837","","","","49","1,0,0","1","city","64","probe-191","0.7795916927401774","0.11305112120845927","0.23380790526330383","1","","","","","",""
"","do_trial","129","729756","0.0-108.0-0.0","992.5","","","","49","1,0,1","1","city","65","probe-07","0.8427376308874253","0.08939676110620463","0.35038770209194975","1","","","","","",""
"","do_trial","130","735833","0.0-109.0-0.0","466.40000009536743","","","","49","0,0,0","1","city","66","probe-57","0.8166306176350397","0.11402207353253402","0.42714477210272295","0","","","","","",""
"","do_trial","131","742239","0.0-110.0-0.0","793.2999999523163","","","","51","0,0,1","1","city","67","probe-11","0.658863825665717","0.1747366126744835","0.49036770698537097","1","","","","","",""
"","do_trial","132","748438","0.0-111.0-0.0","587.1000001430511","","","","50","1,0,0","1","city","68","probe-205","0.6869887612001542","0.14268897079116805","0.40990565897426756","0","","","","","",""
"","do_trial","133","755224","0.0-112.0-0.0","1174","","","","49","1,0,1","1","city","69","probe-37","0.7120647229760516","0.18829860181626856","0.2805396941074604","1","","","","","",""
"","do_trial","134","761274","0.0-113.0-0.0","498","","","","49","0,0,0","1","city","70","probe-01","0.6476983442887589","0.1539303569057976","0.2525056315110727","0","","","","","",""
"","do_trial","135","767612","0.0-114.0-0.0","781.1000001430511","","","","51","1,0,0","1","city","71","probe-233","0.7185490227304245","0.13517391424679095","0.24981892811648615","0","","","","","",""
"","do_trial","136","773594","0.0-115.0-0.0","369.09999990463257","","","","49","1,0,0","1","city","72","probe-114","0.8876038516972297","0.13044715622910552","0.4043277313683673","1","","","","","",""
"","do_trial","137","779796","0.0-116.0-0.0","600.0999999046326","","","","49","1,0,0","1","city","73","probe-51","0.8870868462279735","0.13761399630495288","0.41463550082789197","1","","","","","",""
"","do_trial","138","786384","0.0-117.0-0.0","977.5999999046326","","","","49","1,0,0","1","city","74","probe-166","0.687510112378074","0.20982369904048093","0.47166110892074264","1","","","","","",""
"","do_trial","139","793033","0.0-118.0-0.0","1036.6000001430511","","","","49","1,0,1","1","city","75","probe-232","0.7049073670567013","0.207812536454758","0.48149924414434625","1","","","","","",""
"","do_trial","140","800044","0.0-119.0-0.0","1402.0999999046326","","","","49","1,0,1","1","city","76","probe-101","0.8235771079234877","0.08133924502978586","0.47981111203191085","1","","","","","",""
"","do_trial","141","806786","0.0-120.0-0.0","1188.5","","","","49","1,0,0","1","city","77","probe-171","0.8495794135675351","0.2621435963419521","0.43061818715894623","1","","","","","",""
"","do_trial","142","812872","0.0-121.0-0.0","471.2000000476837","","","","49","0,0,1","1","city","78","probe-198","0.8351701575761163","0.28613908658392456","0.42080488871818783","0","","","","","",""
"","do_trial","143","819729","0.0-122.0-0.0","1263","","","","50","1,0,0","1","city","79","probe-223","0.8261777847856316","0.22555412573491354","0.25540537858917395","0","","","","","",""
"","do_bye","144","821241","0.0-123.0-0.0","null","","","","null","","","","","","","","","","","","","","",""
"","do_travel","145","827247","0.0-124.0-0.0","null","","","","null","","","","","","","","","","","","","","",""
"","do_welcome","146","828762","0.0-124.0-1.0","null","","","","null","","","","","","","","","","","","","","",""
"","do_trial","147","835560","0.0-125.0-0.0","1187.2000000476837","","","","49","1,0,0","2","coast","80","probe-201","1","0.3219139128151497","0.39379638391046917","1","","","","","",""
"","do_trial","148","841519","0.0-126.0-0.0","396.30000019073486","","","","50","1,1,0","2","coast","81","probe-203","1","0.35280971524554816","0.35504602840339095","1","","","","","",""
"","do_trial","149","847426","0.0-127.0-0.0","308.39999985694885","","","","51","1,1,0","2","coast","82","probe-139","1","0.42055068728422923","0.2990743511737863","0","","","","","",""
"","do_trial","150","853501","0.0-128.0-0.0","505.90000009536743","","","","49","1,0,0","2","coast","83","probe-90","1","0.338537259502641","0.39121521462407965","1","","","","","",""
"","do_trial","151","859531","0.0-129.0-0.0","422","","","","50","1,1,0","2","coast","84","probe-154","0.7973513762349633","0.1337613528941001","0.443624856069891","1","","","","","",""
"","do_trial","152","865532","0.0-130.0-0.0","439.2999999523163","","","","51","1,0,1","2","coast","85","probe-91","0.7716288629032687","0.16062782557856692","0.583685203623517","1","","","","","",""
"","do_trial","153","871532","0.0-131.0-0.0","387.2000000476837","","","","49","0,0,0","2","coast","86","probe-210","0.7798122637369397","0.09035775826462975","0.5526698976377331","0","","","","","",""
"","do_trial","154","877389","0.0-132.0-0.0","291","","","","50","0,0,0","2","coast","87","probe-140","0.6178316067163526","0.29839327688826633","0.5904675884017916","0","","","","","",""
"","do_trial","155","883291","0.0-133.0-0.0","316.2000000476837","","","","51","0,0,0","2","coast","88","probe-152","0.49769140875575346","0.18477168508584452","0.5687438774494729","0","","","","","",""
"","do_trial","156","889204","0.0-134.0-0.0","313.7000000476837","","","","50","0,0,1","2","coast","89","probe-09","0.5800947894483973","0.08752601198751717","0.587233743320949","0","","","","","",""
"","do_trial","157","895141","0.0-135.0-0.0","333.09999990463257","","","","49","0,0,1","2","coast","90","probe-92","0.485000143118746","0.06688331832041806","0.6179625839516382","0","","","","","",""
"","do_trial","158","901090","0.0-136.0-0.0","342.39999985694885","","","","51","0,1,1","2","coast","91","probe-65","0.45232288137725973","0.22167815486677775","0.7429806535809199","1","","","","","",""
"","do_trial","159","906966","0.0-137.0-0.0","319.2999999523163","","","","51","0,0,1","2","coast","92","probe-192","0.3190745443414054","0.28474344990446043","0.7704035630628593","1","","","","","",""
"","do_trial","160","912906","0.0-138.0-0.0","370.2000000476837","","","","51","0,1,1","2","coast","93","probe-58","0.36494539613781807","0.2733797112002772","0.6506054463313283","1","","","","","",""
"","do_trial","161","918994","0.0-139.0-0.0","479.59999990463257","","","","51","0,0,1","2","coast","94","probe-67","0.44426137651154823","0.14151161740134488","0.6932531601235006","1","","","","","",""
"","do_trial","162","925412","0.0-140.0-0.0","802.5999999046326","","","","51","0,0,1","2","coast","95","probe-116","0.5301080547384698","0.15345534133214814","0.756622542858046","1","","","","","",""
"","do_trial","163","931401","0.0-141.0-0.0","426.59999990463257","","","","51","0,0,1","2","coast","96","probe-103","0.48294418554449103","0.05664894810500267","0.7174879449870473","1","","","","","",""
"","do_trial","164","937798","0.0-142.0-0.0","833","","","","51","0,0,1","2","coast","97","probe-96","0.42019208420779647","0.07174001506449151","0.7931474469708973","1","","","","","",""
"","do_trial","165","943816","0.0-143.0-0.0","406.89999985694885","","","","51","0,0,1","2","coast","98","probe-136","0.5120675010829414","0.20828515838811312","0.7872387605935225","1","","","","","",""
"","do_trial","166","950513","0.0-144.0-0.0","1087.5","","","","51","0,0,1","2","coast","99","probe-34","0.31903369231254247","0.17749721432167018","0.7018713913687593","1","","","","","",""
"","do_trial","167","957473","0.0-145.0-0.0","1341.3000001907349","","","","51","0,0,0","2","coast","100","probe-217","0.3472295918030568","0.13577989294846923","0.7911383840265133","0","","","","","",""
"","do_trial","168","963416","0.0-146.0-0.0","335.59999990463257","","","","49","0,0,1","2","coast","101","probe-120","0.3265768838616458","0.1300133473490861","0.823011720420228","0","","","","","",""
"","do_trial","169","969292","0.0-147.0-0.0","325.7999999523163","","","","50","1,1,1","2","coast","102","probe-190","0.44463863727875685","0.20779703981456166","0.8957225356453381","1","","","","","",""
"","do_trial","170","975408","0.0-148.0-0.0","null","","","","null","1,0,1","2","coast","103","probe-18","0.3887737096874276","0.14521269240829993","0.8834254645682184","","","","","","",""
"","do_trial","171","981424","0.0-149.0-0.0","409.60000014305115","","","","51","1,0,1","2","coast","104","probe-173","0.48496058850560814","0.14486882236633758","0.8744726275891364","1","","","","","",""
"","do_trial","172","987401","0.0-150.0-0.0","425.39999985694885","","","","49","1,0,1","2","coast","105","probe-208","0.46960574691584356","0.16255868120429842","0.8350150065554341","1","","","","","",""
"","do_trial","173","994031","0.0-151.0-0.0","1019.6000001430511","","","","51","1,0,0","2","coast","106","probe-88","0.41043234272156803","0.18871381585692384","0.7877821680090414","0","","","","","",""
"","do_trial","174","999918","0.0-152.0-0.0","278.09999990463257","","","","50","0,1,1","2","coast","107","probe-53","0.3568419685018297","0.2879331911830492","0.7004926786283339","1","","","","","",""
"","do_trial","175","1006201","0.0-153.0-0.0","680.0999999046326","","","","49","1,0,1","2","coast","108","probe-13","0.38843216839152533","0.31720114080202466","0.6750647885746268","1","","","","","",""
"","do_trial","176","1012100","0.0-154.0-0.0","294.2000000476837","","","","51","0,0,1","2","coast","109","probe-181","0.36987091931335775","0.18113889950335493","0.7625449121631965","1","","","","","",""
"","do_trial","177","1017980","0.0-155.0-0.0","274","","","","49","1,0,1","2","coast","110","probe-207","0.45603929290985","0.05204985845419406","0.7410725825936705","1","","","","","",""
"","do_trial","178","1024981","0.0-156.0-0.0","1439.7000000476837","","","","50","0,0,0","2","coast","111","probe-87","0.4568093281630102","0.11653454394318413","0.7872320702526995","0","","","","","",""
"","do_trial","179","1031046","0.0-157.0-0.0","null","","","","null","0,1,1","2","coast","112","probe-221","0.49313295371629984","0.19058375747062645","0.7549312896996391","","","","","","",""
"","do_trial","180","1037145","0.0-158.0-0.0","493.90000009536743","","","","51","0,0,1","2","coast","113","probe-117","0.4507665697147553","0.1563206309734506","0.8432495704359496","1","","","","","",""
"","do_trial","181","1044687","0.0-159.0-0.0","1997.1000001430511","","","","50","0,0,0","2","coast","114","probe-122","0.4792577200215377","0.20168215301276063","0.816542250933118","0","","","","","",""
"","do_trial","182","1050575","0.0-160.0-0.0","267.40000009536743","","","","51","1,0,1","2","coast","115","probe-42","0.43125878159504866","0.14169549465329678","0.7460557209357184","1","","","","","",""
"","do_trial","183","1057260","0.0-161.0-0.0","1069.2999999523163","","","","50","0,0,1","2","coast","116","probe-239","0.42183804073611286","0.12586077722034003","0.6322305192521421","0","","","","","",""
"","do_trial","184","1063061","0.0-162.0-0.0","235.70000004768372","","","","49","0,0,0","2","coast","117","probe-236","0.4361090430971307","0.1025808420279638","0.7882839874052331","0","","","","","",""
"","do_trial","185","1069805","0.0-163.0-0.0","1133","","","","51","0,0,1","2","coast","118","probe-08","0.5460760931217667","0.06545150434798443","0.7906420712244182","1","","","","","",""
"","do_trial","186","1075696","0.0-164.0-0.0","297.60000014305115","","","","51","0,0,1","2","coast","119","probe-43","0.44004183995535884","0.07250159722172896","0.8268852408965713","1","","","","","",""
"","do_bye","187","1077208","0.0-165.0-0.0","null","","","","null","","","","","","","","","","","","","","",""
"","do_travel","188","1083223","0.0-166.0-0.0","null","","","","null","","","","","","","","","","","","","","",""
"","do_welcome","189","1084738","0.0-166.0-1.0","null","","","","null","","","","","","","","","","","","","","",""
"","do_trial","190","1090848","0.0-167.0-0.0","null","","","","null","0,0,1","3","mountain","120","probe-184","0.5568084430581078","0.19969021880184273","1","","","","","","",""
"","do_trial","191","1096721","0.0-168.0-0.0","313.2000000476837","","","","49","1,0,1","3","mountain","121","probe-216","0.6206012908232923","0.13727116671560916","1","1","","","","","",""
"","do_trial","192","1104012","0.0-169.0-0.0","1685.1999998092651","","","","51","1,0,1","3","mountain","122","probe-15","0.39497314581960874","0.11430747626323293","1","1","","","","","",""
"","do_trial","193","1109986","0.0-170.0-0.0","362.69999980926514","","","","50","1,1,1","3","mountain","123","probe-156","0.3614835065180075","0.17985378743188946","1","1","","","","","",""
"","do_trial","194","1115919","0.0-171.0-0.0","379.2000000476837","","","","49","0,0,0","3","mountain","124","probe-83","0.3471928680390959","0.06457971993128396","0.9004589042967532","0","","","","","",""
"","do_trial","195","1121903","0.0-172.0-0.0","389.2999999523163","","","","51","0,1,1","3","mountain","125","probe-80","0.40359261716598577","0.07843594831815215","0.8756199466923961","1","","","","","",""
"","do_trial","196","1127890","0.0-173.0-0.0","375.7000000476837","","","","50","1,0,1","3","mountain","126","probe-187","0.4008873925290658","0.12272598542634963","0.9079387133700957","0","","","","","",""
"","do_trial","197","1134039","0.0-174.0-0.0","539.2000000476837","","","","51","1,0,1","3","mountain","127","probe-185","0.488600965592228","0.09058792680141686","0.8829914222345637","1","","","","","",""
"","do_trial","198","1139920","0.0-175.0-0.0","280.7999999523163","","","","51","0,0,1","3","mountain","128","probe-228","0.5017852630858587","0.07152838017782978","0.8662719503776201","1","","","","","",""
"","do_trial","199","1145821","0.0-176.0-0.0","302.30000019073486","","","","51","1,0,1","3","mountain","129","probe-85","0.35795178913904496","0.12468801937414695","0.9248415429109531","1","","","","","",""
"","do_trial","200","1152001","0.0-177.0-0.0","565","","","","51","1,0,1","3","mountain","130","probe-169","0.6217793511293249","0.09765110108196938","0.6270529303536281","1","","","","","",""
"","do_trial","201","1158092","0.0-178.0-0.0","487.2000000476837","","","","51","1,0,0","3","mountain","131","probe-158","0.6750372588954412","0.10230949846832282","0.5670169596061382","0","","","","","",""
"","do_trial","202","1164304","0.0-179.0-0.0","613.9000000953674","","","","49","0,0,1","3","mountain","132","probe-21","0.7080140918425869","0.07484107244218137","0.6507769708264101","0","","","","","",""
"","do_trial","203","1170207","0.0-180.0-0.0","296.40000009536743","","","","50","1,0,1","3","mountain","133","probe-138","0.738799423793454","0.06201523880075917","0.47306237788008587","0","","","","","",""
"","do_trial","204","1176170","0.0-181.0-0.0","359","","","","51","1,0,0","3","mountain","134","probe-172","0.8429043070758118","0.05224185881167575","0.24597706970673067","0","","","","","",""
"","do_trial","205","1182012","0.0-182.0-0.0","224.89999985694885","","","","49","1,0,1","3","mountain","135","probe-78","0.8727581311824796","0.07841685775014458","0.360357362131809","1","","","","","",""
"","do_trial","206","1187909","0.0-183.0-0.0","294.39999985694885","","","","49","1,0,0","3","mountain","136","probe-196","0.9094150217067434","0.14477966760171798","0.309643115882081","1","","","","","",""
"","do_trial","207","1194068","0.0-184.0-0.0","597.5999999046326","","","","49","1,0,0","3","mountain","137","probe-165","0.8501962544705849","0.09409887072263345","0.4428313030941435","1","","","","","",""
"","do_trial","208","1199972","0.0-185.0-0.0","307.09999990463257","","","","49","0,0,1","3","mountain","138","probe-128","0.7676974506803529","0.11648704249517255","0.521493146781728","0","","","","","",""
"","do_trial","209","1206159","0.0-186.0-0.0","621","","","","50","1,0,1","3","mountain","139","probe-102","0.8528426478209914","0.06180272783629691","0.42355705618598555","0","","","","","",""
"","do_trial","210","1212182","0.0-187.0-0.0","416.2999999523163","","","","51","1,0,0","3","mountain","140","probe-56","0.8391369418871015","0.22607945677922814","0.46852797606985164","0","","","","","",""
"","do_trial","211","1218213","0.0-188.0-0.0","426.2000000476837","","","","51","1,1,0","3","mountain","141","probe-195","0.826798496261089","0.3345127316521787","0.45114645537009174","0","","","","","",""
"","do_trial","212","1224354","0.0-189.0-0.0","576.7000000476837","","","","49","1,0,0","3","mountain","142","probe-176","0.7244309134139352","0.3377515512205851","0.4251572295395533","1","","","","","",""
"","do_trial","213","1230380","0.0-190.0-0.0","423.89999985694885","","","","49","1,0,0","3","mountain","143","probe-104","0.8386156315081239","0.25114293784276026","0.3053488041077874","1","","","","","",""
"","do_trial","214","1236358","0.0-191.0-0.0","372.19999980926514","","","","49","1,0,0","3","mountain","144","probe-55","0.8836744351554193","0.2944927890623573","0.38501310299465796","1","","","","","",""
"","do_trial","215","1242475","0.0-192.0-0.0","518.4000000953674","","","","49","1,1,0","3","mountain","145","probe-230","0.7378857564529281","0.12034579338803371","0.4152865302138313","1","","","","","",""
"","do_trial","216","1248385","0.0-193.0-0.0","306.2999999523163","","","","49","0,0,1","3","mountain","146","probe-167","0.8096122828048311","0.19892900336763042","0.44471764349851745","0","","","","","",""
"","do_trial","217","1254202","0.0-194.0-0.0","260.39999985694885","","","","50","1,0,1","3","mountain","147","probe-231","0.7540972734471031","0.06675332271367132","0.3989565737026091","0","","","","","",""
"","do_trial","218","1260114","0.0-195.0-0.0","320.09999990463257","","","","51","1,0,0","3","mountain","148","probe-132","0.7099221799165577","0.05022024124044725","0.6139540171643517","0","","","","","",""
"","do_trial","219","1266108","0.0-196.0-0.0","435.59999990463257","","","","49","1,0,1","3","mountain","149","probe-03","0.7425769742697564","0.08841324989212038","0.4822922294326579","1","","","","","",""
"","do_trial","220","1272160","0.0-197.0-0.0","447.10000014305115","","","","49","1,0,0","3","mountain","150","probe-45","0.8686849693563926","0.07923229900971375","0.19953043939412193","1","","","","","",""
"","do_trial","221","1278127","0.0-198.0-0.0","407.59999990463257","","","","49","1,0,0","3","mountain","151","probe-29","0.8106500501528239","0.2003120662868362","0.26369855111616164","1","","","","","",""
"","do_trial","222","1284086","0.0-199.0-0.0","350.2000000476837","","","","49","1,0,0","3","mountain","152","probe-112","0.6887721387978524","0.22783915770771174","0.4453741442027004","1","","","","","",""
"","do_trial","223","1290153","0.0-200.0-0.0","472.2000000476837","","","","49","1,0,0","3","mountain","153","probe-49","0.6486949101064206","0.22199470035675523","0.41270033877356166","1","","","","","",""
"","do_trial","224","1296094","0.0-201.0-0.0","332.90000009536743","","","","49","0,0,0","3","mountain","154","probe-46","0.7419698679685551","0.2597226094518483","0.3094214133773346","0","","","","","",""
"","do_trial","225","1302096","0.0-202.0-0.0","390","","","","50","1,0,0","3","mountain","155","probe-225","0.7301236987356933","0.16972462631198731","0.2112787281160707","0","","","","","",""
"","do_trial","226","1308113","0.0-203.0-0.0","412.7999999523163","","","","51","1,0,1","3","mountain","156","probe-16","0.6896336617906298","0.10003767031617787","0.37637521305104393","1","","","","","",""
"","do_trial","227","1314080","0.0-204.0-0.0","369.40000009536743","","","","51","1,0,0","3","mountain","157","probe-238","0.7038675425012398","0.201882997731937","0.25587187437640846","0","","","","","",""
"","do_trial","228","1319960","0.0-205.0-0.0","264.89999985694885","","","","49","0,0,0","3","mountain","158","probe-150","0.6493403963320479","0.11246053664738327","0.3099353540786601","0","","","","","",""
"","do_trial","229","1325936","0.0-206.0-0.0","415.2000000476837","","","","50","0,0,0","3","mountain","159","probe-63","0.7798514766230545","0.12198384564320801","0.37272555184724065","0","","","","","",""
"","do_bye","230","1327448","0.0-207.0-0.0","null","","","","null","","","","","","","","","","","","","","",""
"","do_travel","231","1333466","0.0-208.0-0.0","null","","","","null","","","","","","","","","","","","","","",""
"","do_welcome","232","1334979","0.0-208.0-1.0","null","","","","null","","","","","","","","","","","","","","",""
"","do_trial","233","1341219","0.0-209.0-0.0","632.7999999523163","","","","51","1,0,1","4","forest","160","probe-199","1","0.09410009054018632","0.26509995146725795","1","","","","","",""
"","do_trial","234","1347026","0.0-210.0-0.0","244.29999995231628","","","","50","1,0,1","4","forest","161","probe-54","1","0.07019066811835499","0.29197403173011","0","","","","","",""
"","do_trial","235","1353005","0.0-211.0-0.0","371","","","","49","1,0,1","4","forest","162","probe-235","1","0.20294446830848487","0.2350619778657898","1","","","","","",""
"","do_trial","236","1358954","0.0-212.0-0.0","387.5","","","","51","1,0,0","4","forest","163","probe-59","1","0.16197999107707564","0.158426346112623","0","","","","","",""
"","do_trial","237","1364901","0.0-213.0-0.0","391.2999999523163","","","","50","1,0,0","4","forest","164","probe-97","0.9015098590359878","0.14992979683464633","0.27638048846744734","0","","","","","",""
"","do_trial","238","1370956","0.0-214.0-0.0","494.2999999523163","","","","49","1,0,1","4","forest","165","probe-160","0.9359763363833988","0.16606108457578977","0.3483263631746684","1","","","","","",""
"","do_trial","239","1376944","0.0-215.0-0.0","433.2999999523163","","","","51","1,0,0","4","forest","166","probe-108","0.9022069128166547","0.056159306912974966","0.3882715528140813","0","","","","","",""
"","do_trial","240","1382796","0.0-216.0-0.0","241.89999985694885","","","","49","0,0,0","4","forest","167","probe-02","0.6772068700573922","0.14160659060833825","0.28044711674953027","0","","","","","",""
"","do_trial","241","1388620","0.0-217.0-0.0","263","","","","50","0,0,0","4","forest","168","probe-81","0.6348374550167702","0.13630595206565807","0.2768722022154426","0","","","","","",""
"","do_trial","242","1394515","0.0-218.0-0.0","337.7999999523163","","","","51","0,0,1","4","forest","169","probe-60","0.697369538999669","0.0635143998836351","0.2744481072222354","1","","","","","",""
"","do_trial","243","1400666","0.0-219.0-0.0","595.7999999523163","","","","49","1,1,1","4","forest","170","probe-200","0.3519867152095253","0.250742173062172","0.634342778456468","1","","","","","",""
"","do_trial","244","1406575","0.0-220.0-0.0","354.90000009536743","","","","51","0,0,1","4","forest","171","probe-35","0.21934532255413486","0.2745037596836932","0.8369775401496776","1","","","","","",""
"","do_trial","245","1412533","0.0-221.0-0.0","406.59999990463257","","","","49","0,0,1","4","forest","172","probe-189","0.24527961810580537","0.17342027011348887","0.8094731241714989","0","","","","","",""
"","do_trial","246","1418350","0.0-222.0-0.0","253.10000014305115","","","","51","0,1,1","4","forest","173","probe-145","0.06519956964045155","0.2648132908177451","0.9087052929466822","1","","","","","",""
"","do_trial","247","1424225","0.0-223.0-0.0","308.7999999523163","","","","51","0,0,1","4","forest","174","probe-121","0.0711311129165453","0.34404141584915177","0.7550329438975925","1","","","","","",""
"","do_trial","248","1430229","0.0-224.0-0.0","385.59999990463257","","","","51","0,0,1","4","forest","175","probe-66","0.14683634334713982","0.43436786573769454","0.8883078939452699","1","","","","","",""
"","do_trial","249","1436088","0.0-225.0-0.0","300.5","","","","51","0,1,1","4","forest","176","probe-212","0.11510492678353512","0.4515039966987757","0.8871057118926801","1","","","","","",""
"","do_trial","250","1442086","0.0-226.0-0.0","397.2999999523163","","","","51","0,1,1","4","forest","177","probe-32","0.1363709131264248","0.5059233565309366","0.8249346211950068","1","","","","","",""
"","do_trial","251","1448103","0.0-227.0-0.0","455.2999999523163","","","","51","0,0,1","4","forest","178","probe-86","0.11264988236544671","0.37996609817785276","0.9221559340402925","1","","","","","",""
"","do_trial","252","1454560","0.0-228.0-0.0","897.7999999523163","","","","51","0,1,1","4","forest","179","probe-157","0.12167298004805734","0.2260254682642049","0.7171500142156415","1","","","","","",""
"","do_trial","253","1460664","0.0-229.0-0.0","542.9000000953674","","","","51","0,0,1","4","forest","180","probe-226","0.055540080265409825","0.23626641219381175","0.7199437971335705","1","","","","","",""
"","do_trial","254","1466772","0.0-230.0-0.0","542.7999999523163","","","","51","1,0,1","4","forest","181","probe-170","0.14259853813826698","0.3482256827210957","0.772839239099372","1","","","","","",""
"","do_trial","255","1472723","0.0-231.0-0.0","338.89999985694885","","","","51","1,0,0","4","forest","182","probe-48","0.2070334950745468","0.329389856891005","0.8232667823916923","0","","","","","",""
"","do_trial","256","1478538","0.0-232.0-0.0","259.59999990463257","","","","50","0,0,0","4","forest","183","probe-73","0.1161189700033325","0.378308270933224","0.7509490218624356","0","","","","","",""
"","do_trial","257","1484641","0.0-233.0-0.0","537","","","","49","1,0,1","4","forest","184","probe-197","0.19114130822369263","0.4560813825976605","0.8062951005273766","1","","","","","",""
"","do_trial","258","1490608","0.0-234.0-0.0","357","","","","49","0,1,0","4","forest","185","probe-28","0.3611837846320973","0.4135154907976527","0.7879707507339175","0","","","","","",""
"","do_trial","259","1496511","0.0-235.0-0.0","340.59999990463257","","","","51","0,1,1","4","forest","186","probe-234","0.3018598725098435","0.333549052110491","0.7857100797878244","1","","","","","",""
"","do_trial","260","1502807","0.0-236.0-0.0","736.0999999046326","","","","49","1,0,0","4","forest","187","probe-180","0.16416338441195755","0.28559442438947114","0.7547337399476771","1","","","","","",""
"","do_trial","261","1508915","0.0-237.0-0.0","548.2000000476837","","","","51","0,1,1","4","forest","188","probe-159","0.05452092726895028","0.19764116395252415","0.7124164555915797","1","","","","","",""
"","do_trial","262","1514946","0.0-238.0-0.0","428.89999985694885","","","","49","1,0,0","4","forest","189","probe-64","0.1394969057946887","0.1542223082805458","0.6466907806197334","1","","","","","",""
"","do_trial","263","1520813","0.0-239.0-0.0","272.09999990463257","","","","51","0,0,0","4","forest","190","probe-129","0.17774134279887827","0.19681547003392572","0.7628501378411339","0","","","","","",""
"","do_trial","264","1526635","0.0-240.0-0.0","264.59999990463257","","","","49","0,1,1","4","forest","191","probe-178","0.21474010359150122","0.330061596574135","0.887620896178","0","","","","","",""
"","do_trial","265","1532753","0.0-241.0-0.0","502.5","","","","51","0,0,0","4","forest","192","probe-44","0.17872410944668882","0.36388779274223515","0.9103919709266168","0","","","","","",""
"","do_trial","266","1540998","0.0-242.0-0.0","2680.100000143051","","","","49","0,1,1","4","forest","193","probe-36","0.2163827653234953","0.4188594477055114","0.8690626588374913","0","","","","","",""
"","do_trial","267","1546977","0.0-243.0-0.0","419.89999985694885","","","","50","0,1,1","4","forest","194","probe-149","0.26447318015036897","0.2984279635727336","0.8299099876106526","1","","","","","",""
"","do_trial","268","1553966","0.0-244.0-0.0","1378.7999999523163","","","","51","0,0,1","4","forest","195","probe-69","0.133357848705974","0.28038999295567135","0.7108026532025479","1","","","","","",""
"","do_trial","269","1560385","0.0-245.0-0.0","865.9000000953674","","","","51","1,0,1","4","forest","196","probe-40","0.22036285724989327","0.24644479856052517","0.7643804244876521","1","","","","","",""
"","do_trial","270","1566139","0.0-246.0-0.0","141.40000009536743","","","","49","0,0,1","4","forest","197","probe-147","0.10647944731424289","0.3480300238173521","0.7382123615994388","0","","","","","",""
"","do_trial","271","1572165","0.0-247.0-0.0","423.60000014305115","","","","51","0,0,1","4","forest","198","probe-115","0.10906505506928564","0.26529463424142863","0.7178070140380707","1","","","","","",""
"","do_trial","272","1578375","0.0-248.0-0.0","656.9000000953674","","","","49","0,0,1","4","forest","199","probe-98","0.07394530126174059","0.33722337860662577","0.8481906667312425","0","","","","","",""
"","do_bye","273","1579890","0.0-249.0-0.0","null","","","","null","","","","","","","","","","","","","","",""
"","do_travel","274","1585906","0.0-250.0-0.0","null","","","","null","","","","","","","","","","","","","","",""
"","do_welcome","275","1587420","0.0-250.0-1.0","null","","","","null","","","","","","","","","","","","","","",""
"","do_trial","276","1594787","0.0-251.0-0.0","1801.8999998569489","","","","49","0,0,1","5","countryside","200","probe-153","0.07359915217125364","0.4148721762004551","1","0","","","","","",""
"","do_trial","277","1601055","0.0-252.0-0.0","668.7000000476837","","","","50","0,0,1","5","countryside","201","probe-214","0.05848259451722637","0.26616131898355677","1","0","","","","","",""
"","do_trial","278","1607117","0.0-253.0-0.0","null","","","","null","0,0,1","5","countryside","202","probe-74","0.09843295141566291","0.28694319562621945","1","","","","","","",""
"","do_trial","279","1615227","0.0-254.0-0.0","2554.600000143051","","","","51","0,0,1","5","countryside","203","probe-193","0.07814032456086098","0.3490869721257566","1","1","","","","","",""
"","do_trial","280","1621293","0.0-255.0-0.0","507.09999990463257","","","","51","0,0,1","5","countryside","204","probe-124","0.18430082695853578","0.5046059460984681","0.9092964141504115","1","","","","","",""
"","do_trial","281","1627368","0.0-256.0-0.0","440.2000000476837","","","","51","0,1,0","5","countryside","205","probe-20","0.22762659308012154","0.3567369508783198","0.9460262295455875","0","","","","","",""
"","do_trial","282","1633215","0.0-257.0-0.0","280.7000000476837","","","","49","0,1,1","5","countryside","206","probe-237","0.1732931855014751","0.4224606086084676","0.8593264643753373","0","","","","","",""
"","do_trial","283","1639248","0.0-258.0-0.0","477.89999985694885","","","","51","0,0,1","5","countryside","207","probe-25","0.14828015779247564","0.4412055441528301","0.8669301087028586","1","","","","","",""
"","do_trial","284","1645339","0.0-259.0-0.0","492.5","","","","49","0,1,1","5","countryside","208","probe-95","0.18070766911294814","0.5206542731032318","0.8002421420060141","0","","","","","",""
"","do_trial","285","1651250","0.0-260.0-0.0","353.09999990463257","","","","51","0,1,1","5","countryside","209","probe-27","0.19412727936303906","0.6608804395213893","0.7977139555486872","1","","","","","",""
"","do_trial","286","1657514","0.0-261.0-0.0","698.7999999523163","","","","49","0,1,1","5","countryside","210","probe-206","0.5403045567942613","0.3937259247240423","0.7138606437023163","0","","","","","",""
"","do_trial","287","1663337","0.0-262.0-0.0","263.7000000476837","","","","50","0,0,1","5","countryside","211","probe-61","0.6884285106480497","0.3009740032443984","0.6985867937395817","0","","","","","",""
"","do_trial","288","1669388","0.0-263.0-0.0","499.7000000476837","","","","51","1,1,0","5","countryside","212","probe-218","0.7910118910663266","0.21989259247015353","0.7142849293711413","0","","","","","",""
"","do_trial","289","1675234","0.0-264.0-0.0","282","","","","49","1,0,1","5","countryside","213","probe-179","0.7354406961259672","0.24888010858842177","0.6510449198551888","1","","","","","",""
"","do_trial","290","1681297","0.0-265.0-0.0","null","","","","null","0,0,1","5","countryside","214","probe-119","0.7642144573240863","0.25636150341969927","0.5105029281010731","","","","","","",""
"","do_trial","291","1687428","0.0-266.0-0.0","569.2999999523163","","","","51","1,1,1","5","countryside","215","probe-93","0.8023839385464845","0.1690466769093914","0.5322090699828851","1","","","","","",""
"","do_trial","292","1693378","0.0-267.0-0.0","397.89999985694885","","","","51","1,0,0","5","countryside","216","probe-202","0.7943684796164326","0.19379528116534744","0.32186974148045144","0","","","","","",""
"","do_trial","293","1699755","0.0-268.0-0.0","769","","","","49","1,0,0","5","countryside","217","probe-106","0.8529971285460078","0.15568269410831914","0.3296418548731743","1","","","","","",""
"","do_trial","294","1705699","0.0-269.0-0.0","331","","","","49","1,0,0","5","countryside","218","probe-41","0.8947857236921317","0.14826562389504921","0.4761298503416946","1","","","","","",""
"","do_trial","295","1713486","0.0-270.0-0.0","2221.7999999523163","","","","50","0,1,0","5","countryside","219","probe-04","0.8559950073422976","0.1994785810099342","0.28903869460722986","1","","","","","",""
"","do_trial","296","1720830","0.0-271.0-0.0","1788.7000000476837","","","","51","1,1,1","5","countryside","220","probe-84","0.6760494821584786","0.23047569756051356","0.3748462322713703","1","","","","","",""
"","do_trial","297","1726857","0.0-272.0-0.0","435.40000009536743","","","","49","1,0,0","5","countryside","221","probe-142","0.7077931908093339","0.17046414869487211","0.3644310791793582","1","","","","","",""
"","do_trial","298","1733245","0.0-273.0-0.0","797.6000001430511","","","","51","0,0,0","5","countryside","222","probe-130","0.7234438668874839","0.12219497868932855","0.2974625184580211","0","","","","","",""
"","do_trial","299","1739169","0.0-274.0-0.0","362.10000014305115","","","","49","1,0,1","5","countryside","223","probe-204","0.6730292493233582","0.09880451469815085","0.3578899851860599","1","","","","","",""
"","do_trial","300","1745974","0.0-275.0-0.0","1226","","","","50","0,1,0","5","countryside","224","probe-76","0.5511369859742825","0.2982405188827303","0.3642038605608434","1","","","","","",""
"","do_trial","301","1751843","0.0-276.0-0.0","275.39999985694885","","","","50","1,0,0","5","countryside","225","probe-75","0.6240210300576878","0.07685325795045675","0.49360736157196017","0","","","","","",""
"","do_trial","302","1758109","0.0-277.0-0.0","660.5999999046326","","","","51","1,0,1","5","countryside","226","probe-62","0.7342427174910908","0.09571865636281501","0.48027413425923166","1","","","","","",""
"","do_trial","303","1764341","0.0-278.0-0.0","674.7999999523163","","","","51","1,0,1","5","countryside","227","probe-70","0.7599037312260906","0.09262071630643132","0.46431737547195867","1","","","","","",""
"","do_trial","304","1771367","0.0-279.0-0.0","1415.2000000476837","","","","51","0,0,0","5","countryside","228","probe-220","0.8238491180109805","0.15888300291843638","0.40982891787239495","0","","","","","",""
"","do_trial","305","1777251","0.0-280.0-0.0","324.7000000476837","","","","49","1,0,1","5","countryside","229","probe-240","0.8312289683395926","0.05210475902118757","0.5015059203216274","1","","","","","",""
"","do_trial","306","1783998","0.0-281.0-0.0","1186.2999999523163","","","","49","1,0,1","5","countryside","230","probe-213","0.7982746301663545","0.19138663064333117","0.5372741510943402","1","","","","","",""
"","do_trial","307","1789927","0.0-282.0-0.0","368.2000000476837","","","","50","1,1,0","5","countryside","231","probe-161","0.8973548450824999","0.1947181496218699","0.5702122951669903","1","","","","","",""
"","do_trial","308","1796610","0.0-283.0-0.0","1130.2999999523163","","","","50","1,0,1","5","countryside","232","probe-110","0.8837622053896292","0.16403312501338846","0.5922299265615115","0","","","","","",""
"","do_trial","309","1802603","0.0-284.0-0.0","388.2999999523163","","","","51","1,0,1","5","countryside","233","probe-125","0.9394151239434666","0.14734020045986077","0.6075721479304101","1","","","","","",""
"","do_trial","310","1808587","0.0-285.0-0.0","378.2000000476837","","","","51","1,0,1","5","countryside","234","probe-183","0.8409193671495737","0.18998738034320645","0.6137089800279923","1","","","","","",""
"","do_trial","311","1816521","0.0-286.0-0.0","2347.2000000476837","","","","51","1,0,1","5","countryside","235","probe-137","0.8285242386600452","0.14299682731225702","0.46590815045734185","1","","","","","",""
"","do_trial","312","1824116","0.0-287.0-0.0","2008.7000000476837","","","","51","1,0,0","5","countryside","236","probe-164","0.8655535494843618","0.09748342045951619","0.5486604663745263","0","","","","","",""
"","do_trial","313","1830093","0.0-288.0-0.0","375.7999999523163","","","","51","1,0,0","5","countryside","237","probe-135","0.9371151974629649","0.06313009104247266","0.619521089783454","0","","","","","",""
"","do_trial","314","1836372","0.0-289.0-0.0","676.8999998569489","","","","49","1,0,0","5","countryside","238","probe-99","0.813339555124254","0.19526552419643348","0.5290288846339926","1","","","","","",""
"","do_trial","315","1842290","0.0-290.0-0.0","317.39999985694885","","","","49","1,0,0","5","countryside","239","probe-131","0.8487623389570418","0.1693214182514057","0.7180123123568365","1","","","","","",""
"","do_bye","316","1843802","0.0-291.0-0.0","null","","","","null","","","","","","","","","","","","","","",""
"","html-keyboard-response","317","1920521","0.0-291.0-1.0","76717.89999985695","<div class='center'><p>You may take a break now!</p><p> Stretch for a little bit. Get a glass of water.</p><p> You have two minutes to rest. Then, the game will automatically move on.</p><p>If you’d like to get started on the second half of the experiment sooner, then press the <b>space bar</b></p></div>","32","","","","","","","","","","","","","","","","",""
"","html-keyboard-response","318","1930765","0.0-291.0-2.0","10242.200000047684","<div class='center'><p>You’ve arrived at the final destination of your journey! Unfortunately, it’s very foggy out, so you won’t be able to see it in the distance like in previous places you've visited.</p><p>You’ll still be deciding which pirates you want to rob ships. However, because of the fog you also won’t be able to see the ship in the distance. </p><p><b>[Press the space bar to continue]</b></p></div>","32","","","","","","","","","","","","","","","","",""
"","html-keyboard-response","319","1964013","0.0-291.0-3.0","33247","<div class='center'><p> Sometimes you’ll be asked if you’ve seen a ship before (see the example below). You will use the 5, 6, 7, 8 buttons on your keyboard to respond. </p><p> If you definitely did not see the ship, pick the the big red thumbs down by pressing <b>5</b>.</p><p> If you don’t think you saw it but aren’t sure, then pick the small red thumbs down by pressing <b>6</b>.</p><p> If you think you might have seen it, then pick the small green thumbs up by pressing <b>7</b>.</p><p> If you definitely did see this ship before, then pick the big thumb green thumbs up by pressing <b>8</b>.</p><p> If you recall correctly, then you’ll get a gold coin!</p><p><b>[Press the space bar to begin the next phase of the experiment]</b></p><p><img src='run_exp/static/images/example_recog_trial.png' height='500'></p></div>","32","","","","","","","","","","","","","","","","",""
"","do_welcome","320","1965528","0.0-291.0-4.0","null","","","","null","","","","","","","","","","","","","","",""
"","do_trial","321","1971994","0.0-292.0-0.0","2860.300000190735","","","","50","1,0,0","6","blank","240","null","1","0.08854921022845773","0.6530922071685863","0","","","","","",""
"","do_recog","322","1976682","0.0-293.0-0.0","3163.0999999046326","","","","56","","","","241","probe-59","","","","","1","[object Object]","163","4","1",""
"","do_trial","323","1982795","0.0-294.0-0.0","null","","","","null","1,0,1","6","blank","242","null","0.929419573181559","0.07475651235968389","0.6772260852647617","","","","","","",""
"","do_recog","324","1986060","0.0-295.0-0.0","1743.9000000953674","","","","56","","","","243","probe-97","","","","","1","[object Object]","164","4","1",""
"","do_trial","325","1990721","0.0-296.0-0.0","1104.8999998569489","","","","49","1,0,1","6","blank","244","null","0.8605240210068011","0.12734017082138857","0.5816428455425393","1","","","","","",""
"","do_trial","326","1996036","0.0-297.0-0.0","1765.5","","","","51","1,1,1","6","blank","245","null","0.8415062059078585","0.23552932995620413","0.454194321087912","1","","","","","",""
"","do_trial","327","2000613","0.0-298.0-0.0","1015.7999999523163","","","","50","1,1,1","6","blank","246","null","0.7559453922255693","0.23758782156381222","0.5081464233545465","1","","","","","",""
"","do_trial","328","2005300","0.0-299.0-0.0","1137.4000000953674","","","","49","1,0,0","6","blank","247","null","0.7860082718875182","0.13538520825281464","0.5366774075060294","1","","","","","",""
"","do_trial","329","2009315","0.0-300.0-0.0","462.19999980926514","","","","51","1,0,0","6","blank","248","null","0.8056883867347435","0.10942012384589084","0.48899033262453556","0","","","","","",""
"","do_trial","330","2013863","0.0-301.0-0.0","935.7000000476837","","","","50","1,0,1","6","blank","249","null","0.8110178037067328","0.06837480084489872","0.5371229328895138","0","","","","","",""
"","do_recog","331","2018263","0.0-302.0-0.0","2878.9000000953674","","","","55","","","","250","probe-152","","","","","1","[object Object]","88","2","1",""
"","do_trial","332","2023177","0.0-303.0-0.0","1355","","","","50","1,1,0","6","blank","251","null","0.7802401445178586","0.23896203345124234","0.5013481647189918","1","","","","","",""
"","do_trial","333","2027180","0.0-304.0-0.0","388.7000000476837","","","","51","0,0,0","6","blank","252","null","0.9332928506934208","0.21595786171720815","0.36336672363781214","0","","","","","",""
"","do_trial","334","2031003","0.0-305.0-0.0","270.39999985694885","","","","49","0,0,1","6","blank","253","null","0.7205884223756642","0.21718922555813094","0.5484846597515234","0","","","","","",""
"","do_trial","335","2034951","0.0-306.0-0.0","397.7999999523163","","","","50","1,0,0","6","blank","254","null","0.6664473771911269","0.0999729040663329","0.5716735595038235","0","","","","","",""
"","do_trial","336","2038926","0.0-307.0-0.0","414.90000009536743","","","","51","1,0,1","6","blank","255","null","0.5975970559992594","0.11087449944270616","0.7887205062095101","1","","","","","",""
"","do_recog","337","2043349","0.0-308.0-0.0","2903.5","","","","54","","","","256","probe-81","","","","","1","[object Object]","168","4","0",""
"","do_trial","338","2048588","0.0-309.0-0.0","1630.5999999046326","","","","51","0,0,1","6","blank","257","null","0.48819354843449303","0.10909183313055662","0.9124667935139702","1","","","","","",""
"","do_recog","339","2052250","0.0-310.0-0.0","2144","","","","54","","","","258","probe-249","","","","","0","[object Object]","null","null","1",""
"","do_trial","340","2056760","0.0-311.0-0.0","911.9000000953674","","","","49","1,0,1","6","blank","259","null","0.47915794922927823","0.06721768589114702","0.8024729660248637","1","","","","","",""
"","do_recog","341","2059775","0.0-312.0-0.0","1504.2999999523163","","","","56","","","","260","probe-90","","","","","1","[object Object]","83","2","1",""
"","do_trial","342","2065704","0.0-313.0-0.0","2373.600000143051","","","","50","0,0,0","6","blank","261","null","0.40391009798720123","0.08388782205299931","0.7441294131942666","0","","","","","",""
"","do_trial","343","2069580","0.0-314.0-0.0","310.2000000476837","","","","49","0,0,1","6","blank","262","null","0.42182633994094026","0.08249237201967516","0.8233244670600668","0","","","","","",""
"","do_trial","344","2073579","0.0-315.0-0.0","443.7999999523163","","","","51","1,0,1","6","blank","263","null","0.45621548359901154","0.16480336927003778","0.7633366184758138","1","","","","","",""
"","do_trial","345","2077720","0.0-316.0-0.0","576.8999998569489","","","","51","1,0,1","6","blank","264","null","0.43236947376710616","0.11091783325251907","0.7016890768264362","1","","","","","",""
"","do_recog","346","2080465","0.0-317.0-0.0","1231","","","","56","","","","265","probe-52","","","","","1","[object Object]","41","1","1",""
"","do_trial","347","2084599","0.0-318.0-0.0","570.1000001430511","","","","51","0,0,0","6","blank","266","null","0.37720577156484686","0.21501889077407133","0.6952335095431772","0","","","","","",""
"","do_trial","348","2088488","0.0-319.0-0.0","278.40000009536743","","","","49","0,1,1","6","blank","267","null","0.4204781337037483","0.1845299928957674","0.7482355573956518","0","","","","","",""
"","do_trial","349","2092418","0.0-320.0-0.0","333.2000000476837","","","","50","1,0,0","6","blank","268","null","0.4277383240722211","0.1074745008338066","0.7119345694707413","0","","","","","",""
"","do_trial","350","2096496","0.0-321.0-0.0","523.5","","","","51","0,0,0","6","blank","269","null","0.4936841455373056","0.2798518583561734","0.913950243099996","0","","","","","",""
"","do_recog","351","2099966","0.0-322.0-0.0","1957.1999998092651","","","","54","","","","270","probe-108","","","","","1","[object Object]","166","4","0",""
"","do_trial","352","2104117","0.0-323.0-0.0","540","","","","50","1,1,1","6","blank","271","null","0.4554115712054756","0.24775920330201495","0.8318934986232956","1","","","","","",""
"","do_trial","353","2108016","0.0-324.0-0.0","290.5","","","","49","0,1,0","6","blank","272","null","0.4151860039366829","0.2743987516658442","0.8474908832517476","0","","","","","",""
"","do_trial","354","2111932","0.0-325.0-0.0","351.89999985694885","","","","51","1,0,1","6","blank","273","null","0.5305971236321035","0.32454573335433595","0.8001275861007497","1","","","","","",""
"","do_trial","355","2115930","0.0-326.0-0.0","385.59999990463257","","","","50","0,1,0","6","blank","274","null","0.4877859418535899","0.2265844952450289","0.735092360172842","1","","","","","",""
"","do_trial","356","2120111","0.0-327.0-0.0","577.3999998569489","","","","51","1,1,1","6","blank","275","null","0.62046194833035","0.1035149236352294","0.7100749607898339","1","","","","","",""
"","do_trial","357","2124331","0.0-328.0-0.0","625.0999999046326","","","","50","0,0,1","6","blank","276","null","0.45800689156020197","0.060317837491836584","0.6719161854178751","0","","","","","",""
"","do_trial","358","2128302","0.0-329.0-0.0","418.90000009536743","","","","51","1,0,1","6","blank","277","null","0.5380741212222026","0.0608955621617362","0.8308824918523429","1","","","","","",""
"","do_recog","359","2130968","0.0-330.0-0.0","1142.5999999046326","","","","56","","","","278","probe-154","","","","","1","[object Object]","84","2","1",""
"","do_trial","360","2135605","0.0-331.0-0.0","1013.6000001430511","","","","50","0,0,1","6","blank","279","null","0.5347645557141671","0.2287543013784201","1","0","","","","","",""
"","do_recog","361","2139130","0.0-332.0-0.0","2006","","","","53","","","","280","probe-257","","","","","0","[object Object]","null","null","1",""
"","do_trial","362","2143206","0.0-333.0-0.0","451.89999985694885","","","","49","0,1,1","6","blank","281","null","0.5882168623319677","0.1930596877351871","0.887618801742477","0","","","","","",""
"","do_trial","363","2147201","0.0-334.0-0.0","382.5","","","","51","1,0,1","6","blank","282","null","0.5208699603472828","0.17401142938626257","0.8203175409162518","1","","","","","",""
"","do_trial","364","2151160","0.0-335.0-0.0","354.40000009536743","","","","50","0,1,1","6","blank","283","null","0.440966938142459","0.2855220732736067","0.7814465859836784","1","","","","","",""
"","do_recog","365","2153833","0.0-336.0-0.0","1148.5999999046326","","","","56","","","","284","probe-203","","","","","1","[object Object]","81","2","1",""
"","do_trial","366","2158141","0.0-337.0-0.0","748.2999999523163","","","","51","1,0,1","6","blank","285","null","0.46280546863304395","0.07648394198468352","0.7553579312208899","1","","","","","",""
"","do_recog","367","2161615","0.0-338.0-0.0","1965.3999998569489","","","","54","","","","286","probe-107","","","","","1","[object Object]","44","1","0",""
"","do_trial","368","2165846","0.0-339.0-0.0","625.0999999046326","","","","51","1,1,0","6","blank","287","null","0.48549218205538675","0.12378839359885464","0.8220320790752956","0","","","","","",""
"","do_trial","369","2170497","0.0-340.0-0.0","1104.6000001430511","","","","49","1,0,1","6","blank","288","null","0.5044868349842906","0.14155722926222","0.9214316600461304","1","","","","","",""
"","do_trial","370","2174487","0.0-341.0-0.0","425.5","","","","50","1,0,1","6","blank","289","null","0.46063706206009714","0.08605442187358539","0.858990363211587","0","","","","","",""
"","do_recog","371","2177667","0.0-342.0-0.0","1655.5","","","","54","","","","290","probe-153","","","","","1","[object Object]","200","5","0",""
"","do_trial","372","2181641","0.0-343.0-0.0","366.60000014305115","","","","51","1,0,1","6","blank","291","null","0.4281510740289678","0.13210356608184692","0.7705161241662621","1","","","","","",""
"","do_recog","373","2184542","0.0-344.0-0.0","1379.0999999046326","","","","55","","","","292","probe-244","","","","","0","[object Object]","null","null","0",""
"","do_trial","374","2188504","0.0-345.0-0.0","401.10000014305115","","","","51","0,0,1","6","blank","293","null","0.39424950022971805","0.0625099587646903","0.7687982887129821","1","","","","","",""
"","do_trial","375","2192564","0.0-346.0-0.0","469.7000000476837","","","","49","1,0,0","6","blank","294","null","0.329008196450927","0.13601682507960297","0.7005914236185931","1","","","","","",""
"","do_recog","376","2195340","0.0-347.0-0.0","1260.7999999523163","","","","55","","","","295","probe-187","","","","","1","[object Object]","126","3","1",""
"","do_trial","377","2199391","0.0-348.0-0.0","485.90000009536743","","","","50","0,1,1","6","blank","296","null","0.30740398612088465","0.203627375226413","0.6757745331360168","1","","","","","",""
"","do_recog","378","2201737","0.0-349.0-0.0","830","","","","56","","","","297","probe-113","","","","","1","[object Object]","43","1","1",""
"","do_trial","379","2205928","0.0-350.0-0.0","582.2999999523163","","","","49","0,1,1","6","blank","298","null","0.20667782716336514","0.4259151883503426","0.5612202300261128","0","","","","","",""
"","do_recog","380","2208647","0.0-351.0-0.0","1211.8000001907349","","","","55","","","","299","probe-85","","","","","1","[object Object]","129","3","1",""
"","do_trial","381","2212677","0.0-352.0-0.0","426.7999999523163","","","","51","0,1,1","6","blank","300","null","0.24346406985059196","0.6771951490875049","0.5307089762731326","1","","","","","",""
"","do_trial","382","2216889","0.0-353.0-0.0","590.3000001907349","","","","50","0,0,0","6","blank","301","null","0.24435813127806158","0.6968510819771536","0.43870792858369534","0","","","","","",""
"","do_trial","383","2220933","0.0-354.0-0.0","486.09999990463257","","","","50","1,0,1","6","blank","302","null","0.15763913183236725","0.6521372713225182","0.3464223539002774","0","","","","","",""
"","do_recog","384","2224240","0.0-355.0-0.0","1780.6000001430511","","","","53","","","","303","probe-214","","","","","1","[object Object]","201","5","0",""
"","do_trial","385","2228688","0.0-356.0-0.0","888.2000000476837","","","","51","0,0,0","6","blank","304","null","0.15578844832359887","0.7774822740705443","0.4967847991116874","0","","","","","",""
"","do_trial","386","2232759","0.0-357.0-0.0","467.09999990463257","","","","49","0,0,0","6","blank","305","null","0.21430545373220966","0.780849775189967","0.30531725776492885","0","","","","","",""
"","do_trial","387","2236796","0.0-358.0-0.0","436.09999990463257","","","","50","0,1,0","6","blank","306","null","0.16918056336938037","0.7589810501216222","0.32185848400000133","1","","","","","",""
"","do_trial","388","2240760","0.0-359.0-0.0","360.59999990463257","","","","50","0,1,0","6","blank","307","null","0.11875463670117746","0.783025011115689","0.3715612371525985","1","","","","","",""
"","do_trial","389","2244967","0.0-360.0-0.0","646.7999999523163","","","","51","0,0,0","6","blank","308","null","0.17570890058962144","0.8278392770842764","0.18525087429788226","0","","","","","",""
"","do_trial","390","2249125","0.0-361.0-0.0","540.5","","","","50","0,0,0","6","blank","309","null","0.103982794022422","0.7978411434923427","0.29253160022241526","0","","","","","",""
"","do_recog","391","2251742","0.0-362.0-0.0","1092","","","","56","","","","310","probe-118","","","","","1","[object Object]","47","1","1",""
"","do_trial","392","2255754","0.0-363.0-0.0","456.30000019073486","","","","50","0,0,0","6","blank","311","null","0.06751765379656197","0.6515929174987624","0.3239731723372022","0","","","","","",""
"","do_recog","393","2258830","0.0-364.0-0.0","1556.7000000476837","","","","54","","","","312","probe-95","","","","","1","[object Object]","208","5","0",""
"","do_trial","394","2262762","0.0-365.0-0.0","373.10000014305115","","","","49","1,1,1","6","blank","313","null","0.05295194306928051","0.7447893812686929","0.2747031360807873","1","","","","","",""
"","do_recog","395","2265999","0.0-366.0-0.0","1715","","","","54","","","","314","probe-253","","","","","0","[object Object]","null","null","1",""
"","do_trial","396","2270238","0.0-367.0-0.0","679.8999998569489","","","","51","0,1,1","6","blank","315","null","0.10688757826064228","0.8263387269945952","0.4490579430403668","1","","","","","",""
"","do_recog","397","2272841","0.0-368.0-0.0","1095.3999998569489","","","","56","","","","316","probe-27","","","","","1","[object Object]","209","5","1",""
"","do_trial","398","2277127","0.0-369.0-0.0","723","","","","51","0,1,0","6","blank","317","null","0.0605828219666377","0.8810841074849074","0.3065806122560216","0","","","","","",""
"","do_recog","399","2279835","0.0-370.0-0.0","1181.9000000953674","","","","56","","","","318","probe-228","","","","","1","[object Object]","128","3","1",""
"","do_trial","400","2283889","0.0-371.0-0.0","505.5","","","","49","0,1,0","6","blank","319","null","0.17882426951807376","0.8903032499991814","0.234126544206643","0","","","","","",""
"","do_recog","401","2286132","0.0-372.0-0.0","718.7000000476837","","","","56","","","","320","probe-193","","","","","1","[object Object]","203","5","1",""
"","do_trial","402","2290581","0.0-373.0-0.0","889.5999999046326","","","","51","0,1,0","6","blank","321","null","0.13402989496207945","0.8414083381469958","0.33354550223386986","0","","","","","",""
"","do_trial","403","2294693","0.0-374.0-0.0","549.6999998092651","","","","50","0,1,1","6","blank","322","null","0.059203402430577826","0.7563103655361715","0.23549895395216458","1","","","","","",""
"","do_recog","404","2297982","0.0-375.0-0.0","1764.2000000476837","","","","56","","","","323","probe-80","","","","","1","[object Object]","125","3","1",""
"","do_trial","405","2302145","0.0-376.0-0.0","560","","","","51","0,0,1","6","blank","324","null","0.13585027937618777","0.7266722999994718","0.29727316375136786","1","","","","","",""
"","do_recog","406","2304391","0.0-377.0-0.0","730.2000000476837","","","","56","","","","325","probe-242","","","","","0","[object Object]","null","null","0",""
"","do_trial","407","2308532","0.0-378.0-0.0","548.6999998092651","","","","50","0,1,0","6","blank","326","null","0.16304209074448778","1","0.319274983627061","1","","","","","",""
"","do_recog","408","2310711","0.0-379.0-0.0","667.4000000953674","","","","56","","","","327","probe-124","","","","","1","[object Object]","204","5","1",""
"","do_trial","409","2314731","0.0-380.0-0.0","459.10000014305115","","","","50","0,1,1","6","blank","328","null","0.08788195159864451","0.8790010722123809","0.30179280668767466","1","","","","","",""
"","do_trial","410","2318861","0.0-381.0-0.0","526","","","","50","0,1,1","6","blank","329","null","0.06070983160107092","0.8639687728130481","0.3354422885458765","1","","","","","",""
"","do_recog","411","2321148","0.0-382.0-0.0","771.5999999046326","","","","56","","","","330","probe-216","","","","","1","[object Object]","121","3","1",""
"","do_trial","412","2325303","0.0-383.0-0.0","596.0999999046326","","","","49","0,1,0","6","blank","331","null","0.06500026770203345","0.8872437192152275","0.23484804874955614","0","","","","","",""
"","do_recog","413","2327785","0.0-384.0-0.0","966.4000000953674","","","","55","","","","332","probe-156","","","","","1","[object Object]","123","3","1",""
"","do_trial","414","2331783","0.0-385.0-0.0","449.10000014305115","","","","51","0,0,0","6","blank","333","null","0.09735886496166113","0.7587739446527819","0.2496527407798374","0","","","","","",""
"","do_trial","415","2335972","0.0-386.0-0.0","594.2999999523163","","","","50","0,1,0","6","blank","334","null","0.07542274527107073","0.6464221229647669","0.1760616022255539","1","","","","","",""
"","do_trial","416","2340247","0.0-387.0-0.0","713.4000000953674","","","","49","0,1,0","6","blank","335","null","0.17345340295389314","0.807331628690163","0.261780060728061","0","","","","","",""
"","do_trial","417","2344554","0.0-388.0-0.0","694.6000001430511","","","","50","0,1,0","6","blank","336","null","0.1137874470676535","0.6905595020957966","0.2539863885897883","1","","","","","",""
"","do_recog","418","2350586","0.0-389.0-0.0","null","","","","null","","","","337","probe-235","","","","","1","[object Object]","162","4","0",""
"","do_trial","419","2356666","0.0-390.0-0.0","null","","","","null","0,0,0","6","blank","338","null","0.12129356587703631","0.7694811736945039","0.42929832152799907","","","","","","",""
"","do_recog","420","2359794","0.0-391.0-0.0","1612","","","","55","","","","339","probe-162","","","","","1","[object Object]","49","1","1",""
"","do_trial","421","2364759","0.0-392.0-0.0","1408.4000000953674","","","","50","0,1,0","6","blank","340","null","0.1359844943226781","0.6969283908546745","0.4498437948927033","1","","","","","",""
"","do_trial","422","2368752","0.0-393.0-0.0","437.40000009536743","","","","51","0,1,1","6","blank","341","null","0.0933654918073087","0.5786788443531184","0.5913621021024368","1","","","","","",""
"","do_recog","423","2371417","0.0-394.0-0.0","1148.5","","","","56","","","","342","probe-141","","","","","1","[object Object]","48","1","1",""
"","do_trial","424","2375839","0.0-395.0-0.0","871.5","","","","49","0,0,1","6","blank","343","null","0.12086082704717947","0.4735549073950681","0.7207892413976287","0","","","","","",""
"","do_trial","425","2380163","0.0-396.0-0.0","776.2000000476837","","","","51","0,0,1","6","blank","344","null","0.12037857930151978","0.5149635553452184","0.6809243743519747","1","","","","","",""
"","do_trial","426","2384752","0.0-397.0-0.0","987.2000000476837","","","","50","0,0,0","6","blank","345","null","0.229845108121717","0.5017691717601293","0.8258977984810671","0","","","","","",""
"","do_trial","427","2388930","0.0-398.0-0.0","564.7000000476837","","","","51","0,1,0","6","blank","346","null","0.14301637920664878","0.3149842101284539","0.8279041083985869","0","","","","","",""
"","do_trial","428","2393026","0.0-399.0-0.0","492.80000019073486","","","","49","0,1,1","6","blank","347","null","0.13804357873578002","0.3002610516070816","0.8186542293848601","0","","","","","",""
"","do_trial","429","2397106","0.0-400.0-0.0","467.09999990463257","","","","50","0,0,0","6","blank","348","null","0.10702449467698802","0.3268120154474232","0.8375069571472519","0","","","","","",""
"","do_recog","430","2400337","0.0-401.0-0.0","1720.5999999046326","","","","54","","","","349","probe-246","","","","","0","[object Object]","null","null","1",""
"","do_trial","431","2406441","0.0-402.0-0.0","null","","","","null","0,1,0","6","blank","350","null","0.21013631400373775","0.39969371180595625","0.8756606581592016","","","","","","",""
"","do_recog","432","2409746","0.0-403.0-0.0","1792.6000001430511","","","","56","","","","351","probe-60","","","","","1","[object Object]","169","4","1",""
"","do_trial","433","2414126","0.0-404.0-0.0","766.6000001430511","","","","50","0,1,0","6","blank","352","null","0.25094867040211744","0.4435091924212967","0.7460465017233895","1","","","","","",""
"","do_recog","434","2417251","0.0-405.0-0.0","1604.9000000953674","","","","54","","","","353","probe-09","","","","","1","[object Object]","89","2","0",""
"","do_trial","435","2421348","0.0-406.0-0.0","539.2000000476837","","","","50","0,0,1","6","blank","354","null","0.15156832236287837","0.5987251723145767","0.7322533469093171","0","","","","","",""
"","do_recog","436","2424726","0.0-407.0-0.0","1863.7000000476837","","","","55","","","","355","probe-139","","","","","1","[object Object]","82","2","1",""
"","do_trial","437","2428870","0.0-408.0-0.0","583.6000001430511","","","","49","1,1,1","6","blank","356","null","0.17792657721767172","0.5629735682278796","0.8236030416904351","1","","","","","",""
"","do_recog","438","2432149","0.0-409.0-0.0","1760.3999998569489","","","","54","","","","357","probe-160","","","","","1","[object Object]","165","4","0",""
"","do_trial","439","2436243","0.0-410.0-0.0","534.1000001430511","","","","50","0,1,1","6","blank","358","null","0.35587939080798764","0.7523271926768388","0.6841415508145074","1","","","","","",""
"","do_recog","440","2438660","0.0-411.0-0.0","912.6000001430511","","","","56","","","","359","probe-199","","","","","1","[object Object]","160","4","1",""
"","do_trial","441","2442714","0.0-412.0-0.0","493.2000000476837","","","","51","1,0,0","6","blank","360","null","0.2711934880815974","0.6154805635354191","0.5805022269863825","0","","","","","",""
"","do_recog","442","2445411","0.0-413.0-0.0","1176.2000000476837","","","","55","","","","361","probe-185","","","","","1","[object Object]","127","3","1",""
"","do_trial","443","2449526","0.0-414.0-0.0","559.2999999523163","","","","49","0,0,1","6","blank","362","null","0.13803694224371596","0.625294170505498","0.6137411609902387","0","","","","","",""
"","do_recog","444","2451815","0.0-415.0-0.0","776.2000000476837","","","","56","","","","363","probe-83","","","","","1","[object Object]","124","3","1",""
"","do_trial","445","2456105","0.0-416.0-0.0","734.0999999046326","","","","50","1,0,1","6","blank","364","null","0.11950164082394764","0.6832412106900168","0.7403918257285552","0","","","","","",""
"","do_trial","446","2460612","0.0-417.0-0.0","947.8000001907349","","","","51","0,0,0","6","blank","365","null","0.09619804191010961","0.5632537328287621","0.7396711624704172","0","","","","","",""
"","do_trial","447","2464994","0.0-418.0-0.0","773.7000000476837","","","","49","0,0,1","6","blank","366","null","0.05488884375014903","0.44975631344244177","0.7553080064411366","0","","","","","",""
"","do_trial","448","2469918","0.0-419.0-0.0","1362.6000001430511","","","","50","0,1,1","6","blank","367","null","0.08602536254596681","0.36838143305902576","0.858784724620616","1","","","","","",""
"","do_recog","449","2472392","0.0-420.0-0.0","961.7999999523163","","","","56","","","","368","probe-201","","","","","1","[object Object]","80","2","1",""
"","do_trial","450","2476459","0.0-421.0-0.0","459.89999985694885","","","","51","0,0,1","6","blank","369","null","0.06235648936218236","0.3331475427065246","0.8419603161317761","1","","","","","",""
"","do_recog","451","2478712","0.0-422.0-0.0","742","","","","56","","","","370","probe-140","","","","","1","[object Object]","87","2","1",""
"","do_trial","452","2482845","0.0-423.0-0.0","538","","","","50","0,1,1","6","blank","371","null","0.08129136757806675","0.6027032192452262","0.9199227664853664","1","","","","","",""
"","do_recog","453","2485151","0.0-424.0-0.0","788.2999999523163","","","","56","","","","372","probe-210","","","","","1","[object Object]","86","2","1",""
"","do_trial","454","2489421","0.0-425.0-0.0","659","","","","50","0,0,1","6","blank","373","null","0.05553104139701239","0.5671690746745611","1","0","","","","","",""
"","do_trial","455","2493331","0.0-426.0-0.0","352.2000000476837","","","","49","0,1,1","6","blank","374","null","0.1728174649070222","0.6079604117021072","0.9197252063353726","0","","","","","",""
"","do_recog","456","2496865","0.0-427.0-0.0","2010.0999999046326","","","","53","","","","375","probe-17","","","","","1","[object Object]","46","1","0",""
"","do_trial","457","2501164","0.0-428.0-0.0","739.4000000953674","","","","50","0,1,1","6","blank","376","null","0.06063729216605658","0.5954973967141213","0.8618326369780763","1","","","","","",""
"","do_trial","458","2505130","0.0-429.0-0.0","359.30000019073486","","","","51","0,1,1","6","blank","377","null","0.09075847917484768","0.4579669162498351","0.7855772015794952","1","","","","","",""
"","do_trial","459","2510180","0.0-430.0-0.0","1489.8999998569489","","","","50","0,0,1","6","blank","378","null","0.0797898558369784","0.34114814992739173","0.7471410637564185","0","","","","","",""
"","do_recog","460","2512789","0.0-431.0-0.0","1089.4000000953674","","","","55","","","","379","probe-91","","","","","1","[object Object]","85","2","1",""
"","do_trial","461","2516892","0.0-432.0-0.0","549.5","","","","51","0,0,0","6","blank","380","null","0.22234578821854548","0.2334012170743108","0.6795167326883125","0","","","","","",""
"","do_recog","462","2519233","0.0-433.0-0.0","827.1000001430511","","","","56","","","","381","probe-174","","","","","1","[object Object]","42","1","1",""
"","do_trial","463","2524003","0.0-434.0-0.0","1172","","","","49","0,0,0","6","blank","382","null","0.2321162703424535","0.40025376946627567","0.6554948414784356","0","","","","","",""
"","do_trial","464","2528295","0.0-435.0-0.0","691.6000001430511","","","","51","0,1,0","6","blank","383","null","0.11989046528899913","0.385161201176627","0.6895719851427283","0","","","","","",""
"","do_trial","465","2532355","0.0-436.0-0.0","508.5","","","","50","0,1,0","6","blank","384","null","0.10811135095380216","0.4638450513514604","0.6810451557982176","1","","","","","",""
"","do_trial","466","2536541","0.0-437.0-0.0","632.1999998092651","","","","49","0,1,1","6","blank","385","null","0.15462072973981036","0.46994239118713993","0.6017968308481921","0","","","","","",""
"","do_recog","467","2539433","0.0-438.0-0.0","1378.3999998569489","","","","54","","","","386","probe-54","","","","","1","[object Object]","161","4","0",""
"","do_trial","468","2544165","0.0-439.0-0.0","1128","","","","50","1,1,1","6","blank","387","null","0.13556737522244855","0.5614373849031713","0.6007272566089658","1","","","","","",""
"","do_trial","469","2548543","0.0-440.0-0.0","819.4000000953674","","","","50","0,1,1","6","blank","388","null","0.06552341006939202","0.6191610778352512","0.4701276612983917","1","","","","","",""
"","do_trial","470","2552874","0.0-441.0-0.0","725.6999998092651","","","","50","0,1,0","6","blank","389","null","0.07979450531862482","0.5381837611552948","0.2276526889176762","1","","","","","",""
"","do_trial","471","2556997","0.0-442.0-0.0","518.6999998092651","","","","50","0,1,0","6","blank","390","null","0.08181097475686967","0.7368212995857012","0.3902444240153243","1","","","","","",""
"","do_recog","472","2559833","0.0-443.0-0.0","1318.5999999046326","","","","56","","","","391","probe-15","","","","","1","[object Object]","122","3","1",""
"","do_trial","473","2564076","0.0-444.0-0.0","644","","","","50","0,1,1","6","blank","392","null","0.25297085502511607","0.6910232657061129","0.5230069772132123","1","","","","","",""
"","do_recog","474","2566682","0.0-445.0-0.0","1086.6000001430511","","","","56","","","","393","probe-25","","","","","1","[object Object]","207","5","1",""
"","do_trial","475","2570907","0.0-446.0-0.0","669.5999999046326","","","","50","0,1,1","6","blank","394","null","0.12091058145677704","0.8996752839470357","0.5469817537580998","1","","","","","",""
