"success","trial_type","trial_index","time_elapsed","internal_node_id","interactions","blur_events","focus_events","fullscreenenter_events","fullscreenexit_events"
"true","fullscreen","0","2250","0.0-0.0","""event"",""trial"",""time""
""fullscreenenter"",""0"",""1327""
","
","
","""event"",""trial"",""time""
""fullscreenenter"",""0"",""1327""
","
"
"","pavlovia","1","2254","0.0-1.0","""event"",""trial"",""time""
""fullscreenenter"",""0"",""1327""
""blur"",""2"",""12887""
""focus"",""2"",""14661""
""blur"",""2"",""16802""
""focus"",""2"",""21368""
""blur"",""2"",""24210""
""focus"",""2"",""25591""
""fullscreenexit"",""2"",""32691""
""blur"",""2"",""37490""
""focus"",""2"",""38285""
""blur"",""2"",""38496""
""focus"",""2"",""41898""
""blur"",""2"",""45394""
""focus"",""2"",""45397""
","""event"",""trial"",""time""
""blur"",""2"",""12887""
""blur"",""2"",""16802""
""blur"",""2"",""24210""
""blur"",""2"",""37490""
""blur"",""2"",""38496""
""blur"",""2"",""45394""
","""event"",""trial"",""time""
""focus"",""2"",""14661""
""focus"",""2"",""21368""
""focus"",""2"",""25591""
""focus"",""2"",""38285""
""focus"",""2"",""41898""
""focus"",""2"",""45397""
","""event"",""trial"",""time""
""fullscreenenter"",""0"",""1327""
","""event"",""trial"",""time""
""fullscreenexit"",""2"",""32691""
"
