"success","trial_type","trial_index","time_elapsed","internal_node_id","interactions","blur_events","focus_events","fullscreenenter_events","fullscreenexit_events","rt","stimulus","key_press","subject_id","participant_id","age","gender","prompt","response","choice_outcomes","context_n","context_img_id","trial_n","probe_img_id","pR_red","pR_white","pR_black","outcome","contextArray_ind","validImageProbes","invalidImageProbes","pRew_Red","pRew_White","pRew_Black","availableForMemProbe","choice_blocks"
"true","fullscreen","0","4969","0.0-0.0","""event"",""trial"",""time""
""fullscreenenter"",""0"",""4011""
","
","
","""event"",""trial"",""time""
""fullscreenenter"",""0"",""4011""
","
","","","","","","","","","","","","","","","","","","","","","","","","","",""
"","pavlovia","1","4972","0.0-1.0","""event"",""trial"",""time""
""fullscreenenter"",""0"",""4011""
","
","
","""event"",""trial"",""time""
""fullscreenenter"",""0"",""4011""
","
","","","","","","","","","","","","","","","","","","","","","","","","","",""
"","instruc1","2","53496","0.0-2.0","""event"",""trial"",""time""
""fullscreenenter"",""0"",""4011""
","
","
","""event"",""trial"",""time""
""fullscreenenter"",""0"",""4011""
","
","null","run_exp/static/audio/clip_1_welcome.m4a","null","265","710","13","Female","<div class='center'><p>Welcome! This is the first part of the study. It will last ~30 minutes. In part 1 and part 2 of the study, you are the head captain of a pirate ship traveling around the world to different islands. You will play a few different games throughout these two parts. Here is an overview of them:</p><br><p>Part 1 (today)</p><p>1. Instructions, practice game, and quiz</p><p>2. Pick a pirate game on 6 different islands</p><br><p>Part 2 (tomorrow)</p><p>3. Pick a pirate game and memory game</p><p>4. Where did you see this ship? </p></div>","","","","","","","","","","","","","","","","","",""
"","html-keyboard-response","3","54089","0.0-3.0","""event"",""trial"",""time""
""fullscreenenter"",""0"",""4011""
","
","
","""event"",""trial"",""time""
""fullscreenenter"",""0"",""4011""
","
","591","<div class='center'><p>Welcome! This is the first part of the study. It will last ~30 minutes. In part 1 and part 2 of the study, you are the head captain of a pirate ship traveling around the world to different islands. You will play a few different games throughout these two parts. Here is an overview of them:</p><br><p>Part 1 (today)</p><p>1. Instructions, practice game, and quiz</p><p>2. Pick a pirate game on 6 different islands</p><br><p>Part 2 (tomorrow)</p><p>3. Pick a pirate game and memory game</p><p>4. Where did you see this ship? </p><p><b>[Press the space bar to continue]</b></p></div>","32","","","","","","","","","","","","","","","","","","","","","","",""
"","instruc2","4","59416","0.0-4.0","""event"",""trial"",""time""
""fullscreenenter"",""0"",""4011""
","
","
","""event"",""trial"",""time""
""fullscreenenter"",""0"",""4011""
","
","null","run_exp/static/audio/clip_2_different_places.m4a","null","","","","","<div class='center'><p>Today, you’ll visit these 6 islands on your journey. You'll be able to see these islands from your ship.</p><p><img src='run_exp/static/images/contexts/all_contexts.png' height='500'></p></div>","","","","","","","","","","","","","","","","","",""
"","html-keyboard-response","5","60827","0.0-5.0","""event"",""trial"",""time""
""fullscreenenter"",""0"",""4011""
","
","
","""event"",""trial"",""time""
""fullscreenenter"",""0"",""4011""
","
","1408.300000011921","<div class='center'><p>Today, you’ll visit these 6 islands on your journey. You'll be able to see these islands from your ship.</p><p><img src='run_exp/static/images/contexts/all_contexts.png' height='500'></p><p><b>[Press the space bar to continue]</b></p></div>","32","","","","","","","","","","","","","","","","","","","","","","",""
"","instruc3","6","70516","0.0-6.0","""event"",""trial"",""time""
""fullscreenenter"",""0"",""4011""
","
","
","""event"",""trial"",""time""
""fullscreenenter"",""0"",""4011""
","
","null","run_exp/static/audio/clip_3_goal_of_game_1.m4a","null","","","","","<div class='center'><p> The pirates on your ship will rob other ships as they leave the island.</p> These ships have just sold their goods to the islanders, so they will be filled with lots and lots of gold.</p><p><img src='run_exp/static/images/tutorial/ship_center.png' height='400'></p></div>","","","","","","","","","","","","","","","","","",""
"","html-keyboard-response","7","71305","0.0-7.0","""event"",""trial"",""time""
""fullscreenenter"",""0"",""4011""
","
","
","""event"",""trial"",""time""
""fullscreenenter"",""0"",""4011""
","
","787.0999999642372","<div class='center'><p> The pirates on your ship will rob other ships as they leave the island.</p> These ships have just sold their goods to the islanders, so they will be filled with lots and lots of gold.</p><p><img src='run_exp/static/images/tutorial/ship_center.png' height='400'></p><p><b>[Press the space bar to continue]</b></p></div>","32","","","","","","","","","","","","","","","","","","","","","","",""
"","instruc4","8","99294","0.0-8.0","""event"",""trial"",""time""
""fullscreenenter"",""0"",""4011""
","
","
","""event"",""trial"",""time""
""fullscreenenter"",""0"",""4011""
","
","null","run_exp/static/audio/clip_4_goal_of_game_2.m4a","null","","","","","<div class='center'><p>As the head captain, you do not have to rob any ships yourself. Another pirate will be doing the robbing for you. First, you will choose a pirate to rob the next ship.</p><p><img src='run_exp/static/images/tutorial/pirates_all_crop.png' height='200'></p><p>Then, you'll see if the pirate successfully robbed the ship of their gold. If they were successful, then you'll get a stack of gold coins like this:</p><p><img src='run_exp/static/images/tutorial/reward.png' height='150'></p><p> If they were <b>not</b> successful, then you'll get no gold coins, and you'll see a big red x like this: </p><p><img src='run_exp/static/images/tutorial/reward_no.png' height='150'></p><p> How much bonus money you make is based on how many gold coins you collect.</p><div>","","","","","","","","","","","","","","","","","",""
"","html-keyboard-response","9","100526","0.0-9.0","""event"",""trial"",""time""
""fullscreenenter"",""0"",""4011""
","
","
","""event"",""trial"",""time""
""fullscreenenter"",""0"",""4011""
","
","1230.699999988079","<div class='center'><p>As the head captain, you do not have to rob any ships yourself. Another pirate will be doing the robbing for you. First, you will choose a pirate to rob the next ship.</p><p><img src='run_exp/static/images/tutorial/pirates_all_crop.png' height='200'></p><p>Then, you'll see if the pirate successfully robbed the ship of their gold. If they were successful, then you'll get a stack of gold coins like this:</p><p><img src='run_exp/static/images/tutorial/reward.png' height='150'></p><p> If they were <b>not</b> successful, then you'll get no gold coins, and you'll see a big red x like this: </p><p><img src='run_exp/static/images/tutorial/reward_no.png' height='150'></p><p> How much bonus money you make is based on how many gold coins you collect.</p<p><b>[Press the space bar to continue]</b></p></div>","32","","","","","","","","","","","","","","","","","","","","","","",""
"","instruc5","10","121531","0.0-10.0","""event"",""trial"",""time""
""fullscreenenter"",""0"",""4011""
","
","
","""event"",""trial"",""time""
""fullscreenenter"",""0"",""4011""
","
","21004.19999998808","run_exp/static/audio/clip_5_probabilistic.m4a","49","","","","","<div class='center'><p>Even the most skilled pirate can not rob EVERY ship.</p><p> Some ships will have very strong protections against pirate attacks.</p><p> Blue beard, here, is very, very good at robbing ships, but he won't be successful every time he tries to rob one.</p><p> You can press the <b>‘1’</b> key on the keyboard to choose him.</p><p> Try choosing him 10 times to see how often he succeeds at robbing a ship. </p><p><img src='run_exp/static/images/tutorial/blue.png' height='500'></p></div>","","","","","","","","","","","","","","","","","",""
"","html-keyboard-response","11","123035","0.0-11.0","""event"",""trial"",""time""
""fullscreenenter"",""0"",""4011""
","
","
","""event"",""trial"",""time""
""fullscreenenter"",""0"",""4011""
","
","null","<div class='center'><p><img src='run_exp/static/images/tutorial/blue_win.png' height='500'></p></div>","null","","","","","","","","","","","","","","","","","","","","","","",""
"","html-keyboard-response","12","123099","0.0-12.0","""event"",""trial"",""time""
""fullscreenenter"",""0"",""4011""
","
","
","""event"",""trial"",""time""
""fullscreenenter"",""0"",""4011""
","
","62.80000001192093","<div class='center'><img src='run_exp/static/images/tutorial/blue.png' height='500'></p></div>","49","","","","","","","","","","","","","","","","","","","","","","",""
"","html-keyboard-response","13","124612","0.0-13.0","""event"",""trial"",""time""
""fullscreenenter"",""0"",""4011""
","
","
","""event"",""trial"",""time""
""fullscreenenter"",""0"",""4011""
","
","null","<div class='center'><p><img src='run_exp/static/images/tutorial/blue_win.png' height='500'></p></div>","null","","","","","","","","","","","","","","","","","","","","","","",""
"","html-keyboard-response","14","126153","0.0-14.0","""event"",""trial"",""time""
""fullscreenenter"",""0"",""4011""
","
","
","""event"",""trial"",""time""
""fullscreenenter"",""0"",""4011""
","
","1540.199999988079","<div class='center'><img src='run_exp/static/images/tutorial/blue.png' height='500'></p></div>","49","","","","","","","","","","","","","","","","","","","","","","",""
"","html-keyboard-response","15","127661","0.0-15.0","""event"",""trial"",""time""
""fullscreenenter"",""0"",""4011""
","
","
","""event"",""trial"",""time""
""fullscreenenter"",""0"",""4011""
","
","null","<div class='center'><p><img src='run_exp/static/images/tutorial/blue_win.png' height='500'></p></div>","null","","","","","","","","","","","","","","","","","","","","","","",""
"","html-keyboard-response","16","128186","0.0-16.0","""event"",""trial"",""time""
""fullscreenenter"",""0"",""4011""
","
","
","""event"",""trial"",""time""
""fullscreenenter"",""0"",""4011""
","
","523","<div class='center'><img src='run_exp/static/images/tutorial/blue.png' height='500'></p></div>","49","","","","","","","","","","","","","","","","","","","","","","",""
"","html-keyboard-response","17","129689","0.0-17.0","""event"",""trial"",""time""
""fullscreenenter"",""0"",""4011""
","
","
","""event"",""trial"",""time""
""fullscreenenter"",""0"",""4011""
","
","null","<div class='center'><p><img src='run_exp/static/images/tutorial/blue_no_win.png' height='500'></p></div>","null","","","","","","","","","","","","","","","","","","","","","","",""
"","html-keyboard-response","18","130406","0.0-18.0","""event"",""trial"",""time""
""fullscreenenter"",""0"",""4011""
","
","
","""event"",""trial"",""time""
""fullscreenenter"",""0"",""4011""
","
","716.0999999642372","<div class='center'><img src='run_exp/static/images/tutorial/blue.png' height='500'></p></div>","49","","","","","","","","","","","","","","","","","","","","","","",""
"","html-keyboard-response","19","131909","0.0-19.0","""event"",""trial"",""time""
""fullscreenenter"",""0"",""4011""
","
","
","""event"",""trial"",""time""
""fullscreenenter"",""0"",""4011""
","
","null","<div class='center'><p><img src='run_exp/static/images/tutorial/blue_win.png' height='500'></p></div>","null","","","","","","","","","","","","","","","","","","","","","","",""
"","html-keyboard-response","20","132456","0.0-20.0","""event"",""trial"",""time""
""fullscreenenter"",""0"",""4011""
","
","
","""event"",""trial"",""time""
""fullscreenenter"",""0"",""4011""
","
","546.6000000238419","<div class='center'><img src='run_exp/static/images/tutorial/blue.png' height='500'></p></div>","49","","","","","","","","","","","","","","","","","","","","","","",""
"","html-keyboard-response","21","133970","0.0-21.0","""event"",""trial"",""time""
""fullscreenenter"",""0"",""4011""
","
","
","""event"",""trial"",""time""
""fullscreenenter"",""0"",""4011""
","
","null","<div class='center'><p><img src='run_exp/static/images/tutorial/blue_win.png' height='500'></p></div>","null","","","","","","","","","","","","","","","","","","","","","","",""
"","html-keyboard-response","22","134400","0.0-22.0","""event"",""trial"",""time""
""fullscreenenter"",""0"",""4011""
","
","
","""event"",""trial"",""time""
""fullscreenenter"",""0"",""4011""
","
","428.60000002384186","<div class='center'><img src='run_exp/static/images/tutorial/blue.png' height='500'></p></div>","49","","","","","","","","","","","","","","","","","","","","","","",""
"","html-keyboard-response","23","135914","0.0-23.0","""event"",""trial"",""time""
""fullscreenenter"",""0"",""4011""
","
","
","""event"",""trial"",""time""
""fullscreenenter"",""0"",""4011""
","
","null","<div class='center'><p><img src='run_exp/static/images/tutorial/blue_win.png' height='500'></p></div>","null","","","","","","","","","","","","","","","","","","","","","","",""
"","html-keyboard-response","24","136308","0.0-24.0","""event"",""trial"",""time""
""fullscreenenter"",""0"",""4011""
","
","
","""event"",""trial"",""time""
""fullscreenenter"",""0"",""4011""
","
","393.5","<div class='center'><img src='run_exp/static/images/tutorial/blue.png' height='500'></p></div>","49","","","","","","","","","","","","","","","","","","","","","","",""
"","html-keyboard-response","25","137822","0.0-25.0","""event"",""trial"",""time""
""fullscreenenter"",""0"",""4011""
","
","
","""event"",""trial"",""time""
""fullscreenenter"",""0"",""4011""
","
","null","<div class='center'><p><img src='run_exp/static/images/tutorial/blue_no_win.png' height='500'></p></div>","null","","","","","","","","","","","","","","","","","","","","","","",""
"","html-keyboard-response","26","138153","0.0-26.0","""event"",""trial"",""time""
""fullscreenenter"",""0"",""4011""
","
","
","""event"",""trial"",""time""
""fullscreenenter"",""0"",""4011""
","
","330.4000000357628","<div class='center'><img src='run_exp/static/images/tutorial/blue.png' height='500'></p></div>","49","","","","","","","","","","","","","","","","","","","","","","",""
"","html-keyboard-response","27","139655","0.0-27.0","""event"",""trial"",""time""
""fullscreenenter"",""0"",""4011""
","
","
","""event"",""trial"",""time""
""fullscreenenter"",""0"",""4011""
","
","null","<div class='center'><p><img src='run_exp/static/images/tutorial/blue_win.png' height='500'></p></div>","null","","","","","","","","","","","","","","","","","","","","","","",""
"","html-keyboard-response","28","140106","0.0-28.0","""event"",""trial"",""time""
""fullscreenenter"",""0"",""4011""
","
","
","""event"",""trial"",""time""
""fullscreenenter"",""0"",""4011""
","
","450.30000001192093","<div class='center'><img src='run_exp/static/images/tutorial/blue.png' height='500'></p></div>","49","","","","","","","","","","","","","","","","","","","","","","",""
"","html-keyboard-response","29","141621","0.0-29.0","""event"",""trial"",""time""
""fullscreenenter"",""0"",""4011""
","
","
","""event"",""trial"",""time""
""fullscreenenter"",""0"",""4011""
","
","null","<div class='center'><p><img src='run_exp/static/images/tutorial/blue_win.png' height='500'></p></div>","null","","","","","","","","","","","","","","","","","","","","","","",""
"","instruc6","30","147114","0.0-30.0","""event"",""trial"",""time""
""fullscreenenter"",""0"",""4011""
","
","
","""event"",""trial"",""time""
""fullscreenenter"",""0"",""4011""
","
","null","run_exp/static/audio/clip_6_blue_beard_outcome.m4a","null","","","","","<div class='center'><p> See, he succeeded in robbing the ships most of the time but not every time. </p></div>","","","","","","","","","","","","","","","","","",""
"","html-keyboard-response","31","148022","0.0-31.0","""event"",""trial"",""time""
""fullscreenenter"",""0"",""4011""
","
","
","""event"",""trial"",""time""
""fullscreenenter"",""0"",""4011""
","
","906.1999999880791","<div class='center'><p> See, he succeeded in robbing the ships most of the time but not every time. </p><p><b>[Press the space bar to continue]</b></p></div>","32","","","","","","","","","","","","","","","","","","","","","","",""
"","audio-keyboard-response","32","165279","0.0-32.0","""event"",""trial"",""time""
""fullscreenenter"",""0"",""4011""
","
","
","""event"",""trial"",""time""
""fullscreenenter"",""0"",""4011""
","
","17254.100000023842","run_exp/static/audio/clip_7_pick_pirate.m4a","50","","","","","","","","","","","","","","","","","","","","","","",""
"","audio-keyboard-response","33","169597","0.0-33.0-0.0","""event"",""trial"",""time""
""fullscreenenter"",""0"",""4011""
","
","
","""event"",""trial"",""time""
""fullscreenenter"",""0"",""4011""
","
","4315","run_exp/static/audio/clip_8_chosen_pirate_win.m4a","32","","","","","","","","","","","","","","","","","","","","","","",""
"","audio-keyboard-response","34","172600","0.0-33.0-1.0","""event"",""trial"",""time""
""fullscreenenter"",""0"",""4011""
","
","
","""event"",""trial"",""time""
""fullscreenenter"",""0"",""4011""
","
","3000.600000023842","run_exp/static/audio/clip_9_pick_a_pirate_again.m4a","49","","","","","","","","","","","","","","","","","","","","","","",""
"","audio-keyboard-response","35","173942","0.0-34.0-0.0","""event"",""trial"",""time""
""fullscreenenter"",""0"",""4011""
","
","
","""event"",""trial"",""time""
""fullscreenenter"",""0"",""4011""
","
","1340","run_exp/static/audio/clip_10_chosen_pirate_loss.m4a","32","","","","","","","","","","","","","","","","","","","","","","",""
"","instruc9","36","179432","0.0-35.0-0.0","""event"",""trial"",""time""
""fullscreenenter"",""0"",""4011""
","
","
","""event"",""trial"",""time""
""fullscreenenter"",""0"",""4011""
","
","null","run_exp/static/audio/clip_11_time_out.m4a","null","","","","","<div class='center'><p>If you don’t make your choice fast enough, you’ll have to wait a few seconds before you can make another one. </p><p><img src='run_exp/static/images/miscellaneous/hurry_up.png' height='500'></p></div>","","","","","","","","","","","","","","","","","",""
"","html-keyboard-response","37","180207","0.0-35.0-1.0","""event"",""trial"",""time""
""fullscreenenter"",""0"",""4011""
","
","
","""event"",""trial"",""time""
""fullscreenenter"",""0"",""4011""
","
","774.3000000119209","<div class='center'><p>If you don’t make your choice fast enough, you’ll have to wait a few seconds before you can make another one. </p><p><img src='run_exp/static/images/miscellaneous/hurry_up.png' height='500'></p><p><b>[Press the space bar to continue]</b></p></div>","32","","","","","","","","","","","","","","","","","","","","","","",""
"","instruc10","38","219293","0.0-35.0-2.0","""event"",""trial"",""time""
""fullscreenenter"",""0"",""4011""
","
","
","""event"",""trial"",""time""
""fullscreenenter"",""0"",""4011""
","
","null","run_exp/static/audio/clip_12_probe.m4a","null","","","","","<div class='center'><p>Once you've chosen a pirate, you’ll be shown the ship they are robbing. You will never rob the same ship twice. Ships can be told apart from one another by the image on them. These are the goods that they sell. See, this ship has a travel mug on it. </p><p> You’ll have to remember which island you saw each ship on. You will win more gold coins and hence more bonus money if you remember correctly! To help you remember, you can imagine a story. For example, here, you could imagine a mug full of water in the desert. Or, as another example, if on the forest island, your pirate robbed a ship with an apple on it, you could imagine an apple falling from a tree in the forest. </p><p><img src='run_exp/static/images/tutorial/example_probe.png' height='500'></p></div>","","","","","","","","","","","","","","","","","",""
"","html-keyboard-response","39","221647","0.0-35.0-3.0","""event"",""trial"",""time""
""fullscreenenter"",""0"",""4011""
","
","
","""event"",""trial"",""time""
""fullscreenenter"",""0"",""4011""
","
","2353.600000023842","<div class='center'><p>Once you've chosen a pirate, you’ll be shown the ship they are robbing. You will never rob the same ship twice. Ships can be told apart from one another by the image on them. These are the goods that they sell. See, this ship has a travel mug on it. </p><p> You’ll have to remember which island you saw each ship on. You will win more gold coins and hence more bonus money if you remember correctly! To help you remember, you can imagine a story. For example, here, you could imagine a mug full of water in the desert. Or, as another example, if on the forest island, your pirate robbed a ship with an apple on it, you could imagine an apple falling from a tree in the forest. </p><p><img src='run_exp/static/images/tutorial/example_probe.png' height='500'></p><p><b>[Press the space bar to continue]</b></p></div>","32","","","","","","","","","","","","","","","","","","","","","","",""
"","instruc11","40","238052","0.0-35.0-4.0","""event"",""trial"",""time""
""fullscreenenter"",""0"",""4011""
","
","
","""event"",""trial"",""time""
""fullscreenenter"",""0"",""4011""
","
","null","run_exp/static/audio/clip_13_changepoint.m4a","null","","","","","<div class='center'><p>How successful a pirate is at robbing ships will depend on the island you’re on.</p><p> A pirate may have visited this island many times before and gained a lot of practice robbing ships there.</p><p>So, they’re more likely to be successful than a pirate who has never visited the island before.</p></div>","","","","","","","","","","","","","","","","","",""
"","html-keyboard-response","41","239863","0.0-35.0-5.0","""event"",""trial"",""time""
""fullscreenenter"",""0"",""4011""
","
","
","""event"",""trial"",""time""
""fullscreenenter"",""0"",""4011""
","
","1809.7999999523163","<div class='center'><p>How successful a pirate is at robbing ships will depend on the island you’re on.</p><p> A pirate may have visited this island many times before and gained a lot of practice robbing ships there.</p><p>So, they’re more likely to be successful than a pirate who has never visited the island before.</p><p><b>[Press the space bar to continue]</b></p></div>","32","","","","","","","","","","","","","","","","","","","","","","",""
"","instruc12","42","280955","0.0-35.0-6.0","""event"",""trial"",""time""
""fullscreenenter"",""0"",""4011""
","
","
","""event"",""trial"",""time""
""fullscreenenter"",""0"",""4011""
","
","null","run_exp/static/audio/clip_14_drift.m4a","null","","","","","<div class='center'><p>How successful a pirate is at robbing ships can also change over the time spent on the island. </p><p> Ships may hear from islanders about the pirates coming and will improve their protections against the attack. This may make it harder to rob them.</p><p> Ships may also become lazy and weaken the strength of their protections. This may make it easier to rob them.</p><br><p>Things are always changing on the high seas! So, try your best to pay attention!</p><p><img src='run_exp/static/images/tutorial/contingency.png' height='500'></p></div>","","","","","","","","","","","","","","","","","",""
"","html-keyboard-response","43","282356","0.0-35.0-7.0","""event"",""trial"",""time""
""fullscreenenter"",""0"",""4011""
","
","
","""event"",""trial"",""time""
""fullscreenenter"",""0"",""4011""
","
","1399.699999988079","<div class='center'><p>How successful a pirate is at robbing ships can also change over the time spent on the island. </p><p> Ships may hear from islanders about the pirates coming and will improve their protections against the attack. This may make it harder to rob them.</p><p> Ships may also become lazy and weaken the strength of their protections. This may make it easier to rob them.</p><br><p>Things are always changing on the high seas! So, try your best to pay attention!</p><p><img src='run_exp/static/images/tutorial/contingency.png' height='500'></p><p><b>[Press the space bar to continue]</b></p></div>","32","","","","","","","","","","","","","","","","","","","","","","",""
"","instruc13","44","317535","0.0-35.0-8.0","""event"",""trial"",""time""
""fullscreenenter"",""0"",""4011""
","
","
","""event"",""trial"",""time""
""fullscreenenter"",""0"",""4011""
","
","null","run_exp/static/audio/clip_15_summary.m4a","null","","","","","<div class='center'><p>Let's go over the instructions quickly again. You have two important things to do: </p><b><p> 1. Pick the pirate who is the best at robbing ships on the current island. </p></b><b><p> 2. Remember on which island a ship was robbed.</p> </b><p>The amount of bonus money you can win depends on both.</p><p><br><p>Let’s try a practice game. The game will start by showing you the pirates. First, pick a pirate using the <b> 1, 2, 3 </b> keys on your keyboard. When you are shown a ship, try to remember which island you’re on by making up a story.</p><p>This is just a practice game, so you’re not playing for money. </p><p> Good luck! This game will be very difficult but try your best!</p></div>","","","","","","","","","","","","","","","","","",""
"","html-keyboard-response","45","318448","0.0-35.0-9.0","""event"",""trial"",""time""
""fullscreenenter"",""0"",""4011""
","
","
","""event"",""trial"",""time""
""fullscreenenter"",""0"",""4011""
","
","910.2000000476837","<div class='center'><p>Let's go over the instructions quickly again. You have two important things to do: </p><b><p> 1. Pick the pirate who is the best at robbing ships on the current island. </p></b><b><p> 2. Remember on which island a ship was robbed.</p> </b><p>The amount of bonus money you can win depends on both.</p><p><br><p>Let’s try a practice game. The game will start by showing you the pirates. First, pick a pirate using the <b> 1, 2, 3 </b> keys on your keyboard. When you are shown a ship, try to remember which island you’re on by making up a story.</p><p>This is just a practice game, so you’re not playing for money. </p><p> Good luck! This game will be very difficult but try your best!</p><p><b>[Press the space bar to continue]</b></p></div>","32","","","","","","","","","","","","","","","","","","","","","","",""
"","do_welcome","46","322462","0.0-35.0-10.0","""event"",""trial"",""time""
""fullscreenenter"",""0"",""4011""
","
","
","""event"",""trial"",""time""
""fullscreenenter"",""0"",""4011""
","
","null","","","","","","","","null","","","","","","","","","","","","","","","","",""
"","do_trial","47","329092","0.0-35.0-11.0","""event"",""trial"",""time""
""fullscreenenter"",""0"",""4011""
","
","
","""event"",""trial"",""time""
""fullscreenenter"",""0"",""4011""
","
","2109.699999988079","","","","","","","","50","1,0,0","","","","","","","","","","","","","","","",""
"","html-keyboard-response","48","330102","0.0-36.0-0.0","""event"",""trial"",""time""
""fullscreenenter"",""0"",""4011""
","
","
","""event"",""trial"",""time""
""fullscreenenter"",""0"",""4011""
","
","null","<p></p>","null","","","","","","","","","","","","","","","","","","","","","","",""
"","do_trial","49","336631","0.0-36.0-1.0","""event"",""trial"",""time""
""fullscreenenter"",""0"",""4011""
","
","
","""event"",""trial"",""time""
""fullscreenenter"",""0"",""4011""
","
","2013.3999999761581","","","","","","","","51","1,1,0","","","","","","","","","","","","","","","",""
"","html-keyboard-response","50","337645","0.0-37.0-0.0","""event"",""trial"",""time""
""fullscreenenter"",""0"",""4011""
","
","
","""event"",""trial"",""time""
""fullscreenenter"",""0"",""4011""
","
","null","<p></p>","null","","","","","","","","","","","","","","","","","","","","","","",""
"","do_trial","51","343656","0.0-37.0-1.0","""event"",""trial"",""time""
""fullscreenenter"",""0"",""4011""
","
","
","""event"",""trial"",""time""
""fullscreenenter"",""0"",""4011""
","
","1500.300000011921","","","","","","","","49","1,0,1","","","","","","","","","","","","","","","",""
"","html-keyboard-response","52","344673","0.0-38.0-0.0","""event"",""trial"",""time""
""fullscreenenter"",""0"",""4011""
","
","
","""event"",""trial"",""time""
""fullscreenenter"",""0"",""4011""
","
","null","<p></p>","null","","","","","","","","","","","","","","","","","","","","","","",""
"","do_trial","53","351438","0.0-38.0-1.0","""event"",""trial"",""time""
""fullscreenenter"",""0"",""4011""
","
","
","""event"",""trial"",""time""
""fullscreenenter"",""0"",""4011""
","
","2253.600000023842","","","","","","","","51","0,1,0","","","","","","","","","","","","","","","",""
"","html-keyboard-response","54","352454","0.0-39.0-0.0","""event"",""trial"",""time""
""fullscreenenter"",""0"",""4011""
","
","
","""event"",""trial"",""time""
""fullscreenenter"",""0"",""4011""
","
","null","<p></p>","null","","","","","","","","","","","","","","","","","","","","","","",""
"","do_trial","55","358537","0.0-39.0-1.0","""event"",""trial"",""time""
""fullscreenenter"",""0"",""4011""
","
","
","""event"",""trial"",""time""
""fullscreenenter"",""0"",""4011""
","
","1565.699999988079","","","","","","","","50","1,0,0","","","","","","","","","","","","","","","",""
"","do_bye","56","360044","0.0-40.0-0.0","""event"",""trial"",""time""
""fullscreenenter"",""0"",""4011""
","
","
","""event"",""trial"",""time""
""fullscreenenter"",""0"",""4011""
","
","null","","","","","","","","null","","","","","","","","","","","","","","","","",""
"","do_travel","57","369055","0.0-40.0-1.0","""event"",""trial"",""time""
""fullscreenenter"",""0"",""4011""
","
","
","""event"",""trial"",""time""
""fullscreenenter"",""0"",""4011""
","
","null","","","","","","","","null","","","","","","","","","","","","","","","","",""
"","do_welcome","58","373084","0.0-40.0-2.0","""event"",""trial"",""time""
""fullscreenenter"",""0"",""4011""
","
","
","""event"",""trial"",""time""
""fullscreenenter"",""0"",""4011""
","
","null","","","","","","","","null","","","","","","","","","","","","","","","","",""
"","do_trial","59","379425","0.0-40.0-3.0","""event"",""trial"",""time""
""fullscreenenter"",""0"",""4011""
","
","
","""event"",""trial"",""time""
""fullscreenenter"",""0"",""4011""
","
","1821","","","","","","","","50","1,0,0","","","","","","","","","","","","","","","",""
"","html-keyboard-response","60","380445","0.0-41.0-0.0","""event"",""trial"",""time""
""fullscreenenter"",""0"",""4011""
","
","
","""event"",""trial"",""time""
""fullscreenenter"",""0"",""4011""
","
","null","<p></p>","null","","","","","","","","","","","","","","","","","","","","","","",""
"","do_trial","61","387306","0.0-41.0-1.0","""event"",""trial"",""time""
""fullscreenenter"",""0"",""4011""
","
","
","""event"",""trial"",""time""
""fullscreenenter"",""0"",""4011""
","
","2338.2999999523163","","","","","","","","50","1,0,1","","","","","","","","","","","","","","","",""
"","html-keyboard-response","62","388321","0.0-42.0-0.0","""event"",""trial"",""time""
""fullscreenenter"",""0"",""4011""
","
","
","""event"",""trial"",""time""
""fullscreenenter"",""0"",""4011""
","
","null","<p></p>","null","","","","","","","","","","","","","","","","","","","","","","",""
"","do_trial","63","393150","0.0-42.0-1.0","""event"",""trial"",""time""
""fullscreenenter"",""0"",""4011""
","
","
","""event"",""trial"",""time""
""fullscreenenter"",""0"",""4011""
","
","306.69999998807907","","","","","","","","51","1,1,0","","","","","","","","","","","","","","","",""
"","html-keyboard-response","64","394164","0.0-43.0-0.0","""event"",""trial"",""time""
""fullscreenenter"",""0"",""4011""
","
","
","""event"",""trial"",""time""
""fullscreenenter"",""0"",""4011""
","
","null","<p></p>","null","","","","","","","","","","","","","","","","","","","","","","",""
"","do_trial","65","398982","0.0-43.0-1.0","""event"",""trial"",""time""
""fullscreenenter"",""0"",""4011""
","
","
","""event"",""trial"",""time""
""fullscreenenter"",""0"",""4011""
","
","302.5999999642372","","","","","","","","49","0,0,1","","","","","","","","","","","","","","","",""
"","html-keyboard-response","66","399997","0.0-44.0-0.0","""event"",""trial"",""time""
""fullscreenenter"",""0"",""4011""
","
","
","""event"",""trial"",""time""
""fullscreenenter"",""0"",""4011""
","
","null","<p></p>","null","","","","","","","","","","","","","","","","","","","","","","",""
"","do_trial","67","404781","0.0-44.0-1.0","""event"",""trial"",""time""
""fullscreenenter"",""0"",""4011""
","
","
","""event"",""trial"",""time""
""fullscreenenter"",""0"",""4011""
","
","271","","","","","","","","49","1,0,1","","","","","","","","","","","","","","","",""
"","html-keyboard-response","68","407020","0.0-45.0-0.0","""event"",""trial"",""time""
""fullscreenenter"",""0"",""4011""
","
","
","""event"",""trial"",""time""
""fullscreenenter"",""0"",""4011""
","
","2237.5","<div class='center'><p><img src='run_exp/static/images/tutorial/prac_best_pirate.png'  height='500'></p></div>","49","","","","","","","","","","","","","","","","","","","","","","",""
"","html-keyboard-response","69","408816","0.0-46.0-0.0","""event"",""trial"",""time""
""fullscreenenter"",""0"",""4011""
","
","
","""event"",""trial"",""time""
""fullscreenenter"",""0"",""4011""
","
","1794.5","<div class='center'><p>That's correct! Red beard was the best.</p><p><b>[Press the space bar to continue]</b></p></div>","32","","","","","","","","","","","","","","","","","","","","","","",""
"","html-keyboard-response","70","412694","0.0-46.0-1.0","""event"",""trial"",""time""
""fullscreenenter"",""0"",""4011""
","
","
","""event"",""trial"",""time""
""fullscreenenter"",""0"",""4011""
","
","3877.199999988079","<div class='center'><p><img src='run_exp/static/images/tutorial/prac_source.png'  height='500'></p></div>","50","","","","","","","","","","","","","","","","","","","","","","",""
"","html-keyboard-response","71","413784","0.0-47.0-0.0","""event"",""trial"",""time""
""fullscreenenter"",""0"",""4011""
","
","
","""event"",""trial"",""time""
""fullscreenenter"",""0"",""4011""
","
","1088.800000011921","<div class='center'><p>That's correct! You saw this ship on the cavern island.</p><p><b>[Press the space bar to continue]</b></p></div>","32","","","","","","","","","","","","","","","","","","","","","","",""
"","quiz_beginning","72","425747","0.0-47.0-1.0","""event"",""trial"",""time""
""fullscreenenter"",""0"",""4011""
","
","
","""event"",""trial"",""time""
""fullscreenenter"",""0"",""4011""
","
","null","run_exp/static/audio/clip_16_quiz_intro.m4a","null","","","","","<div class='center'><p>Good job on the practice game! Now, you will be asked some true or false questions to make sure you really understand the rules of the game.</p><p> Press <b>'1'</b> on the keyboard for true and press <b>'2'</b> for false.</p></div>","","","","","","","","","","","","","","","","","",""
"","audio-keyboard-response","73","431048","0.0-47.0-2.0","""event"",""trial"",""time""
""fullscreenenter"",""0"",""4011""
","
","
","""event"",""trial"",""time""
""fullscreenenter"",""0"",""4011""
","
","5298.600000023842","run_exp/static/audio/clip_17_q1.m4a","49","","","","","","","","","","","","","","","","","","","","","","",""
"","correct","74","433466","0.0-48.0-0.0","""event"",""trial"",""time""
""fullscreenenter"",""0"",""4011""
","
","
","""event"",""trial"",""time""
""fullscreenenter"",""0"",""4011""
","
","null","run_exp/static/audio/clip_18_correct.m4a","null","","","","","<div class='center'><p>That's correct!</p></div>","","","","","","","","","","","","","","","","","",""
"","html-keyboard-response","75","434975","0.0-48.0-1.0","""event"",""trial"",""time""
""fullscreenenter"",""0"",""4011""
","
","
","""event"",""trial"",""time""
""fullscreenenter"",""0"",""4011""
","
","1507.4000000357628","<div class='center'><p>That's correct!</p><p><b>[Press the space bar to continue]</b></p></div>","32","","","","","","","","","","","","","","","","","","","","","","",""
"","audio-keyboard-response","76","444501","0.0-48.0-2.0","""event"",""trial"",""time""
""fullscreenenter"",""0"",""4011""
","
","
","""event"",""trial"",""time""
""fullscreenenter"",""0"",""4011""
","
","9523.600000023842","run_exp/static/audio/clip_20_q2.m4a","50","","","","","","","","","","","","","","","","","","","","","","",""
"","correct","77","446884","0.0-49.0-0.0","""event"",""trial"",""time""
""fullscreenenter"",""0"",""4011""
","
","
","""event"",""trial"",""time""
""fullscreenenter"",""0"",""4011""
","
","null","run_exp/static/audio/clip_18_correct.m4a","null","","","","","<div class='center'><p>That's correct!</p></div>","","","","","","","","","","","","","","","","","",""
"","html-keyboard-response","78","447597","0.0-49.0-1.0","""event"",""trial"",""time""
""fullscreenenter"",""0"",""4011""
","
","
","""event"",""trial"",""time""
""fullscreenenter"",""0"",""4011""
","
","711.3999999761581","<div class='center'><p>That's correct!</p><p><b>[Press the space bar to continue]</b></p></div>","32","","","","","","","","","","","","","","","","","","","","","","",""
"","audio-keyboard-response","79","454064","0.0-49.0-2.0","""event"",""trial"",""time""
""fullscreenenter"",""0"",""4011""
","
","
","""event"",""trial"",""time""
""fullscreenenter"",""0"",""4011""
","
","6467.099999964237","run_exp/static/audio/clip_22_q3.m4a","50","","","","","","","","","","","","","","","","","","","","","","",""
"","correct","80","456466","0.0-50.0-0.0","""event"",""trial"",""time""
""fullscreenenter"",""0"",""4011""
","
","
","""event"",""trial"",""time""
""fullscreenenter"",""0"",""4011""
","
","null","run_exp/static/audio/clip_18_correct.m4a","null","","","","","<div class='center'><p>That's correct!</p></div>","","","","","","","","","","","","","","","","","",""
"","html-keyboard-response","81","457048","0.0-50.0-1.0","""event"",""trial"",""time""
""fullscreenenter"",""0"",""4011""
","
","
","""event"",""trial"",""time""
""fullscreenenter"",""0"",""4011""
","
","580.3000000119209","<div class='center'><p>That's correct!</p><p><b>[Press the space bar to continue]</b></p></div>","32","","","","","","","","","","","","","","","","","","","","","","",""
"","audio-keyboard-response","82","461266","0.0-50.0-2.0","""event"",""trial"",""time""
""fullscreenenter"",""0"",""4011""
","
","
","""event"",""trial"",""time""
""fullscreenenter"",""0"",""4011""
","
","4217","run_exp/static/audio/clip_24_q4.m4a","49","","","","","","","","","","","","","","","","","","","","","","",""
"","correct","83","463687","0.0-51.0-0.0","""event"",""trial"",""time""
""fullscreenenter"",""0"",""4011""
","
","
","""event"",""trial"",""time""
""fullscreenenter"",""0"",""4011""
","
","null","run_exp/static/audio/clip_18_correct.m4a","null","","","","","<div class='center'><p>That's correct!</p></div>","","","","","","","","","","","","","","","","","",""
"","html-keyboard-response","84","463991","0.0-51.0-1.0","""event"",""trial"",""time""
""fullscreenenter"",""0"",""4011""
","
","
","""event"",""trial"",""time""
""fullscreenenter"",""0"",""4011""
","
","302.69999998807907","<div class='center'><p>That's correct!</p><p><b>[Press the space bar to continue]</b></p></div>","32","","","","","","","","","","","","","","","","","","","","","","",""
"","q_all_corr","85","472467","0.0-52.0-0.0","""event"",""trial"",""time""
""fullscreenenter"",""0"",""4011""
","
","
","""event"",""trial"",""time""
""fullscreenenter"",""0"",""4011""
","
","null","run_exp/static/audio/clip_27_quiz_all_correct.m4a","null","","","","","<div class='center'><p>Good job! You’re now ready to move on to the real game! Remember this game will be difficult but don't get discouraged and try your best!</p></div>","","","","","","","","","","","","","","","","","",""
"","html-keyboard-response","86","473270","0.0-52.0-1.0","""event"",""trial"",""time""
""fullscreenenter"",""0"",""4011""
","
","
","""event"",""trial"",""time""
""fullscreenenter"",""0"",""4011""
","
","801.5","<div class='center'><p>Good job! You’re now ready to move on to the real game! Remember this game will be difficult but don't get discouraged and try your best!</p><p><b>[Press the space bar to continue]</b></p></div>","32","","","","","","","","","","","","","","","","","","","","","","",""
"","do_welcome","87","477293","0.0-53.0-0.0","""event"",""trial"",""time""
""fullscreenenter"",""0"",""4011""
","
","
","""event"",""trial"",""time""
""fullscreenenter"",""0"",""4011""
","
","null","","","","","","","","null","","","","","","","","","","","","","","","","",""
"","do_trial","88","483233","0.0-54.0-0.0","""event"",""trial"",""time""
""fullscreenenter"",""0"",""4011""
","
","
","""event"",""trial"",""time""
""fullscreenenter"",""0"",""4011""
","
","1386.1000000238419","","","","","","","","50","1,0,0","0","coast","0","probe-155","0.6","0.3","0.1","0","","","","","","","",""
"","html-keyboard-response","89","484244","0.0-54.0-1.0","""event"",""trial"",""time""
""fullscreenenter"",""0"",""4011""
","
","
","""event"",""trial"",""time""
""fullscreenenter"",""0"",""4011""
","
","null","<p></p>","null","","","","","","","","","","","","","","","","","","","","","","",""
"","do_trial","90","489336","0.0-55.0-0.0","""event"",""trial"",""time""
""fullscreenenter"",""0"",""4011""
","
","
","""event"",""trial"",""time""
""fullscreenenter"",""0"",""4011""
","
","513.9000000357628","","","","","","","","51","0,0,0","0","coast","1","probe-27","0.6338256906881936","0.33817617689340834","0.19294164989118806","0","","","","","","","",""
"","html-keyboard-response","91","490352","0.0-55.0-1.0","""event"",""trial"",""time""
""fullscreenenter"",""0"",""4011""
","
","
","""event"",""trial"",""time""
""fullscreenenter"",""0"",""4011""
","
","null","<p></p>","null","","","","","","","","","","","","","","","","","","","","","","",""
"","do_trial","92","495399","0.0-56.0-0.0","""event"",""trial"",""time""
""fullscreenenter"",""0"",""4011""
","
","
","""event"",""trial"",""time""
""fullscreenenter"",""0"",""4011""
","
","493.89999997615814","","","","","","","","49","1,1,0","0","coast","2","probe-225","0.6376522356467745","0.32663783756565656","0.17265613849783967","1","","","","","","","",""
"","html-keyboard-response","93","496414","0.0-56.0-1.0","""event"",""trial"",""time""
""fullscreenenter"",""0"",""4011""
","
","
","""event"",""trial"",""time""
""fullscreenenter"",""0"",""4011""
","
","null","<p></p>","null","","","","","","","","","","","","","","","","","","","","","","",""
"","do_trial","94","501632","0.0-57.0-0.0","""event"",""trial"",""time""
""fullscreenenter"",""0"",""4011""
","
","
","""event"",""trial"",""time""
""fullscreenenter"",""0"",""4011""
","
","669","","","","","","","","49","1,0,0","0","coast","3","probe-209","0.7534904575153121","0.3404317545042827","0.055478562035071594","1","","","","","","","",""
"","html-keyboard-response","95","502647","0.0-57.0-1.0","""event"",""trial"",""time""
""fullscreenenter"",""0"",""4011""
","
","
","""event"",""trial"",""time""
""fullscreenenter"",""0"",""4011""
","
","null","<p></p>","null","","","","","","","","","","","","","","","","","","","","","","",""
"","do_trial","96","507630","0.0-58.0-0.0","""event"",""trial"",""time""
""fullscreenenter"",""0"",""4011""
","
","
","""event"",""trial"",""time""
""fullscreenenter"",""0"",""4011""
","
","433.89999997615814","","","","","","","","49","1,1,0","0","coast","4","probe-143","0.7047994609239686","0.4281995837098392","0.15570972300387098","1","","","","","","","",""
"","html-keyboard-response","97","508646","0.0-58.0-1.0","""event"",""trial"",""time""
""fullscreenenter"",""0"",""4011""
","
","
","""event"",""trial"",""time""
""fullscreenenter"",""0"",""4011""
","
","null","<p></p>","null","","","","","","","","","","","","","","","","","","","","","","",""
"","do_trial","98","513562","0.0-59.0-0.0","""event"",""trial"",""time""
""fullscreenenter"",""0"",""4011""
","
","
","""event"",""trial"",""time""
""fullscreenenter"",""0"",""4011""
","
","367.7999999523163","","","","","","","","49","1,0,0","0","coast","5","probe-93","0.8006591969646715","0.351957568136125","0.25996109147852176","1","","","","","","","",""
"","html-keyboard-response","99","514578","0.0-59.0-1.0","""event"",""trial"",""time""
""fullscreenenter"",""0"",""4011""
","
","
","""event"",""trial"",""time""
""fullscreenenter"",""0"",""4011""
","
","null","<p></p>","null","","","","","","","","","","","","","","","","","","","","","","",""
"","do_trial","100","520160","0.0-60.0-0.0","""event"",""trial"",""time""
""fullscreenenter"",""0"",""4011""
","
","
","""event"",""trial"",""time""
""fullscreenenter"",""0"",""4011""
","
","1023.6000000238419","","","","","","","","49","1,0,0","0","coast","6","probe-56","0.9278468266496185","0.29883736352108353","0.16801065484565986","1","","","","","","","",""
"","html-keyboard-response","101","521177","0.0-60.0-1.0","""event"",""trial"",""time""
""fullscreenenter"",""0"",""4011""
","
","
","""event"",""trial"",""time""
""fullscreenenter"",""0"",""4011""
","
","null","<p></p>","null","","","","","","","","","","","","","","","","","","","","","","",""
"","do_trial","102","526975","0.0-61.0-0.0","""event"",""trial"",""time""
""fullscreenenter"",""0"",""4011""
","
","
","""event"",""trial"",""time""
""fullscreenenter"",""0"",""4011""
","
","1243.1000000238419","","","","","","","","49","1,0,0","0","coast","7","probe-89","0.729759634514714","0.24807713869668277","0.16095418810313333","1","","","","","","","",""
"","html-keyboard-response","103","527992","0.0-61.0-1.0","""event"",""trial"",""time""
""fullscreenenter"",""0"",""4011""
","
","
","""event"",""trial"",""time""
""fullscreenenter"",""0"",""4011""
","
","null","<p></p>","null","","","","","","","","","","","","","","","","","","","","","","",""
"","do_trial","104","532542","0.0-62.0-0.0","""event"",""trial"",""time""
""fullscreenenter"",""0"",""4011""
","
","
","""event"",""trial"",""time""
""fullscreenenter"",""0"",""4011""
","
","0.19999998807907104","","","","","","","","49","0,0,0","0","coast","8","probe-112","0.5016266311250999","0.13450078032011842","0.07551743183834397","0","","","","","","","",""
"","html-keyboard-response","105","533558","0.0-62.0-1.0","""event"",""trial"",""time""
""fullscreenenter"",""0"",""4011""
","
","
","""event"",""trial"",""time""
""fullscreenenter"",""0"",""4011""
","
","null","<p></p>","null","","","","","","","","","","","","","","","","","","","","","","",""
"","do_trial","106","539343","0.0-63.0-0.0","""event"",""trial"",""time""
""fullscreenenter"",""0"",""4011""
","
","
","""event"",""trial"",""time""
""fullscreenenter"",""0"",""4011""
","
","1226.5999999642372","","","","","","","","49","0,0,0","0","coast","9","probe-65","0.3357394725732702","0.20975416888054516","0.06445062096642641","0","","","","","","","",""
"","html-keyboard-response","107","540357","0.0-63.0-1.0","""event"",""trial"",""time""
""fullscreenenter"",""0"",""4011""
","
","
","""event"",""trial"",""time""
""fullscreenenter"",""0"",""4011""
","
","null","<p></p>","null","","","","","","","","","","","","","","","","","","","","","","",""
"","do_trial","108","546706","0.0-64.0-0.0","""event"",""trial"",""time""
""fullscreenenter"",""0"",""4011""
","
","
","""event"",""trial"",""time""
""fullscreenenter"",""0"",""4011""
","
","1799.2999999523163","","","","","","","","49","1,0,0","0","coast","10","probe-87","0.38093322507489363","0.3302409430274676","0.09820851086374376","1","","","","","","","",""
"","html-keyboard-response","109","547723","0.0-64.0-1.0","""event"",""trial"",""time""
""fullscreenenter"",""0"",""4011""
","
","
","""event"",""trial"",""time""
""fullscreenenter"",""0"",""4011""
","
","null","<p></p>","null","","","","","","","","","","","","","","","","","","","","","","",""
"","do_trial","110","553024","0.0-65.0-0.0","""event"",""trial"",""time""
""fullscreenenter"",""0"",""4011""
","
","
","""event"",""trial"",""time""
""fullscreenenter"",""0"",""4011""
","
","755.6000000238419","","","","","","","","49","0,0,0","0","coast","11","probe-106","0.47316896882074966","0.3136391111602557","0.05917441817640197","0","","","","","","","",""
"","html-keyboard-response","111","554037","0.0-65.0-1.0","""event"",""trial"",""time""
""fullscreenenter"",""0"",""4011""
","
","
","""event"",""trial"",""time""
""fullscreenenter"",""0"",""4011""
","
","null","<p></p>","null","","","","","","","","","","","","","","","","","","","","","","",""
"","do_trial","112","559572","0.0-66.0-0.0","""event"",""trial"",""time""
""fullscreenenter"",""0"",""4011""
","
","
","""event"",""trial"",""time""
""fullscreenenter"",""0"",""4011""
","
","989.5","","","","","","","","49","0,0,0","0","coast","12","probe-136","0.5453994214360912","0.4545862317176268","0.0676370672839958","0","","","","","","","",""
"","html-keyboard-response","113","560588","0.0-66.0-1.0","""event"",""trial"",""time""
""fullscreenenter"",""0"",""4011""
","
","
","""event"",""trial"",""time""
""fullscreenenter"",""0"",""4011""
","
","null","<p></p>","null","","","","","","","","","","","","","","","","","","","","","","",""
"","do_trial","114","565843","0.0-67.0-0.0","""event"",""trial"",""time""
""fullscreenenter"",""0"",""4011""
","
","
","""event"",""trial"",""time""
""fullscreenenter"",""0"",""4011""
","
","710.3000000119209","","","","","","","","49","1,0,0","0","coast","13","probe-156","0.5682615399785373","0.4348308871076527","0.09458521672872909","1","","","","","","","",""
"","html-keyboard-response","115","566854","0.0-67.0-1.0","""event"",""trial"",""time""
""fullscreenenter"",""0"",""4011""
","
","
","""event"",""trial"",""time""
""fullscreenenter"",""0"",""4011""
","
","null","<p></p>","null","","","","","","","","","","","","","","","","","","","","","","",""
"","do_trial","116","571686","0.0-68.0-0.0","""event"",""trial"",""time""
""fullscreenenter"",""0"",""4011""
","
","
","""event"",""trial"",""time""
""fullscreenenter"",""0"",""4011""
","
","287.30000001192093","","","","","","","","49","1,0,0","0","coast","14","probe-163","0.5668082010524168","0.2831181276568621","0.22356321495949963","1","","","","","","","",""
"","html-keyboard-response","117","572703","0.0-68.0-1.0","""event"",""trial"",""time""
""fullscreenenter"",""0"",""4011""
","
","
","""event"",""trial"",""time""
""fullscreenenter"",""0"",""4011""
","
","null","<p></p>","null","","","","","","","","","","","","","","","","","","","","","","",""
"","do_trial","118","577818","0.0-69.0-0.0","""event"",""trial"",""time""
""fullscreenenter"",""0"",""4011""
","
","
","""event"",""trial"",""time""
""fullscreenenter"",""0"",""4011""
","
","570.5","","","","","","","","49","0,0,0","0","coast","15","probe-105","0.5672615266792553","0.1601182602315209","0.16284541958714335","0","","","","","","","",""
"","html-keyboard-response","119","578834","0.0-69.0-1.0","""event"",""trial"",""time""
""fullscreenenter"",""0"",""4011""
","
","
","""event"",""trial"",""time""
""fullscreenenter"",""0"",""4011""
","
","null","<p></p>","null","","","","","","","","","","","","","","","","","","","","","","",""
"","do_trial","120","583719","0.0-70.0-0.0","""event"",""trial"",""time""
""fullscreenenter"",""0"",""4011""
","
","
","""event"",""trial"",""time""
""fullscreenenter"",""0"",""4011""
","
","335.4000000357628","","","","","","","","49","0,1,0","0","coast","16","probe-02","0.5378039118084488","0.23833940872225617","0.06342459052537422","0","","","","","","","",""
"","html-keyboard-response","121","584730","0.0-70.0-1.0","""event"",""trial"",""time""
""fullscreenenter"",""0"",""4011""
","
","
","""event"",""trial"",""time""
""fullscreenenter"",""0"",""4011""
","
","null","<p></p>","null","","","","","","","","","","","","","","","","","","","","","","",""
"","do_trial","122","589784","0.0-71.0-0.0","""event"",""trial"",""time""
""fullscreenenter"",""0"",""4011""
","
","
","""event"",""trial"",""time""
""fullscreenenter"",""0"",""4011""
","
","495.39999997615814","","","","","","","","49","1,1,0","0","coast","17","probe-53","0.6000558191464764","0.42788122177157234","0.15428492625621743","1","","","","","","","",""
"","html-keyboard-response","123","590799","0.0-71.0-1.0","""event"",""trial"",""time""
""fullscreenenter"",""0"",""4011""
","
","
","""event"",""trial"",""time""
""fullscreenenter"",""0"",""4011""
","
","null","<p></p>","null","","","","","","","","","","","","","","","","","","","","","","",""
"","do_trial","124","595982","0.0-72.0-0.0","""event"",""trial"",""time""
""fullscreenenter"",""0"",""4011""
","
","
","""event"",""trial"",""time""
""fullscreenenter"",""0"",""4011""
","
","626.4000000357628","","","","","","","","49","1,0,0","0","coast","18","probe-46","0.7235825121789804","0.17410811126681477","0.14771039355079948","1","","","","","","","",""
"","html-keyboard-response","125","596998","0.0-72.0-1.0","""event"",""trial"",""time""
""fullscreenenter"",""0"",""4011""
","
","
","""event"",""trial"",""time""
""fullscreenenter"",""0"",""4011""
","
","null","<p></p>","null","","","","","","","","","","","","","","","","","","","","","","",""
"","do_trial","126","602015","0.0-73.0-0.0","""event"",""trial"",""time""
""fullscreenenter"",""0"",""4011""
","
","
","""event"",""trial"",""time""
""fullscreenenter"",""0"",""4011""
","
","463.4000000357628","","","","","","","","49","0,0,1","0","coast","19","probe-201","0.6084559183444656","0.0654342763298235","0.14114651688011987","0","","","","","","","",""
"","html-keyboard-response","127","603031","0.0-73.0-1.0","""event"",""trial"",""time""
""fullscreenenter"",""0"",""4011""
","
","
","""event"",""trial"",""time""
""fullscreenenter"",""0"",""4011""
","
","null","<p></p>","null","","","","","","","","","","","","","","","","","","","","","","",""
"","do_trial","128","607930","0.0-74.0-0.0","""event"",""trial"",""time""
""fullscreenenter"",""0"",""4011""
","
","
","""event"",""trial"",""time""
""fullscreenenter"",""0"",""4011""
","
","342.0999999642372","","","","","","","","49","0,0,0","0","coast","20","probe-82","0.6439255905396984","0.1642312574858962","0.052892265169468766","0","","","","","","","",""
"","html-keyboard-response","129","608945","0.0-74.0-1.0","""event"",""trial"",""time""
""fullscreenenter"",""0"",""4011""
","
","
","""event"",""trial"",""time""
""fullscreenenter"",""0"",""4011""
","
","null","<p></p>","null","","","","","","","","","","","","","","","","","","","","","","",""
"","do_trial","130","613763","0.0-75.0-0.0","""event"",""trial"",""time""
""fullscreenenter"",""0"",""4011""
","
","
","""event"",""trial"",""time""
""fullscreenenter"",""0"",""4011""
","
","264.60000002384186","","","","","","","","49","1,0,0","0","coast","21","probe-200","0.6027463428489592","0.15569373408663598","0.1017453369740111","1","","","","","","","",""
"","html-keyboard-response","131","614778","0.0-75.0-1.0","""event"",""trial"",""time""
""fullscreenenter"",""0"",""4011""
","
","
","""event"",""trial"",""time""
""fullscreenenter"",""0"",""4011""
","
","null","<p></p>","null","","","","","","","","","","","","","","","","","","","","","","",""
"","do_trial","132","619908","0.0-76.0-0.0","""event"",""trial"",""time""
""fullscreenenter"",""0"",""4011""
","
","
","""event"",""trial"",""time""
""fullscreenenter"",""0"",""4011""
","
","585.3999999761581","","","","","","","","49","1,1,0","0","coast","22","probe-51","0.48294550628643435","0.2802174300303901","0.13796237116749685","1","","","","","","","",""
"","html-keyboard-response","133","620913","0.0-76.0-1.0","""event"",""trial"",""time""
""fullscreenenter"",""0"",""4011""
","
","
","""event"",""trial"",""time""
""fullscreenenter"",""0"",""4011""
","
","null","<p></p>","null","","","","","","","","","","","","","","","","","","","","","","",""
"","do_trial","134","625926","0.0-77.0-0.0","""event"",""trial"",""time""
""fullscreenenter"",""0"",""4011""
","
","
","""event"",""trial"",""time""
""fullscreenenter"",""0"",""4011""
","
","463.5999999642372","","","","","","","","49","0,0,0","0","coast","23","probe-83","0.4821221634078397","0.18073880885022603","0.11221889737953512","0","","","","","","","",""
"","html-keyboard-response","135","626937","0.0-77.0-1.0","""event"",""trial"",""time""
""fullscreenenter"",""0"",""4011""
","
","
","""event"",""trial"",""time""
""fullscreenenter"",""0"",""4011""
","
","null","<p></p>","null","","","","","","","","","","","","","","","","","","","","","","",""
"","do_trial","136","632061","0.0-78.0-0.0","""event"",""trial"",""time""
""fullscreenenter"",""0"",""4011""
","
","
","""event"",""trial"",""time""
""fullscreenenter"",""0"",""4011""
","
","555.8999999761581","","","","","","","","49","0,0,1","0","coast","24","probe-181","0.35498524724735014","0.17033951184502524","0.3506187786603725","0","","","","","","","",""
"","html-keyboard-response","137","633075","0.0-78.0-1.0","""event"",""trial"",""time""
""fullscreenenter"",""0"",""4011""
","
","
","""event"",""trial"",""time""
""fullscreenenter"",""0"",""4011""
","
","null","<p></p>","null","","","","","","","","","","","","","","","","","","","","","","",""
"","do_trial","138","637993","0.0-79.0-0.0","""event"",""trial"",""time""
""fullscreenenter"",""0"",""4011""
","
","
","""event"",""trial"",""time""
""fullscreenenter"",""0"",""4011""
","
","371.10000002384186","","","","","","","","49","0,0,1","0","coast","25","probe-55","0.5728428803694212","0.19623930188318803","0.3733074443061283","0","","","","","","","",""
"","html-keyboard-response","139","639008","0.0-79.0-1.0","""event"",""trial"",""time""
""fullscreenenter"",""0"",""4011""
","
","
","""event"",""trial"",""time""
""fullscreenenter"",""0"",""4011""
","
","null","<p></p>","null","","","","","","","","","","","","","","","","","","","","","","",""
"","do_trial","140","644125","0.0-80.0-0.0","""event"",""trial"",""time""
""fullscreenenter"",""0"",""4011""
","
","
","""event"",""trial"",""time""
""fullscreenenter"",""0"",""4011""
","
","563.0999999642372","","","","","","","","49","0,0,1","0","coast","26","probe-197","0.5481234862964203","0.26785852150340506","0.3787861066636178","0","","","","","","","",""
"","html-keyboard-response","141","645141","0.0-80.0-1.0","""event"",""trial"",""time""
""fullscreenenter"",""0"",""4011""
","
","
","""event"",""trial"",""time""
""fullscreenenter"",""0"",""4011""
","
","null","<p></p>","null","","","","","","","","","","","","","","","","","","","","","","",""
"","do_trial","142","650507","0.0-81.0-0.0","""event"",""trial"",""time""
""fullscreenenter"",""0"",""4011""
","
","
","""event"",""trial"",""time""
""fullscreenenter"",""0"",""4011""
","
","796.4000000357628","","","","","","","","49","1,0,1","0","coast","27","probe-146","0.48934135962483577","0.2986595893769408","0.42575764284941","1","","","","","","","",""
"","html-keyboard-response","143","651524","0.0-81.0-1.0","""event"",""trial"",""time""
""fullscreenenter"",""0"",""4011""
","
","
","""event"",""trial"",""time""
""fullscreenenter"",""0"",""4011""
","
","null","<p></p>","null","","","","","","","","","","","","","","","","","","","","","","",""
"","do_trial","144","656424","0.0-82.0-0.0","""event"",""trial"",""time""
""fullscreenenter"",""0"",""4011""
","
","
","""event"",""trial"",""time""
""fullscreenenter"",""0"",""4011""
","
","347.7999999523163","","","","","","","","49","0,1,0","0","coast","28","probe-134","0.5768967873130556","0.33360668958850215","0.061718026186417814","0","","","","","","","",""
"","html-keyboard-response","145","657439","0.0-82.0-1.0","""event"",""trial"",""time""
""fullscreenenter"",""0"",""4011""
","
","
","""event"",""trial"",""time""
""fullscreenenter"",""0"",""4011""
","
","null","<p></p>","null","","","","","","","","","","","","","","","","","","","","","","",""
"","do_trial","146","662415","0.0-83.0-0.0","""event"",""trial"",""time""
""fullscreenenter"",""0"",""4011""
","
","
","""event"",""trial"",""time""
""fullscreenenter"",""0"",""4011""
","
","421.30000001192093","","","","","","","","49","1,0,0","0","coast","29","probe-227","0.44490142328658333","0.32082725067296075","0.16428770317063246","1","","","","","","","",""
"","html-keyboard-response","147","663422","0.0-83.0-1.0","""event"",""trial"",""time""
""fullscreenenter"",""0"",""4011""
","
","
","""event"",""trial"",""time""
""fullscreenenter"",""0"",""4011""
","
","null","<p></p>","null","","","","","","","","","","","","","","","","","","","","","","",""
"","do_bye","148","664929","0.0-84.0-0.0","""event"",""trial"",""time""
""fullscreenenter"",""0"",""4011""
","
","
","""event"",""trial"",""time""
""fullscreenenter"",""0"",""4011""
","
","null","","","","","","","","null","","","","","","","","","","","","","","","","",""
"","break","149","677224","0.0-84.0-1.0","""event"",""trial"",""time""
""fullscreenenter"",""0"",""4011""
","
","
","""event"",""trial"",""time""
""fullscreenenter"",""0"",""4011""
","
","12293.899999976158","<div class='center'><p>Time to take a quick break! You have 2 minutes to rest, but you can move on sooner if you'd like.</p><p> Press the <b>space bar</b> to continue.</p></div>","32","","","","","","","","","","","","","","","","","","","","","","",""
"","do_travel","150","686244","0.0-85.0-0.0","""event"",""trial"",""time""
""fullscreenenter"",""0"",""4011""
","
","
","""event"",""trial"",""time""
""fullscreenenter"",""0"",""4011""
","
","null","","","","","","","","null","","","","","","","","","","","","","","","","",""
"","do_welcome","151","690264","0.0-85.0-1.0","""event"",""trial"",""time""
""fullscreenenter"",""0"",""4011""
","
","
","""event"",""trial"",""time""
""fullscreenenter"",""0"",""4011""
","
","null","","","","","","","","null","","","","","","","","","","","","","","","","",""
"","do_trial","152","696003","0.0-86.0-0.0","""event"",""trial"",""time""
""fullscreenenter"",""0"",""4011""
","
","
","""event"",""trial"",""time""
""fullscreenenter"",""0"",""4011""
","
","1184.8999999761581","","","","","","","","49","1,0,0","1","countryside","30","probe-208","1","0.4340762847531343","0.14886177174116405","1","","","","","","","",""
"","html-keyboard-response","153","697023","0.0-86.0-1.0","""event"",""trial"",""time""
""fullscreenenter"",""0"",""4011""
","
","
","""event"",""trial"",""time""
""fullscreenenter"",""0"",""4011""
","
","null","<p></p>","null","","","","","","","","","","","","","","","","","","","","","","",""
"","do_trial","154","702703","0.0-87.0-0.0","""event"",""trial"",""time""
""fullscreenenter"",""0"",""4011""
","
","
","""event"",""trial"",""time""
""fullscreenenter"",""0"",""4011""
","
","1129.0999999642372","","","","","","","","49","1,0,0","1","countryside","31","probe-139","1","0.26296857599994033","0.17646143925646982","1","","","","","","","",""
"","html-keyboard-response","155","703720","0.0-87.0-1.0","""event"",""trial"",""time""
""fullscreenenter"",""0"",""4011""
","
","
","""event"",""trial"",""time""
""fullscreenenter"",""0"",""4011""
","
","null","<p></p>","null","","","","","","","","","","","","","","","","","","","","","","",""
"","do_trial","156","708782","0.0-88.0-0.0","""event"",""trial"",""time""
""fullscreenenter"",""0"",""4011""
","
","
","""event"",""trial"",""time""
""fullscreenenter"",""0"",""4011""
","
","505.80000001192093","","","","","","","","49","1,0,0","1","countryside","32","probe-107","1","0.29039344951075263","0.27419629305521165","1","","","","","","","",""
"","html-keyboard-response","157","709796","0.0-88.0-1.0","""event"",""trial"",""time""
""fullscreenenter"",""0"",""4011""
","
","
","""event"",""trial"",""time""
""fullscreenenter"",""0"",""4011""
","
","null","<p></p>","null","","","","","","","","","","","","","","","","","","","","","","",""
"","do_trial","158","714796","0.0-89.0-0.0","""event"",""trial"",""time""
""fullscreenenter"",""0"",""4011""
","
","
","""event"",""trial"",""time""
""fullscreenenter"",""0"",""4011""
","
","451","","","","","","","","49","0,0,0","1","countryside","33","probe-21","0.7911810650310283","0.37804118142633436","0.1355025845501206","0","","","","","","","",""
"","html-keyboard-response","159","715810","0.0-89.0-1.0","""event"",""trial"",""time""
""fullscreenenter"",""0"",""4011""
","
","
","""event"",""trial"",""time""
""fullscreenenter"",""0"",""4011""
","
","null","<p></p>","null","","","","","","","","","","","","","","","","","","","","","","",""
"","do_trial","160","720933","0.0-90.0-0.0","""event"",""trial"",""time""
""fullscreenenter"",""0"",""4011""
","
","
","""event"",""trial"",""time""
""fullscreenenter"",""0"",""4011""
","
","571.6000000238419","","","","","","","","49","1,0,0","1","countryside","34","probe-34","0.7928285621644987","0.19285566821905764","0.055446902848996116","1","","","","","","","",""
"","html-keyboard-response","161","721944","0.0-90.0-1.0","""event"",""trial"",""time""
""fullscreenenter"",""0"",""4011""
","
","
","""event"",""trial"",""time""
""fullscreenenter"",""0"",""4011""
","
","null","<p></p>","null","","","","","","","","","","","","","","","","","","","","","","",""
"","do_trial","162","727095","0.0-91.0-0.0","""event"",""trial"",""time""
""fullscreenenter"",""0"",""4011""
","
","
","""event"",""trial"",""time""
""fullscreenenter"",""0"",""4011""
","
","600.8999999761581","","","","","","","","49","1,0,0","1","countryside","35","probe-186","0.7966523121007932","0.11289759928825184","0.15163767888571034","1","","","","","","","",""
"","html-keyboard-response","163","728106","0.0-91.0-1.0","""event"",""trial"",""time""
""fullscreenenter"",""0"",""4011""
","
","
","""event"",""trial"",""time""
""fullscreenenter"",""0"",""4011""
","
","null","<p></p>","null","","","","","","","","","","","","","","","","","","","","","","",""
"","do_trial","164","733110","0.0-92.0-0.0","""event"",""trial"",""time""
""fullscreenenter"",""0"",""4011""
","
","
","""event"",""trial"",""time""
""fullscreenenter"",""0"",""4011""
","
","446.80000001192093","","","","","","","","49","0,1,0","1","countryside","36","probe-37","0.7231934154113947","0.19634592117494318","0.1512602580727726","0","","","","","","","",""
"","html-keyboard-response","165","734126","0.0-92.0-1.0","""event"",""trial"",""time""
""fullscreenenter"",""0"",""4011""
","
","
","""event"",""trial"",""time""
""fullscreenenter"",""0"",""4011""
","
","null","<p></p>","null","","","","","","","","","","","","","","","","","","","","","","",""
"","do_trial","166","739075","0.0-93.0-0.0","""event"",""trial"",""time""
""fullscreenenter"",""0"",""4011""
","
","
","""event"",""trial"",""time""
""fullscreenenter"",""0"",""4011""
","
","393.5","","","","","","","","49","1,0,1","1","countryside","37","probe-73","0.6884194931523621","0.21100819279200886","0.09309105039203992","1","","","","","","","",""
"","html-keyboard-response","167","740093","0.0-93.0-1.0","""event"",""trial"",""time""
""fullscreenenter"",""0"",""4011""
","
","
","""event"",""trial"",""time""
""fullscreenenter"",""0"",""4011""
","
","null","<p></p>","null","","","","","","","","","","","","","","","","","","","","","","",""
"","do_trial","168","744996","0.0-94.0-0.0","""event"",""trial"",""time""
""fullscreenenter"",""0"",""4011""
","
","
","""event"",""trial"",""time""
""fullscreenenter"",""0"",""4011""
","
","350.2999999523163","","","","","","","","49","1,0,0","1","countryside","38","probe-31","0.6973659059452797","0.2173504591686651","0.07498106859831621","1","","","","","","","",""
"","html-keyboard-response","169","746007","0.0-94.0-1.0","""event"",""trial"",""time""
""fullscreenenter"",""0"",""4011""
","
","
","""event"",""trial"",""time""
""fullscreenenter"",""0"",""4011""
","
","null","<p></p>","null","","","","","","","","","","","","","","","","","","","","","","",""
"","do_trial","170","750952","0.0-95.0-0.0","""event"",""trial"",""time""
""fullscreenenter"",""0"",""4011""
","
","
","""event"",""trial"",""time""
""fullscreenenter"",""0"",""4011""
","
","391.69999998807907","","","","","","","","49","1,0,0","1","countryside","39","probe-210","0.7526505363468367","0.2541695111238031","0.21642486415081044","1","","","","","","","",""
"","html-keyboard-response","171","751958","0.0-95.0-1.0","""event"",""trial"",""time""
""fullscreenenter"",""0"",""4011""
","
","
","""event"",""trial"",""time""
""fullscreenenter"",""0"",""4011""
","
","null","<p></p>","null","","","","","","","","","","","","","","","","","","","","","","",""
"","do_trial","172","757372","0.0-96.0-0.0","""event"",""trial"",""time""
""fullscreenenter"",""0"",""4011""
","
","
","""event"",""trial"",""time""
""fullscreenenter"",""0"",""4011""
","
","838.5999999642372","","","","","","","","49","1,0,0","1","countryside","40","probe-69","0.8009101176098103","0.23687909935999257","0.22552135351735017","1","","","","","","","",""
"","html-keyboard-response","173","758388","0.0-96.0-1.0","""event"",""trial"",""time""
""fullscreenenter"",""0"",""4011""
","
","
","""event"",""trial"",""time""
""fullscreenenter"",""0"",""4011""
","
","null","<p></p>","null","","","","","","","","","","","","","","","","","","","","","","",""
"","do_trial","174","763878","0.0-97.0-0.0","""event"",""trial"",""time""
""fullscreenenter"",""0"",""4011""
","
","
","""event"",""trial"",""time""
""fullscreenenter"",""0"",""4011""
","
","939","","","","","","","","49","1,0,0","1","countryside","41","probe-229","0.6906911989710749","0.364580882822591","0.10757030854361699","1","","","","","","","",""
"","html-keyboard-response","175","764887","0.0-97.0-1.0","""event"",""trial"",""time""
""fullscreenenter"",""0"",""4011""
","
","
","""event"",""trial"",""time""
""fullscreenenter"",""0"",""4011""
","
","null","<p></p>","null","","","","","","","","","","","","","","","","","","","","","","",""
"","do_trial","176","769854","0.0-98.0-0.0","""event"",""trial"",""time""
""fullscreenenter"",""0"",""4011""
","
","
","""event"",""trial"",""time""
""fullscreenenter"",""0"",""4011""
","
","420.30000001192093","","","","","","","","49","0,0,1","1","countryside","42","probe-188","0.3919998830315496","0.5034937366877823","0.12001837469743006","0","","","","","","","",""
"","html-keyboard-response","177","770869","0.0-98.0-1.0","""event"",""trial"",""time""
""fullscreenenter"",""0"",""4011""
","
","
","""event"",""trial"",""time""
""fullscreenenter"",""0"",""4011""
","
","null","<p></p>","null","","","","","","","","","","","","","","","","","","","","","","",""
"","do_trial","178","775836","0.0-99.0-0.0","""event"",""trial"",""time""
""fullscreenenter"",""0"",""4011""
","
","
","""event"",""trial"",""time""
""fullscreenenter"",""0"",""4011""
","
","415.69999998807907","","","","","","","","49","0,1,0","1","countryside","43","probe-153","0.3127674837665886","0.6865151123087556","0.08398762368070532","0","","","","","","","",""
"","html-keyboard-response","179","776851","0.0-99.0-1.0","""event"",""trial"",""time""
""fullscreenenter"",""0"",""4011""
","
","
","""event"",""trial"",""time""
""fullscreenenter"",""0"",""4011""
","
","null","<p></p>","null","","","","","","","","","","","","","","","","","","","","","","",""
"","do_trial","180","781767","0.0-100.0-0.0","""event"",""trial"",""time""
""fullscreenenter"",""0"",""4011""
","
","
","""event"",""trial"",""time""
""fullscreenenter"",""0"",""4011""
","
","359.4000000357628","","","","","","","","49","0,0,0","1","countryside","44","probe-218","0.06843343140693645","0.5709994884073504","0.2233533696667994","0","","","","","","","",""
"","html-keyboard-response","181","782782","0.0-100.0-1.0","""event"",""trial"",""time""
""fullscreenenter"",""0"",""4011""
","
","
","""event"",""trial"",""time""
""fullscreenenter"",""0"",""4011""
","
","null","<p></p>","null","","","","","","","","","","","","","","","","","","","","","","",""
"","do_trial","182","787601","0.0-101.0-0.0","""event"",""trial"",""time""
""fullscreenenter"",""0"",""4011""
","
","
","""event"",""trial"",""time""
""fullscreenenter"",""0"",""4011""
","
","274.39999997615814","","","","","","","","49","0,1,1","1","countryside","45","probe-130","0.09286888374895806","0.5991745662801496","0.37096706920992","0","","","","","","","",""
"","html-keyboard-response","183","788616","0.0-101.0-1.0","""event"",""trial"",""time""
""fullscreenenter"",""0"",""4011""
","
","
","""event"",""trial"",""time""
""fullscreenenter"",""0"",""4011""
","
","null","<p></p>","null","","","","","","","","","","","","","","","","","","","","","","",""
"","do_trial","184","794717","0.0-102.0-0.0","""event"",""trial"",""time""
""fullscreenenter"",""0"",""4011""
","
","
","""event"",""trial"",""time""
""fullscreenenter"",""0"",""4011""
","
","1550.5","","","","","","","","50","0,1,0","1","countryside","46","probe-15","0.051309132485505206","0.5701366425681053","0.38507861889639927","1","","","","","","","",""
"","html-keyboard-response","185","795732","0.0-102.0-1.0","""event"",""trial"",""time""
""fullscreenenter"",""0"",""4011""
","
","
","""event"",""trial"",""time""
""fullscreenenter"",""0"",""4011""
","
","null","<p></p>","null","","","","","","","","","","","","","","","","","","","","","","",""
"","do_trial","186","800603","0.0-103.0-0.0","""event"",""trial"",""time""
""fullscreenenter"",""0"",""4011""
","
","
","""event"",""trial"",""time""
""fullscreenenter"",""0"",""4011""
","
","295.19999998807907","","","","","","","","50","0,1,0","1","countryside","47","probe-211","0.0970487209844202","0.5218688302827523","0.48449050069852034","1","","","","","","","",""
"","html-keyboard-response","187","801614","0.0-103.0-1.0","""event"",""trial"",""time""
""fullscreenenter"",""0"",""4011""
","
","
","""event"",""trial"",""time""
""fullscreenenter"",""0"",""4011""
","
","null","<p></p>","null","","","","","","","","","","","","","","","","","","","","","","",""
"","do_trial","188","806547","0.0-104.0-0.0","""event"",""trial"",""time""
""fullscreenenter"",""0"",""4011""
","
","
","""event"",""trial"",""time""
""fullscreenenter"",""0"",""4011""
","
","375.19999998807907","","","","","","","","50","0,0,0","1","countryside","48","probe-67","0.14526385350670384","0.48206500515461465","0.3047583937382751","0","","","","","","","",""
"","html-keyboard-response","189","807562","0.0-104.0-1.0","""event"",""trial"",""time""
""fullscreenenter"",""0"",""4011""
","
","
","""event"",""trial"",""time""
""fullscreenenter"",""0"",""4011""
","
","null","<p></p>","null","","","","","","","","","","","","","","","","","","","","","","",""
"","do_trial","190","812364","0.0-105.0-0.0","""event"",""trial"",""time""
""fullscreenenter"",""0"",""4011""
","
","
","""event"",""trial"",""time""
""fullscreenenter"",""0"",""4011""
","
","243.80000001192093","","","","","","","","51","0,0,0","1","countryside","49","probe-101","0.057316724093652155","0.5522380988145489","0.27337860449670126","0","","","","","","","",""
"","html-keyboard-response","191","813379","0.0-105.0-1.0","""event"",""trial"",""time""
""fullscreenenter"",""0"",""4011""
","
","
","""event"",""trial"",""time""
""fullscreenenter"",""0"",""4011""
","
","null","<p></p>","null","","","","","","","","","","","","","","","","","","","","","","",""
"","do_trial","192","818234","0.0-106.0-0.0","""event"",""trial"",""time""
""fullscreenenter"",""0"",""4011""
","
","
","""event"",""trial"",""time""
""fullscreenenter"",""0"",""4011""
","
","281.5","","","","","","","","50","0,0,0","1","countryside","50","probe-187","0.08270781811081189","0.5419974373403399","0.20175764378093422","0","","","","","","","",""
"","html-keyboard-response","193","819251","0.0-106.0-1.0","""event"",""trial"",""time""
""fullscreenenter"",""0"",""4011""
","
","
","""event"",""trial"",""time""
""fullscreenenter"",""0"",""4011""
","
","null","<p></p>","null","","","","","","","","","","","","","","","","","","","","","","",""
"","do_trial","194","824162","0.0-107.0-0.0","""event"",""trial"",""time""
""fullscreenenter"",""0"",""4011""
","
","
","""event"",""trial"",""time""
""fullscreenenter"",""0"",""4011""
","
","339.5","","","","","","","","49","0,1,0","1","countryside","51","probe-90","0.11385173639628503","0.5473395842126606","0.2121311377449411","0","","","","","","","",""
"","html-keyboard-response","195","825177","0.0-107.0-1.0","""event"",""trial"",""time""
""fullscreenenter"",""0"",""4011""
","
","
","""event"",""trial"",""time""
""fullscreenenter"",""0"",""4011""
","
","null","<p></p>","null","","","","","","","","","","","","","","","","","","","","","","",""
"","do_trial","196","830344","0.0-108.0-0.0","""event"",""trial"",""time""
""fullscreenenter"",""0"",""4011""
","
","
","""event"",""trial"",""time""
""fullscreenenter"",""0"",""4011""
","
","611.5","","","","","","","","50","0,1,0","1","countryside","52","probe-230","0.17418861483462078","0.5925683843792634","0.22145436173305702","1","","","","","","","",""
"","html-keyboard-response","197","831360","0.0-108.0-1.0","""event"",""trial"",""time""
""fullscreenenter"",""0"",""4011""
","
","
","""event"",""trial"",""time""
""fullscreenenter"",""0"",""4011""
","
","null","<p></p>","null","","","","","","","","","","","","","","","","","","","","","","",""
"","do_trial","198","836292","0.0-109.0-0.0","""event"",""trial"",""time""
""fullscreenenter"",""0"",""4011""
","
","
","""event"",""trial"",""time""
""fullscreenenter"",""0"",""4011""
","
","373.80000001192093","","","","","","","","50","0,1,0","1","countryside","53","probe-102","0.12520737651918082","0.6331056192300176","0.09589519578813979","1","","","","","","","",""
"","html-keyboard-response","199","837308","0.0-109.0-1.0","""event"",""trial"",""time""
""fullscreenenter"",""0"",""4011""
","
","
","""event"",""trial"",""time""
""fullscreenenter"",""0"",""4011""
","
","null","<p></p>","null","","","","","","","","","","","","","","","","","","","","","","",""
"","do_trial","200","842417","0.0-110.0-0.0","""event"",""trial"",""time""
""fullscreenenter"",""0"",""4011""
","
","
","""event"",""trial"",""time""
""fullscreenenter"",""0"",""4011""
","
","562","","","","","","","","50","0,1,0","1","countryside","54","probe-76","0.22262885754373593","0.678184556726781","0.1322126410438627","1","","","","","","","",""
"","html-keyboard-response","201","843425","0.0-110.0-1.0","""event"",""trial"",""time""
""fullscreenenter"",""0"",""4011""
","
","
","""event"",""trial"",""time""
""fullscreenenter"",""0"",""4011""
","
","null","<p></p>","null","","","","","","","","","","","","","","","","","","","","","","",""
"","do_trial","202","848308","0.0-111.0-0.0","""event"",""trial"",""time""
""fullscreenenter"",""0"",""4011""
","
","
","""event"",""trial"",""time""
""fullscreenenter"",""0"",""4011""
","
","337.60000002384186","","","","","","","","50","0,0,0","1","countryside","55","probe-103","0.24636930420636508","0.6472395538652238","0.13580702066353526","0","","","","","","","",""
"","html-keyboard-response","203","849323","0.0-111.0-1.0","""event"",""trial"",""time""
""fullscreenenter"",""0"",""4011""
","
","
","""event"",""trial"",""time""
""fullscreenenter"",""0"",""4011""
","
","null","<p></p>","null","","","","","","","","","","","","","","","","","","","","","","",""
"","do_trial","204","854124","0.0-112.0-0.0","""event"",""trial"",""time""
""fullscreenenter"",""0"",""4011""
","
","
","""event"",""trial"",""time""
""fullscreenenter"",""0"",""4011""
","
","248.5","","","","","","","","49","0,0,1","1","countryside","56","probe-149","0.2186695633138724","0.6061622778731532","0.058403699638009565","0","","","","","","","",""
"","html-keyboard-response","205","855139","0.0-112.0-1.0","""event"",""trial"",""time""
""fullscreenenter"",""0"",""4011""
","
","
","""event"",""trial"",""time""
""fullscreenenter"",""0"",""4011""
","
","null","<p></p>","null","","","","","","","","","","","","","","","","","","","","","","",""
"","do_trial","206","859937","0.0-113.0-0.0","""event"",""trial"",""time""
""fullscreenenter"",""0"",""4011""
","
","
","""event"",""trial"",""time""
""fullscreenenter"",""0"",""4011""
","
","238.5999999642372","","","","","","","","50","0,0,0","1","countryside","57","probe-204","0.06155869977996476","0.557616030867421","0.19139367365313104","0","","","","","","","",""
"","html-keyboard-response","207","860954","0.0-113.0-1.0","""event"",""trial"",""time""
""fullscreenenter"",""0"",""4011""
","
","
","""event"",""trial"",""time""
""fullscreenenter"",""0"",""4011""
","
","null","<p></p>","null","","","","","","","","","","","","","","","","","","","","","","",""
"","do_trial","208","866139","0.0-114.0-0.0","""event"",""trial"",""time""
""fullscreenenter"",""0"",""4011""
","
","
","""event"",""trial"",""time""
""fullscreenenter"",""0"",""4011""
","
","627.1000000238419","","","","","","","","50","0,1,1","1","countryside","58","probe-171","0.14837811769594667","0.6400417127485097","0.27299792871026923","1","","","","","","","",""
"","html-keyboard-response","209","867154","0.0-114.0-1.0","""event"",""trial"",""time""
""fullscreenenter"",""0"",""4011""
","
","
","""event"",""trial"",""time""
""fullscreenenter"",""0"",""4011""
","
","null","<p></p>","null","","","","","","","","","","","","","","","","","","","","","","",""
"","do_trial","210","872021","0.0-115.0-0.0","""event"",""trial"",""time""
""fullscreenenter"",""0"",""4011""
","
","
","""event"",""trial"",""time""
""fullscreenenter"",""0"",""4011""
","
","317.30000001192093","","","","","","","","50","0,1,1","1","countryside","59","probe-166","0.19220528836432033","0.6068606380355918","0.19915911356346044","1","","","","","","","",""
"","html-keyboard-response","211","873035","0.0-115.0-1.0","""event"",""trial"",""time""
""fullscreenenter"",""0"",""4011""
","
","
","""event"",""trial"",""time""
""fullscreenenter"",""0"",""4011""
","
","null","<p></p>","null","","","","","","","","","","","","","","","","","","","","","","",""
"","do_trial","212","877620","0.0-116.0-0.0","""event"",""trial"",""time""
""fullscreenenter"",""0"",""4011""
","
","
","""event"",""trial"",""time""
""fullscreenenter"",""0"",""4011""
","
","25.5","","","","","","","","50","0,0,0","1","countryside","60","probe-63","0.18304621802231605","0.5467310773264119","0.2242625803916559","0","","","","","","","",""
"","html-keyboard-response","213","878635","0.0-116.0-1.0","""event"",""trial"",""time""
""fullscreenenter"",""0"",""4011""
","
","
","""event"",""trial"",""time""
""fullscreenenter"",""0"",""4011""
","
","null","<p></p>","null","","","","","","","","","","","","","","","","","","","","","","",""
"","do_trial","214","883918","0.0-117.0-0.0","""event"",""trial"",""time""
""fullscreenenter"",""0"",""4011""
","
","
","""event"",""trial"",""time""
""fullscreenenter"",""0"",""4011""
","
","727.3000000119209","","","","","","","","50","0,0,0","1","countryside","61","probe-28","0.06340010498583633","0.5086834825857449","0.1703466967625881","0","","","","","","","",""
"","html-keyboard-response","215","884922","0.0-117.0-1.0","""event"",""trial"",""time""
""fullscreenenter"",""0"",""4011""
","
","
","""event"",""trial"",""time""
""fullscreenenter"",""0"",""4011""
","
","null","<p></p>","null","","","","","","","","","","","","","","","","","","","","","","",""
"","do_trial","216","889922","0.0-118.0-0.0","""event"",""trial"",""time""
""fullscreenenter"",""0"",""4011""
","
","
","""event"",""trial"",""time""
""fullscreenenter"",""0"",""4011""
","
","458.10000002384186","","","","","","","","49","0,1,0","1","countryside","62","probe-123","0.1132599134673073","0.6107354086722916","0.24442799659872577","0","","","","","","","",""
"","html-keyboard-response","217","890935","0.0-118.0-1.0","""event"",""trial"",""time""
""fullscreenenter"",""0"",""4011""
","
","
","""event"",""trial"",""time""
""fullscreenenter"",""0"",""4011""
","
","null","<p></p>","null","","","","","","","","","","","","","","","","","","","","","","",""
"","do_trial","218","895815","0.0-119.0-0.0","""event"",""trial"",""time""
""fullscreenenter"",""0"",""4011""
","
","
","""event"",""trial"",""time""
""fullscreenenter"",""0"",""4011""
","
","330.5999999642372","","","","","","","","51","0,1,1","1","countryside","63","probe-74","0.11104098328834618","0.5488636769280891","0.33247321621969905","1","","","","","","","",""
"","html-keyboard-response","219","896832","0.0-119.0-1.0","""event"",""trial"",""time""
""fullscreenenter"",""0"",""4011""
","
","
","""event"",""trial"",""time""
""fullscreenenter"",""0"",""4011""
","
","null","<p></p>","null","","","","","","","","","","","","","","","","","","","","","","",""
"","do_trial","220","902024","0.0-120.0-0.0","""event"",""trial"",""time""
""fullscreenenter"",""0"",""4011""
","
","
","""event"",""trial"",""time""
""fullscreenenter"",""0"",""4011""
","
","647.6999999880791","","","","","","","","51","0,0,0","1","countryside","64","probe-158","0.15399891946376076","0.39026636474441107","0.33150156212568843","0","","","","","","","",""
"","html-keyboard-response","221","903033","0.0-120.0-1.0","""event"",""trial"",""time""
""fullscreenenter"",""0"",""4011""
","
","
","""event"",""trial"",""time""
""fullscreenenter"",""0"",""4011""
","
","null","<p></p>","null","","","","","","","","","","","","","","","","","","","","","","",""
"","do_trial","222","907915","0.0-121.0-0.0","""event"",""trial"",""time""
""fullscreenenter"",""0"",""4011""
","
","
","""event"",""trial"",""time""
""fullscreenenter"",""0"",""4011""
","
","324.0999999642372","","","","","","","","50","0,0,1","1","countryside","65","probe-128","0.10663535545681148","0.6773757335267178","0.17089325007654438","0","","","","","","","",""
"","html-keyboard-response","223","908931","0.0-121.0-1.0","""event"",""trial"",""time""
""fullscreenenter"",""0"",""4011""
","
","
","""event"",""trial"",""time""
""fullscreenenter"",""0"",""4011""
","
","null","<p></p>","null","","","","","","","","","","","","","","","","","","","","","","",""
"","do_trial","224","914315","0.0-122.0-0.0","""event"",""trial"",""time""
""fullscreenenter"",""0"",""4011""
","
","
","""event"",""trial"",""time""
""fullscreenenter"",""0"",""4011""
","
","839.1999999880791","","","","","","","","49","0,1,1","1","countryside","66","probe-129","0.13459012373648324","0.6840255244830497","0.140108458094264","0","","","","","","","",""
"","html-keyboard-response","225","915330","0.0-122.0-1.0","""event"",""trial"",""time""
""fullscreenenter"",""0"",""4011""
","
","
","""event"",""trial"",""time""
""fullscreenenter"",""0"",""4011""
","
","null","<p></p>","null","","","","","","","","","","","","","","","","","","","","","","",""
"","do_trial","226","920783","0.0-123.0-0.0","""event"",""trial"",""time""
""fullscreenenter"",""0"",""4011""
","
","
","""event"",""trial"",""time""
""fullscreenenter"",""0"",""4011""
","
","899.8999999761581","","","","","","","","51","1,1,1","1","countryside","67","probe-190","0.1100163268847894","0.6957227570337421","0.19034857427090568","1","","","","","","","",""
"","html-keyboard-response","227","921794","0.0-123.0-1.0","""event"",""trial"",""time""
""fullscreenenter"",""0"",""4011""
","
","
","""event"",""trial"",""time""
""fullscreenenter"",""0"",""4011""
","
","null","<p></p>","null","","","","","","","","","","","","","","","","","","","","","","",""
"","do_trial","228","926662","0.0-124.0-0.0","""event"",""trial"",""time""
""fullscreenenter"",""0"",""4011""
","
","
","""event"",""trial"",""time""
""fullscreenenter"",""0"",""4011""
","
","307","","","","","","","","51","0,1,0","1","countryside","68","probe-142","0.07702768328444258","0.7552324807089887","0.3244402182791475","0","","","","","","","",""
"","html-keyboard-response","229","927678","0.0-124.0-1.0","""event"",""trial"",""time""
""fullscreenenter"",""0"",""4011""
","
","
","""event"",""trial"",""time""
""fullscreenenter"",""0"",""4011""
","
","null","<p></p>","null","","","","","","","","","","","","","","","","","","","","","","",""
"","do_trial","230","932560","0.0-125.0-0.0","""event"",""trial"",""time""
""fullscreenenter"",""0"",""4011""
","
","
","""event"",""trial"",""time""
""fullscreenenter"",""0"",""4011""
","
","325.19999998807907","","","","","","","","50","0,1,1","1","countryside","69","probe-140","0.053591639447910976","0.7932852447191556","0.2654721362519532","1","","","","","","","",""
"","html-keyboard-response","231","933577","0.0-125.0-1.0","""event"",""trial"",""time""
""fullscreenenter"",""0"",""4011""
","
","
","""event"",""trial"",""time""
""fullscreenenter"",""0"",""4011""
","
","null","<p></p>","null","","","","","","","","","","","","","","","","","","","","","","",""
"","do_bye","232","935094","0.0-126.0-0.0","""event"",""trial"",""time""
""fullscreenenter"",""0"",""4011""
","
","
","""event"",""trial"",""time""
""fullscreenenter"",""0"",""4011""
","
","null","","","","","","","","null","","","","","","","","","","","","","","","","",""
"","break","233","983951","0.0-126.0-1.0","""event"",""trial"",""time""
""fullscreenenter"",""0"",""4011""
","
","
","""event"",""trial"",""time""
""fullscreenenter"",""0"",""4011""
","
","48854.69999998808","<div class='center'><p>Time to take a quick break! You have 2 minutes to rest, but you can move on sooner if you'd like.</p><p> Press the <b>space bar</b> to continue.</p></div>","32","","","","","","","","","","","","","","","","","","","","","","",""
"","do_travel","234","992962","0.0-127.0-0.0","""event"",""trial"",""time""
""fullscreenenter"",""0"",""4011""
","
","
","""event"",""trial"",""time""
""fullscreenenter"",""0"",""4011""
","
","null","","","","","","","","null","","","","","","","","","","","","","","","","",""
"","do_welcome","235","996972","0.0-127.0-1.0","""event"",""trial"",""time""
""fullscreenenter"",""0"",""4011""
","
","
","""event"",""trial"",""time""
""fullscreenenter"",""0"",""4011""
","
","null","","","","","","","","null","","","","","","","","","","","","","","","","",""
"","do_trial","236","1002522","0.0-128.0-0.0","""event"",""trial"",""time""
""fullscreenenter"",""0"",""4011""
","
","
","""event"",""trial"",""time""
""fullscreenenter"",""0"",""4011""
","
","978.5999999642372","","","","","","","","49","0,1,1","2","city","70","probe-70","0.06652506076956718","1","0.27922396308059116","0","","","","","","","",""
"","html-keyboard-response","237","1003542","0.0-128.0-1.0","""event"",""trial"",""time""
""fullscreenenter"",""0"",""4011""
","
","
","""event"",""trial"",""time""
""fullscreenenter"",""0"",""4011""
","
","null","<p></p>","null","","","","","","","","","","","","","","","","","","","","","","",""
"","do_trial","238","1008716","0.0-129.0-0.0","""event"",""trial"",""time""
""fullscreenenter"",""0"",""4011""
","
","
","""event"",""trial"",""time""
""fullscreenenter"",""0"",""4011""
","
","618.4000000357628","","","","","","","","50","0,1,1","2","city","71","probe-133","0.051581967309792545","1","0.33536917289892765","1","","","","","","","",""
"","html-keyboard-response","239","1009732","0.0-129.0-1.0","""event"",""trial"",""time""
""fullscreenenter"",""0"",""4011""
","
","
","""event"",""trial"",""time""
""fullscreenenter"",""0"",""4011""
","
","null","<p></p>","null","","","","","","","","","","","","","","","","","","","","","","",""
"","do_trial","240","1014864","0.0-130.0-0.0","""event"",""trial"",""time""
""fullscreenenter"",""0"",""4011""
","
","
","""event"",""trial"",""time""
""fullscreenenter"",""0"",""4011""
","
","583.3000000119209","","","","","","","","50","0,1,0","2","city","72","probe-07","0.11264893321231341","0.7000774575997963","0.34799582319425887","1","","","","","","","",""
"","html-keyboard-response","241","1015880","0.0-130.0-1.0","""event"",""trial"",""time""
""fullscreenenter"",""0"",""4011""
","
","
","""event"",""trial"",""time""
""fullscreenenter"",""0"",""4011""
","
","null","<p></p>","null","","","","","","","","","","","","","","","","","","","","","","",""
"","do_trial","242","1020797","0.0-131.0-0.0","""event"",""trial"",""time""
""fullscreenenter"",""0"",""4011""
","
","
","""event"",""trial"",""time""
""fullscreenenter"",""0"",""4011""
","
","366.5","","","","","","","","50","0,1,0","2","city","73","probe-161","0.0775947699619529","0.6042362478789086","0.2787042671570021","1","","","","","","","",""
"","html-keyboard-response","243","1021813","0.0-131.0-1.0","""event"",""trial"",""time""
""fullscreenenter"",""0"",""4011""
","
","
","""event"",""trial"",""time""
""fullscreenenter"",""0"",""4011""
","
","null","<p></p>","null","","","","","","","","","","","","","","","","","","","","","","",""
"","do_trial","244","1026679","0.0-132.0-0.0","""event"",""trial"",""time""
""fullscreenenter"",""0"",""4011""
","
","
","""event"",""trial"",""time""
""fullscreenenter"",""0"",""4011""
","
","309.5","","","","","","","","50","0,1,0","2","city","74","probe-92","0.09502303545053786","0.6580284825666047","0.2709091302623317","1","","","","","","","",""
"","html-keyboard-response","245","1027695","0.0-132.0-1.0","""event"",""trial"",""time""
""fullscreenenter"",""0"",""4011""
","
","
","""event"",""trial"",""time""
""fullscreenenter"",""0"",""4011""
","
","null","<p></p>","null","","","","","","","","","","","","","","","","","","","","","","",""
"","do_trial","246","1032747","0.0-133.0-0.0","""event"",""trial"",""time""
""fullscreenenter"",""0"",""4011""
","
","
","""event"",""trial"",""time""
""fullscreenenter"",""0"",""4011""
","
","509.4000000357628","","","","","","","","50","0,1,0","2","city","75","probe-100","0.11778764392305469","0.6051820286230608","0.22223256151951754","1","","","","","","","",""
"","html-keyboard-response","247","1033761","0.0-133.0-1.0","""event"",""trial"",""time""
""fullscreenenter"",""0"",""4011""
","
","
","""event"",""trial"",""time""
""fullscreenenter"",""0"",""4011""
","
","null","<p></p>","null","","","","","","","","","","","","","","","","","","","","","","",""
"","do_trial","248","1038794","0.0-134.0-0.0","""event"",""trial"",""time""
""fullscreenenter"",""0"",""4011""
","
","
","""event"",""trial"",""time""
""fullscreenenter"",""0"",""4011""
","
","481.5","","","","","","","","50","0,0,0","2","city","76","probe-114","0.09709968819577362","0.5527587379091259","0.24485861556906113","0","","","","","","","",""
"","html-keyboard-response","249","1039809","0.0-134.0-1.0","""event"",""trial"",""time""
""fullscreenenter"",""0"",""4011""
","
","
","""event"",""trial"",""time""
""fullscreenenter"",""0"",""4011""
","
","null","<p></p>","null","","","","","","","","","","","","","","","","","","","","","","",""
"","do_trial","250","1044979","0.0-135.0-0.0","""event"",""trial"",""time""
""fullscreenenter"",""0"",""4011""
","
","
","""event"",""trial"",""time""
""fullscreenenter"",""0"",""4011""
","
","621.3999999761581","","","","","","","","50","0,1,0","2","city","77","probe-36","0.059778989432718976","0.5768357891382615","0.3327271415530313","1","","","","","","","",""
"","html-keyboard-response","251","1045992","0.0-135.0-1.0","""event"",""trial"",""time""
""fullscreenenter"",""0"",""4011""
","
","
","""event"",""trial"",""time""
""fullscreenenter"",""0"",""4011""
","
","null","<p></p>","null","","","","","","","","","","","","","","","","","","","","","","",""
"","do_trial","252","1051474","0.0-136.0-0.0","""event"",""trial"",""time""
""fullscreenenter"",""0"",""4011""
","
","
","""event"",""trial"",""time""
""fullscreenenter"",""0"",""4011""
","
","929.7000000476837","","","","","","","","50","0,1,1","2","city","78","probe-205","0.06065124769379852","0.5825554124000013","0.32167549415345803","1","","","","","","","",""
"","html-keyboard-response","253","1052489","0.0-136.0-1.0","""event"",""trial"",""time""
""fullscreenenter"",""0"",""4011""
","
","
","""event"",""trial"",""time""
""fullscreenenter"",""0"",""4011""
","
","null","<p></p>","null","","","","","","","","","","","","","","","","","","","","","","",""
"","do_trial","254","1057457","0.0-137.0-0.0","""event"",""trial"",""time""
""fullscreenenter"",""0"",""4011""
","
","
","""event"",""trial"",""time""
""fullscreenenter"",""0"",""4011""
","
","422.69999998807907","","","","","","","","50","0,1,0","2","city","79","probe-145","0.13742069480118063","0.5971188482153301","0.18546589785478537","1","","","","","","","",""
"","html-keyboard-response","255","1058472","0.0-137.0-1.0","""event"",""trial"",""time""
""fullscreenenter"",""0"",""4011""
","
","
","""event"",""trial"",""time""
""fullscreenenter"",""0"",""4011""
","
","null","<p></p>","null","","","","","","","","","","","","","","","","","","","","","","",""
"","do_trial","256","1063556","0.0-138.0-0.0","""event"",""trial"",""time""
""fullscreenenter"",""0"",""4011""
","
","
","""event"",""trial"",""time""
""fullscreenenter"",""0"",""4011""
","
","534.6999999880791","","","","","","","","50","0,1,1","2","city","80","probe-122","0.07866433246467544","0.7248092297687534","0.1652886463446745","1","","","","","","","",""
"","html-keyboard-response","257","1064572","0.0-138.0-1.0","""event"",""trial"",""time""
""fullscreenenter"",""0"",""4011""
","
","
","""event"",""trial"",""time""
""fullscreenenter"",""0"",""4011""
","
","null","<p></p>","null","","","","","","","","","","","","","","","","","","","","","","",""
"","do_trial","258","1069705","0.0-139.0-0.0","""event"",""trial"",""time""
""fullscreenenter"",""0"",""4011""
","
","
","""event"",""trial"",""time""
""fullscreenenter"",""0"",""4011""
","
","558.8000000119209","","","","","","","","50","0,1,0","2","city","81","probe-198","0.07934780421101087","0.6373472692234995","0.0950936148072325","1","","","","","","","",""
"","html-keyboard-response","259","1070721","0.0-139.0-1.0","""event"",""trial"",""time""
""fullscreenenter"",""0"",""4011""
","
","
","""event"",""trial"",""time""
""fullscreenenter"",""0"",""4011""
","
","null","<p></p>","null","","","","","","","","","","","","","","","","","","","","","","",""
"","do_trial","260","1075588","0.0-140.0-0.0","""event"",""trial"",""time""
""fullscreenenter"",""0"",""4011""
","
","
","""event"",""trial"",""time""
""fullscreenenter"",""0"",""4011""
","
","304.60000002384186","","","","","","","","50","0,0,0","2","city","82","probe-126","0.34478402336076736","0.471590390810454","0.08123586840563807","0","","","","","","","",""
"","html-keyboard-response","261","1076600","0.0-140.0-1.0","""event"",""trial"",""time""
