"success","trial_type","trial_index","time_elapsed","internal_node_id","rt","stimulus","key_press","subject_id","response","choice_outcomes","context_n","context_img_id","trial_n","probe_img_id","pR_red","pR_white","pR_black","outcome","is_valid","image_to_show","probed_trial","probed_context","correct","context_id"
"true","fullscreen","0","5028","0.0-0.0","","","","","","","","","","","","","","","","","","","",""
"","pavlovia","1","5034","0.0-1.0","","","","","","","","","","","","","","","","","","","",""
"","html-keyboard-response","2","33400","0.0-2.0","28362.699999809265","<div class='center'><p>Welcome! This experiment will last ~1 hour. In this experiment, you are the head captain of a pirate ship traveling around the world to different places. You will complete several different tasks during this experiment. Here is an overview of these tasks:</p><br><p>1. Tutorial and quiz</p><p>2. Pick a pirate game in 6 different places</p><p>3. Pick a pirate game and memory game</p><p>4. Final questions and payment</p><br><p>If you complete the entire experiment, you will receive $15 and a possible bonus payment.</p><p><b>[Press the space bar to begin the tutorial]</b></p></div>","32","61082667d375562d4a6ddad1","","","","","","","","","","","","","","","",""
"","html-keyboard-response","3","44989","0.0-3.0","11587.400000095367","<div class='center'><p>You are the head captain of a pirate ship.</p><p> Your pirates rob other ships as they leave the marketplace port.</p> These ships have just sold all their goods at the marketplace, so they have lots and lots of gold on them.</p><p><img src='run_exp/static/images/ship_center.png' height='400'></p><p><b>[Press the space bar to continue]</b></p></div>","32","","","","","","","","","","","","","","","","",""
"","html-keyboard-response","4","58009","0.0-4.0","13018.099999904633","<div class='center'><p>As the head captain, you do not have to rob any ships yourself.</p><p>You get to choose which pirate you want to rob the next ship. </p><p>If they are successful at robbing the ship, then you will get gold coins.</p><p> If they are not successful, then you will get no gold coins.</p><p> The more coins you collect, the more bonus money you will win. So, choose your pirate wisely.</p><p><img src='run_exp/static/images/goal.png' height='400'></p><p><b>[Press the space bar to continue]</b></p><div>","32","","","","","","","","","","","","","","","","",""
"","html-keyboard-response","5","71206","0.0-5.0","13195.199999809265","<div class='center'><p>Even the most skilled pirate will not be able to rob EVERY ship.</p><p> Some ships will have very strong defenses against attacks.</p><p> For example, blue beard, here,  is very good at robbing ships.</p><p> You can press the <b>‘1’</b> button on the keyboard to choose him.</p><p> Try choosing him 10 times to see how often he is successful at robbing ships. </p><p><img src='run_exp/static/images/blue.png' height='500'></p></div>","49","","","","","","","","","","","","","","","","",""
"","html-keyboard-response","6","72710","0.0-6.0","null","<br><br><br><br><p><img src='run_exp/static/images/blue_win.png' height='500'></p>","null","","","","","","","","","","","","","","","","",""
"","html-keyboard-response","7","72906","0.0-7.0","193.2000002861023","<br><br><br><br><p><img src='run_exp/static/images/blue.png' height='500'></p>","49","","","","","","","","","","","","","","","","",""
"","html-keyboard-response","8","74409","0.0-8.0","null","<br><br><br><br><p><img src='run_exp/static/images/blue_win.png' height='500'></p>","null","","","","","","","","","","","","","","","","",""
"","html-keyboard-response","9","74579","0.0-9.0","167.09999990463257","<br><br><br><br><p><img src='run_exp/static/images/blue.png' height='500'></p>","49","","","","","","","","","","","","","","","","",""
"","html-keyboard-response","10","76083","0.0-10.0","null","<br><br><br><br><p><img src='run_exp/static/images/blue_win.png' height='500'></p>","null","","","","","","","","","","","","","","","","",""
"","html-keyboard-response","11","76696","0.0-11.0","609.4000000953674","<br><br><br><br><p><img src='run_exp/static/images/blue.png' height='500'></p>","49","","","","","","","","","","","","","","","","",""
"","html-keyboard-response","12","78198","0.0-12.0","null","<br><br><br><br><p><img src='run_exp/static/images/blue_no_win.png' height='500'></p>","null","","","","","","","","","","","","","","","","",""
"","html-keyboard-response","13","78772","0.0-13.0","571.5999999046326","<br><br><br><br><p><img src='run_exp/static/images/blue.png' height='500'></p>","49","","","","","","","","","","","","","","","","",""
"","html-keyboard-response","14","80275","0.0-14.0","null","<br><br><br><br><p><img src='run_exp/static/images/blue_win.png' height='500'></p>","null","","","","","","","","","","","","","","","","",""
"","html-keyboard-response","15","80857","0.0-15.0","579.3000001907349","<br><br><br><br><p><img src='run_exp/static/images/blue.png' height='500'></p>","49","","","","","","","","","","","","","","","","",""
"","html-keyboard-response","16","82359","0.0-16.0","null","<br><br><br><br><p><img src='run_exp/static/images/blue_win.png' height='500'></p>","null","","","","","","","","","","","","","","","","",""
"","html-keyboard-response","17","82575","0.0-17.0","213.5","<br><br><br><br><p><img src='run_exp/static/images/blue.png' height='500'></p>","49","","","","","","","","","","","","","","","","",""
"","html-keyboard-response","18","84078","0.0-18.0","null","<br><br><br><br><p><img src='run_exp/static/images/blue_win.png' height='500'></p>","null","","","","","","","","","","","","","","","","",""
"","html-keyboard-response","19","84367","0.0-19.0","285.90000009536743","<br><br><br><br><p><img src='run_exp/static/images/blue.png' height='500'></p>","49","","","","","","","","","","","","","","","","",""
"","html-keyboard-response","20","85870","0.0-20.0","null","<br><br><br><br><p><img src='run_exp/static/images/blue_no_win.png' height='500'></p>","null","","","","","","","","","","","","","","","","",""
"","html-keyboard-response","21","86117","0.0-21.0","244.80000019073486","<br><br><br><br><p><img src='run_exp/static/images/blue.png' height='500'></p>","49","","","","","","","","","","","","","","","","",""
"","html-keyboard-response","22","87619","0.0-22.0","null","<br><br><br><br><p><img src='run_exp/static/images/blue_win.png' height='500'></p>","null","","","","","","","","","","","","","","","","",""
"","html-keyboard-response","23","87902","0.0-23.0","280.80000019073486","<br><br><br><br><p><img src='run_exp/static/images/blue.png' height='500'></p>","49","","","","","","","","","","","","","","","","",""
"","html-keyboard-response","24","89404","0.0-24.0","null","<br><br><br><br><p><img src='run_exp/static/images/blue_win.png' height='500'></p>","null","","","","","","","","","","","","","","","","",""
"","html-keyboard-response","25","91759","0.0-25.0","2353.199999809265","<div class='center'><p> See, he was successful at robbing the ships most of the time but not every time. </p><p><b>[Press the space bar to continue]</b></p></div>","32","","","","","","","","","","","","","","","","",""
"","html-keyboard-response","26","104663","0.0-26.0","12901.599999904633","<div class='center'><p>In the game, you will get to choose which of three pirates you want to rob the next ship. <p>Press the <b>‘1’</b> button on your keyboard to pick the pirate with the red beard.</p><p> Press <b>‘2’</b> to pick the pirate with the white beard.</p><p> Press <b>‘3’</b> to pick the pirate with the black beard.</p><p>Try picking a pirate now!</p><p><img src='run_exp/static/images/all_pirates.png' height='500'></p></div>","49","","","","","","","","","","","","","","","","",""
"","html-keyboard-response","27","106998","0.0-27.0-0.0","2330.800000190735","<div class='center'><p>This pirate was successful at robbing the ship!</p><p><img src='run_exp/static/images/red_win.png' height='500'></p><p><b>[Press the space bar to continue]</b></p></div>","32","","","","","","","","","","","","","","","","",""
"","html-keyboard-response","28","108893","0.0-27.0-1.0","1892.4000000953674","<div class='center'><p>Now try choosing another</p><p><img src='run_exp/static/images/all_pirates.png' height='500'></p></div>","51","","","","","","","","","","","","","","","","",""
"","html-keyboard-response","29","110639","0.0-28.0-0.0","1742.9000000953674","<div class='center'><p>This pirate was not successful at robbing the ship!</p><p><img src='run_exp/static/images/black_no_win.png' height='500'></p><p><b>[Press the space bar to continue]</b></p></div>","32","","","","","","","","","","","","","","","","",""
"","html-keyboard-response","30","113126","0.0-29.0-0.0","2484.5999999046326","<div class='center'><p>You’ll stop at these 6 places on your journey.</p><p><img src='run_exp/static/images/all_contexts.png' height='500'></p><p><b>[Press the space bar to continue]</b></p></div>","32","","","","","","","","","","","","","","","","",""
"","html-keyboard-response","31","120112","0.0-29.0-1.0","6983.900000095367","<div class='center'><p>How good a pirate is at robbing ships will depend on the current place.</p><p> Some pirates will have been to the place before, and will have more experience robbing ships there.</p><p>So, they will be more successful at stealing gold and bringing it back to you.</p><p><b>[Press the space bar to continue]</b></p></div>","32","","","","","","","","","","","","","","","","",""
"","html-keyboard-response","32","133181","0.0-29.0-2.0","13066.299999713898","<div class='center'><p>How successful a pirate is at robbing ships can also change in a place.<p> Ships may hear about the pirates coming and will improve their defenses. This may make it more difficult to rob them.</p><p> Ships may also grow lazy and lower their defenses. This may make it easier to rob them.</p><br><p>Things are always changing on the high seas! So, try your best to pay attention!</p><p><img src='run_exp/static/images/contingency.png' height='500'></p><p><b>[Press the space bar to continue]</b></p></div>","32","","","","","","","","","","","","","","","","",""
"","html-keyboard-response","33","167860","0.0-29.0-3.0","34676.5","<div class='center'><p>Once you choose a pirate to rob a ship, you’ll be shown the ship they are robbing.</p><p>The ship will have a picture of the item they sold at the marketplace.</p><p> Try your best to remember the ship and where you saw the ship.</p><p> You’ll have to remember this for later, and remembering this correctly will help you win more bonus money!</p><p>You can remember the ship by remembering the item they sold at the marketplace</p><p>A helpful strategy is to try to come up with a story of the chosen pirate and ship’s item interacting with the scene.</p><p> For example, a ship might have sold travel mugs and you could imagine red beard walking through the city with a travel mug. </p><p>Or imagine an apple falling from a tree into white beard's hands in the forest.</p><p><img src='run_exp/static/images/example_probe.png' height='500'></p><p><b>[Press the space bar to continue]</b></p></div>","32","","","","","","","","","","","","","","","","",""
"","html-keyboard-response","34","174791","0.0-29.0-4.0","6928.5","<div class='center'><p>If you don’t make your choice fast enough, you’ll have to wait a few seconds before you can make another one. </p><p>You can’t win more gold. You just have to sit and wait.</p><p><img src='run_exp/static/images/hurry_up.png' height='500'></p><p><b>[Press the space bar to continue]</b></p></div>","32","","","","","","","","","","","","","","","","",""
"","html-keyboard-response","35","200114","0.0-29.0-5.0","25321.400000095367","<div class='center'><p>Again, you have two important things to do: </p><b><p> 1. Pick the pirate who you think will be most successful at robbing the next ship.</p></b><b><p> 2. Remember where a pirate robbed a ship.</p> </b><p>Both are important in determining how much bonus money you’ll win.</p><br><p>Let’s try a practice game. The game will start by showing you the pirates. First pick a pirate using the <b> 1, 2, 3 </b> buttons on your keyboard. When you are shown a ship, try to remember the place you’re in by making up a story.</p><p> You only have 3 seconds to pick a pirate, so please make a choice quickly! If you are too slow, you’ll have to wait a bit during the time out.</p><p> Don’t feel rushed, but please do try to make a choice every time.</p><p>How good a pirate is at robbing a ship will change depending on the place they are in and how good the defenses are of the ship.</p> <p>This is just a practice game, so you’re not playing for money. </p><p>You’ll receive a bag which may or may not contain gold coins.</p><p> In the real game, though, you’ll be able to see whether or not you received the gold coins.</p><p> Good luck, remember press <b>'1'</b> to choose red beard, <b>'2'</b> to choose white beard, and <b>'3'</b> to choose black beard</p><p><b>[Press the space bar to begin the practice game]</b></p></div>","32","","","","","","","","","","","","","","","","",""
"","do_trial_prac","36","205400","0.0-29.0-6.0","769.2000002861023","","","","50","","","","","","","","","","","","","","",""
"","do_trial_prac","37","210475","0.0-29.0-7.0","564.1999998092651","","","","50","","","","","","","","","","","","","","",""
"","do_trial_prac","38","215407","0.0-29.0-8.0","421.7999997138977","","","","51","","","","","","","","","","","","","","",""
"","do_trial_prac","39","220512","0.0-29.0-9.0","594.0999999046326","","","","49","","","","","","","","","","","","","","",""
"","do_trial_prac","40","225510","0.0-29.0-10.0","486.7000002861023","","","","50","","","","","","","","","","","","","","",""
"","html-keyboard-response","41","232376","0.0-29.0-11.0","6862.300000190735","<div class='center'><p>Great job on the practice game!</p><p> Now, you will be asked you some true or false questions to make sure you really understand the rules of the game.</p><p> Press <b>'1'</b> on the keyboard for true and press <b>'2'</b> for false.</p><p><b>[Press the space bar to begin the quiz]</b></p></div>","32","","","","","","","","","","","","","","","","",""
"","html-keyboard-response","42","241859","0.0-29.0-12.0","9481.699999809265","<div class='center'><p>You win bonus money by making choices as fast as possible.</p><p>Press 1 for true and press  2 for false.</p></div>","49","","","","","","","","","","","","","","","","",""
"","html-keyboard-response","43","248566","0.0-30.0-0.0","6703.599999904633","<br><br><br><br><p>That’s incorrect! You win bonus money by collecting as many gold coins as possible!</p><p><b>[press the space bar to continue with the quiz]</b></p>","32","","","","","","","","","","","","","","","","",""
"","html-keyboard-response","44","253486","0.0-30.0-1.0","4917.699999809265","<div class='center'><p>You press the <b>‘3’</b> button on the keyboard to choose the red bearded pirate? </p><p>Press 1 for true and press  2 for false.</p></div>","50","","","","","","","","","","","","","","","","",""
"","html-keyboard-response","45","254651","0.0-31.0-0.0","1163.0999999046326","<br><br><br><br><p>That's correct!</p> <p><b>[press the space bar to continue with the quiz]</b></p>","32","","","","","","","","","","","","","","","","",""
"","html-keyboard-response","46","257939","0.0-31.0-1.0","3286.1000003814697","<div class='center'><p>A pirate will always be equally successful at robbing ships in each place</p><p>Press 1 for true and press  2 for false.</p></div>","50","","","","","","","","","","","","","","","","",""
"","html-keyboard-response","47","258460","0.0-32.0-0.0","519","<br><br><br><br><p>That's correct!</p> <p><b>[press the space bar to continue with the quiz]</b></p>","32","","","","","","","","","","","","","","","","",""
"","html-keyboard-response","48","260664","0.0-32.0-1.0","2202.199999809265","<div class='center'><p>You should remember the place where a pirate robbed a ship.</p><p>Press 1 for true and press  2 for false.</p></div>","49","","","","","","","","","","","","","","","","",""
"","html-keyboard-response","49","261364","0.0-33.0-0.0","695.5","<br><br><br><br><p>That's correct!</p> <p><b>[press the space bar to continue with the quiz]</b></p>","32","","","","","","","","","","","","","","","","",""
"","html-keyboard-response","50","266101","0.0-34.0-0.0","4733.800000190735","<br><br><br><br><p>Oops, you missed some questions. Now that you’ve heard the correct answers. Try the quiz again! If you fail the quiz too many times, you won’t be able to do the experiment. </p> <p><br>[press the space bar to repeat the quiz]</br></p>","32","","","","","","","","","","","","","","","","",""
"","html-keyboard-response","51","267771","0.0-34.0-1.0","1668.7999997138977","<div class='center'><p>You win bonus money by making choices as fast as possible.</p><p>Press 1 for true and press  2 for false.</p></div>","50","","","","","","","","","","","","","","","","",""
"","html-keyboard-response","52","268316","0.0-35.0-0.0","541.2000002861023","<br><br><br><br><p>That's correct!</p> <p><b>[press the space bar to continue with the quiz]</b></p>","32","","","","","","","","","","","","","","","","",""
"","html-keyboard-response","53","270571","0.0-35.0-1.0","2253.7999997138977","<div class='center'><p>You press the <b>‘3’</b> button on the keyboard to choose the red bearded pirate? </p><p>Press 1 for true and press  2 for false.</p></div>","50","","","","","","","","","","","","","","","","",""
"","html-keyboard-response","54","271042","0.0-36.0-0.0","468.80000019073486","<br><br><br><br><p>That's correct!</p> <p><b>[press the space bar to continue with the quiz]</b></p>","32","","","","","","","","","","","","","","","","",""
"","html-keyboard-response","55","272860","0.0-36.0-1.0","1815.9000000953674","<div class='center'><p>A pirate will always be equally successful at robbing ships in each place</p><p>Press 1 for true and press  2 for false.</p></div>","50","","","","","","","","","","","","","","","","",""
"","html-keyboard-response","56","273344","0.0-37.0-0.0","481.2000002861023","<br><br><br><br><p>That's correct!</p> <p><b>[press the space bar to continue with the quiz]</b></p>","32","","","","","","","","","","","","","","","","",""
"","html-keyboard-response","57","274654","0.0-37.0-1.0","1308.4000000953674","<div class='center'><p>You should remember the place where a pirate robbed a ship.</p><p>Press 1 for true and press  2 for false.</p></div>","49","","","","","","","","","","","","","","","","",""
"","html-keyboard-response","58","275197","0.0-38.0-0.0","497.7999997138977","<br><br><br><br><p>That's correct!</p> <p><b>[press the space bar to continue with the quiz]</b></p>","32","","","","","","","","","","","","","","","","",""
"","html-keyboard-response","59","276148","0.0-39.0-0.0","949.5","<br><br><br><br><p>Good job! You’re now ready to move on to the real game!</p> <p><br>[press the space bar to begin!]</br></p>","32","","","","","","","","","","","","","","","","",""
"","do_welcome","60","277658","0.0-40.0-0.0","null","","","","null","","","","","","","","","","","","","","",""
"","do_trial","61","284150","0.0-41.0-0.0","925.2000002861023","","","","50","1,0,0","0","countryside","0","probe-218","1","0.4","0.1","0","","","","","",""
"","do_trial","62","290308","0.0-42.0-0.0","600.2000002861023","","","","51","1,0,0","0","countryside","1","probe-96","1","0.33314165788899774","0.09759963667256409","0","","","","","",""
"","do_trial","63","296152","0.0-43.0-0.0","264.8999996185303","","","","49","1,1,0","0","countryside","2","probe-194","1","0.3489857651084791","0.06285102478354881","1","","","","","",""
"","do_trial","64","302004","0.0-44.0-0.0","307.19999980926514","","","","49","1,1,0","0","countryside","3","probe-84","1","0.37814442628243994","0.10331813926097498","1","","","","","",""
"","do_trial","65","307900","0.0-45.0-0.0","343.8999996185303","","","","50","1,0,0","0","countryside","4","probe-121","0.9487001374165804","0.2330926052809853","0.07234465748466291","0","","","","","",""
"","do_trial","66","313889","0.0-46.0-0.0","411.5","","","","49","0,0,0","0","countryside","5","probe-169","0.7506593848730236","0.33240831901370227","0.14462024556793157","0","","","","","",""
"","do_trial","67","319811","0.0-47.0-0.0","345.19999980926514","","","","51","0,0,0","0","countryside","6","probe-103","0.7786222018611324","0.38435923331841887","0.4381925467042656","0","","","","","",""
"","do_trial","68","325671","0.0-48.0-0.0","283","","","","51","1,0,1","0","countryside","7","probe-87","0.8680324674454206","0.27498496917139936","0.3961596494796988","1","","","","","",""
"","do_trial","69","331554","0.0-49.0-0.0","323.7000002861023","","","","49","1,1,0","0","countryside","8","probe-95","0.7909496306863482","0.2900723943709118","0.3530434547733674","1","","","","","",""
"","do_trial","70","338180","0.0-50.0-0.0","1068.3000001907349","","","","50","1,1,0","0","countryside","9","probe-206","0.754121827497579","0.5098157890354762","0.30755395884177605","1","","","","","",""
"","do_trial","71","344121","0.0-51.0-0.0","391.40000009536743","","","","50","1,0,0","0","countryside","10","probe-190","0.5690308967694445","0.4197675583546301","0.4364898458321634","0","","","","","",""
"","do_trial","72","350028","0.0-52.0-0.0","343.90000009536743","","","","49","1,1,1","0","countryside","11","probe-136","0.5807039907852329","0.3524035478590975","0.6635720988622908","1","","","","","",""
"","do_trial","73","355836","0.0-53.0-0.0","263.5","","","","49","1,1,1","0","countryside","12","probe-38","0.3913048684191171","0.3379050979551262","0.7495351909668763","1","","","","","",""
"","do_trial","74","362323","0.0-54.0-0.0","932.9000000953674","","","","51","0,0,1","0","countryside","13","probe-83","0.3277413890836418","0.22257432796185675","0.845799685075838","1","","","","","",""
"","do_trial","75","368573","0.0-55.0-0.0","684.3999996185303","","","","51","1,0,1","0","countryside","14","probe-156","0.41079117773999246","0.1906834252431616","0.73795768331146","1","","","","","",""
"","do_trial","76","374393","0.0-56.0-0.0","272.90000009536743","","","","49","0,0,1","0","countryside","15","probe-98","0.3264761842695489","0.24375991815708187","0.8553679385025467","0","","","","","",""
"","do_trial","77","380792","0.0-57.0-0.0","821.7000002861023","","","","51","0,0,1","0","countryside","16","probe-229","0.33004220635870307","0.21224054827155062","0.7042769298138226","1","","","","","",""
"","do_trial","78","386958","0.0-58.0-0.0","585","","","","51","0,0,0","0","countryside","17","probe-111","0.34719541209659005","0.23263351039620694","0.6808323890866315","0","","","","","",""
"","do_trial","79","392710","0.0-59.0-0.0","204.5","","","","49","0,0,1","0","countryside","18","probe-122","0.3416659390686491","0.19328331917869418","0.8072579243663524","0","","","","","",""
"","do_trial","80","398456","0.0-60.0-0.0","201.69999980926514","","","","50","1,0,0","0","countryside","19","probe-52","0.47582537751356135","0.07784668584451047","0.6847299836976894","0","","","","","",""
"","do_trial","81","404246","0.0-61.0-0.0","205.40000009536743","","","","49","0,0,0","0","countryside","20","probe-143","0.2909384672059451","0.09244621222918392","0.8341351260180083","0","","","","","",""
"","do_trial","82","410057","0.0-62.0-0.0","265.3999996185303","","","","51","0,0,1","0","countryside","21","probe-185","0.3278583215183086","0.10359650037731814","0.836883582554102","1","","","","","",""
"","do_trial","83","415885","0.0-63.0-0.0","274.40000009536743","","","","51","1,0,1","0","countryside","22","probe-213","0.3864129094165095","0.16682561848356905","0.8290629912497903","1","","","","","",""
"","do_trial","84","421741","0.0-64.0-0.0","279.5","","","","49","0,0,1","0","countryside","23","probe-88","0.39515364459704194","0.17221519263587987","0.7809535239046289","0","","","","","",""
"","do_trial","85","427523","0.0-65.0-0.0","237.2000002861023","","","","51","0,0,1","0","countryside","24","probe-35","0.32500811207603475","0.06116213270214475","0.6833073760831516","1","","","","","",""
"","do_trial","86","433628","0.0-66.0-0.0","558.1000003814697","","","","51","0,0,1","0","countryside","25","probe-29","0.4362790707932394","0.07499259689968221","0.78182175173756","1","","","","","",""
"","do_trial","87","439471","0.0-67.0-0.0","291","","","","50","0,0,1","0","countryside","26","probe-126","0.4550138085418107","0.07475503767682745","0.8651862069193129","0","","","","","",""
"","do_trial","88","445306","0.0-68.0-0.0","278.59999990463257","","","","51","1,0,1","0","countryside","27","probe-50","0.4181710259181902","0.14047281234245332","0.8374389698206091","1","","","","","",""
"","do_trial","89","451623","0.0-69.0-0.0","753.5","","","","51","1,0,1","0","countryside","28","probe-154","0.3151141738127921","0.12497296174378583","0.8107517831275342","1","","","","","",""
"","do_trial","90","458139","0.0-70.0-0.0","939.3999996185303","","","","49","1,1,1","0","countryside","29","probe-175","0.4453037830284744","0.10650444447489255","0.9294939089821347","1","","","","","",""
"","do_trial","91","464050","0.0-71.0-0.0","300.90000009536743","","","","51","1,0,1","0","countryside","30","probe-133","0.5664726254463353","0.09903545595945289","0.8778774594787446","1","","","","","",""
"","do_trial","92","470041","0.0-72.0-0.0","436.2999997138977","","","","49","0,1,1","0","countryside","31","probe-140","0.5869319732898309","0.17598157558040348","0.9037290932716987","0","","","","","",""
"","do_trial","93","475883","0.0-73.0-0.0","274.5","","","","51","1,0,1","0","countryside","32","probe-104","0.5327317539134888","0.21098050958995734","0.9261462205588672","1","","","","","",""
"","do_trial","94","481914","0.0-74.0-0.0","479.59999990463257","","","","51","1,0,0","0","countryside","33","probe-214","0.5618688275952283","0.20483626507264763","0.8474606016442165","0","","","","","",""
"","do_trial","95","487467","0.0-75.0-0.0","0.5999999046325684","","","","49","0,0,1","0","countryside","34","probe-222","0.5464994985200017","0.16361753903136525","0.824811977425147","0","","","","","",""
"","do_trial","96","493251","0.0-76.0-0.0","221.59999990463257","","","","50","0,0,0","0","countryside","35","probe-201","0.4205497313045006","0.15685060588259556","0.8548755108412409","0","","","","","",""
"","do_trial","97","499049","0.0-77.0-0.0","223.5","","","","50","0,0,1","0","countryside","36","probe-160","0.50185109924307","0.08393037743361376","0.8078995853016931","0","","","","","",""
"","do_trial","98","505093","0.0-78.0-0.0","462.59999990463257","","","","49","0,0,1","0","countryside","37","probe-204","0.43049562375189127","0.0979320918521276","0.7593917000159927","0","","","","","",""
"","do_trial","99","510942","0.0-79.0-0.0","288.1000003814697","","","","51","0,0,1","0","countryside","38","probe-03","0.431493325069673","0.18520061514322733","0.7455024665491317","1","","","","","",""
"","do_trial","100","516784","0.0-80.0-0.0","276.90000009536743","","","","51","0,0,0","0","countryside","39","probe-56","0.5723884187624916","0.15606702527284882","0.6505893206252706","0","","","","","",""
"","do_bye","101","518295","0.0-81.0-0.0","null","","","","null","","","","","","","","","","","","","","",""
"","do_travel","102","524300","0.0-82.0-0.0","null","","","","null","","","","","","","","","","","","","","",""
"","do_welcome","103","525809","0.0-82.0-1.0","null","","","","null","","","","","","","","","","","","","","",""
"","do_trial","104","532095","0.0-83.0-0.0","706.3000001907349","","","","51","1,0,1","1","highway","40","probe-166","0.5593889752885407","0.1382682091835227","1","1","","","","","",""
"","do_trial","105","538011","0.0-84.0-0.0","352.5","","","","49","0,0,1","1","highway","41","probe-75","0.5220870367659993","0.07010667680739407","1","0","","","","","",""
"","do_trial","106","544299","0.0-85.0-0.0","724.2999997138977","","","","50","1,0,1","1","highway","42","probe-78","0.5224969138042194","0.1554327916375726","1","0","","","","","",""
"","do_trial","107","549861","0.0-86.0-0.0","0.5","","","","51","0,0,1","1","highway","43","probe-114","0.46522598886568545","0.18731544785243465","1","1","","","","","",""
"","do_trial","108","555926","0.0-87.0-0.0","500.69999980926514","","","","51","1,1,1","1","highway","44","probe-139","0.4969044350002789","0.36611369012541245","0.8163986829425658","1","","","","","",""
"","do_trial","109","562750","0.0-88.0-0.0","1242.1000003814697","","","","51","1,1,1","1","highway","45","probe-23","0.5724563588514376","0.21899326717176837","0.6743739864088986","1","","","","","",""
"","do_trial","110","569181","0.0-89.0-0.0","858","","","","51","1,0,1","1","highway","46","probe-123","0.3574580346671036","0.1293593611637744","0.7271591150449335","1","","","","","",""
"","do_trial","111","575992","0.0-90.0-0.0","1207.4000000953674","","","","51","0,0,1","1","highway","47","probe-85","0.3683858579135263","0.17004148359904345","0.6661608712461787","1","","","","","",""
"","do_trial","112","582197","0.0-91.0-0.0","624.4000000953674","","","","51","1,0,1","1","highway","48","probe-91","0.45257632891839045","0.24101619361017768","0.6912745250210196","1","","","","","",""
"","do_trial","113","588404","0.0-92.0-0.0","627.5","","","","51","0,0,1","1","highway","49","probe-186","0.46169111417120723","0.11900327009191916","0.752780193578768","1","","","","","",""
"","do_trial","114","594733","0.0-93.0-0.0","770.9000000953674","","","","51","1,0,1","1","highway","50","probe-176","0.6525496419082168","0.39298324414244146","0.6291347848964471","1","","","","","",""
"","do_trial","115","600584","0.0-94.0-0.0","279.40000009536743","","","","51","0,1,0","1","highway","51","probe-232","0.6888390938151949","0.4098366721852159","0.2662038533650566","0","","","","","",""
"","do_trial","116","606553","0.0-95.0-0.0","400.90000009536743","","","","50","1,1,0","1","highway","52","probe-44","0.7076829654852714","0.47212459368259047","0.2777053877606896","1","","","","","",""
"","do_trial","117","612368","0.0-96.0-0.0","245.10000038146973","","","","50","1,1,0","1","highway","53","probe-53","0.643826984513001","0.4130209189612453","0.23638117532114883","1","","","","","",""
"","do_trial","118","618277","0.0-97.0-0.0","346.80000019073486","","","","50","1,0,1","1","highway","54","probe-39","0.6899434858042303","0.41502372640720064","0.20380589534061033","0","","","","","",""
"","do_trial","119","623836","0.0-98.0-0.0","4.900000095367432","","","","49","1,0,0","1","highway","55","probe-24","0.7565446353434473","0.3163333008077966","0.30687327667328806","1","","","","","",""
"","do_trial","120","629678","0.0-99.0-0.0","278.7999997138977","","","","49","1,1,0","1","highway","56","probe-174","0.6807537616283584","0.4062870007530787","0.15600801677165538","1","","","","","",""
"","do_trial","121","635716","0.0-100.0-0.0","485.5","","","","49","1,0,0","1","highway","57","probe-173","0.7439332911983825","0.5098804008962936","0.10145847146335793","1","","","","","",""
"","do_trial","122","641781","0.0-101.0-0.0","460.1000003814697","","","","49","1,1,1","1","highway","58","probe-64","0.7386385753446478","0.6114692084515164","0.07673050882941532","1","","","","","",""
"","do_trial","123","647722","0.0-102.0-0.0","349.40000009536743","","","","49","0,0,0","1","highway","59","probe-177","0.7309007407709481","0.4847819254503045","0.09061073436723162","0","","","","","",""
"","do_trial","124","653560","0.0-103.0-0.0","272.5","","","","49","0,0,1","1","highway","60","probe-60","0.6861236239856925","0.5509070843998679","0.2694368482323169","0","","","","","",""
"","do_trial","125","659506","0.0-104.0-0.0","384","","","","49","1,0,0","1","highway","61","probe-61","0.8246239065955965","0.46793217401414555","0.064697904220798","1","","","","","",""
"","do_trial","126","665328","0.0-105.0-0.0","263.2000002861023","","","","49","0,0,0","1","highway","62","probe-34","0.8055087120260461","0.48946815609649236","0.14809103714126615","0","","","","","",""
"","do_trial","127","671307","0.0-106.0-0.0","391","","","","49","1,0,0","1","highway","63","probe-08","0.946824463341413","0.3137949763360407","0.10142925834413982","1","","","","","",""
"","do_trial","128","677213","0.0-107.0-0.0","328","","","","51","0,1,0","1","highway","64","probe-90","0.8346848950527078","0.20619743831994897","0.14298490623394292","0","","","","","",""
"","do_trial","129","683190","0.0-108.0-0.0","386.2000002861023","","","","51","1,1,0","1","highway","65","probe-101","0.9138073230360029","0.14806206141636824","0.1500457751576054","0","","","","","",""
"","do_trial","130","689616","0.0-109.0-0.0","838.8999996185303","","","","49","1,0,0","1","highway","66","probe-170","0.9245803441942959","0.0745821867545294","0.12917649400035358","1","","","","","",""
"","do_trial","131","695431","0.0-110.0-0.0","250.09999990463257","","","","49","1,0,0","1","highway","67","probe-142","0.794764500458424","0.2506279969700082","0.05080848561551837","1","","","","","",""
"","do_trial","132","702678","0.0-111.0-0.0","1660.9000000953674","","","","49","0,0,0","1","highway","68","probe-184","0.7433414429853247","0.42045697268199833","0.0812052080499581","0","","","","","",""
"","do_trial","133","708584","0.0-112.0-0.0","341.90000009536743","","","","51","1,0,0","1","highway","69","probe-148","0.9357059511385668","0.1940672205994384","0.12830624348730382","0","","","","","",""
"","do_trial","134","715430","0.0-113.0-0.0","1258.7999997138977","","","","51","0,0,0","1","highway","70","probe-113","0.7829350729369716","0.21724794858179927","0.06023697725602561","0","","","","","",""
"","do_trial","135","721320","0.0-114.0-0.0","310.19999980926514","","","","51","1,0,1","1","highway","71","probe-163","0.7929107939132728","0.38668861095692825","0.25594949423760666","1","","","","","",""
"","do_trial","136","727677","0.0-115.0-0.0","788.3999996185303","","","","51","1,0,0","1","highway","72","probe-17","0.9151851606810866","0.5359393155857142","0.16400685350342842","0","","","","","",""
"","do_trial","137","733602","0.0-116.0-0.0","329.69999980926514","","","","49","1,1,0","1","highway","73","probe-92","0.8653738479505466","0.5194449837475447","0.0703084521146211","1","","","","","",""
"","do_trial","138","739413","0.0-117.0-0.0","242.80000019073486","","","","49","1,0,0","1","highway","74","probe-73","0.9086204111511572","0.26724115077158","0.1581359857426562","1","","","","","",""
"","do_trial","139","745765","0.0-118.0-0.0","766.4000000953674","","","","50","1,0,0","1","highway","75","probe-220","0.8663350181506649","0.23394959364244292","0.0631939211249588","0","","","","","",""
"","do_trial","140","751490","0.0-119.0-0.0","142.80000019073486","","","","49","1,0,0","1","highway","76","probe-182","0.7063644968029467","0.3540719653156852","0.10791241030908452","1","","","","","",""
"","do_trial","141","757396","0.0-120.0-0.0","339.7000002861023","","","","49","0,0,1","1","highway","77","probe-188","0.8523632292688993","0.41146622789318843","0.1866431149013886","0","","","","","",""
"","do_trial","142","763384","0.0-121.0-0.0","430.09999990463257","","","","49","1,1,0","1","highway","78","probe-102","0.7754916206155094","0.4140886720096883","0.11819524303078424","1","","","","","",""
"","do_trial","143","769270","0.0-122.0-0.0","320.59999990463257","","","","49","1,0,0","1","highway","79","probe-48","0.8714262174465301","0.41444847663637363","0.20691706871005638","1","","","","","",""
"","do_bye","144","770779","0.0-123.0-0.0","null","","","","null","","","","","","","","","","","","","","",""
"","do_travel","145","776784","0.0-124.0-0.0","null","","","","null","","","","","","","","","","","","","","",""
"","do_welcome","146","778296","0.0-124.0-1.0","null","","","","null","","","","","","","","","","","","","","",""
"","do_trial","147","784574","0.0-125.0-0.0","706.6000003814697","","","","51","1,0,0","2","mountain","80","probe-55","1","0.24206696207485207","0.250099058434796","0","","","","","",""
"","do_trial","148","790444","0.0-126.0-0.0","278.09999990463257","","","","49","1,0,0","2","mountain","81","probe-62","1","0.20936446332432","0.2301815801494467","1","","","","","",""
"","do_trial","149","796252","0.0-127.0-0.0","238.80000019073486","","","","50","1,0,1","2","mountain","82","probe-04","1","0.30751169366106457","0.22090605688721024","0","","","","","",""
"","do_trial","150","801815","0.0-128.0-0.0","0.2999997138977051","","","","49","1,1,0","2","mountain","83","probe-26","1","0.29869209352452947","0.05865705767434566","1","","","","","",""
"","do_trial","151","807689","0.0-129.0-0.0","287.09999990463257","","","","49","1,0,0","2","mountain","84","probe-42","0.8877888692422299","0.3495192719653109","0.10339367253186219","1","","","","","",""
"","do_trial","152","813584","0.0-130.0-0.0","318.5","","","","49","0,1,0","2","mountain","85","probe-69","0.8677438904828428","0.34585720146110804","0.08076310569340242","0","","","","","",""
"","do_trial","153","819455","0.0-131.0-0.0","301.19999980926514","","","","49","1,0,0","2","mountain","86","probe-172","0.9214947646720728","0.3110491785237456","0.06253566024229783","1","","","","","",""
"","do_trial","154","825469","0.0-132.0-0.0","450.80000019073486","","","","49","1,1,0","2","mountain","87","probe-221","0.9194726940173965","0.31908384931552236","0.10750765406716298","1","","","","","",""
"","do_trial","155","831541","0.0-133.0-0.0","506.40000009536743","","","","49","1,0,0","2","mountain","88","probe-45","0.760242716366113","0.3446228469937765","0.10980274056532911","1","","","","","",""
"","do_trial","156","839786","0.0-134.0-0.0","2677","","","","49","1,0,0","2","mountain","89","probe-11","0.6583654022669608","0.2336889894766793","0.05803197861963451","1","","","","","",""
"","do_trial","157","846188","0.0-135.0-0.0","853.5999999046326","","","","49","1,0,1","2","mountain","90","probe-18","0.18979845810198545","0.32062722408388306","0.3546831556226194","1","","","","","",""
"","do_trial","158","852321","0.0-136.0-0.0","570","","","","49","0,0,0","2","mountain","91","probe-161","0.128900925075849","0.4722423937320888","0.48952776532934944","0","","","","","",""
"","do_trial","159","858136","0.0-137.0-0.0","240.90000009536743","","","","50","0,1,0","2","mountain","92","probe-195","0.19346293689379168","0.35564836988613324","0.5502558576775604","1","","","","","",""
"","do_trial","160","864125","0.0-138.0-0.0","405.90000009536743","","","","50","0,0,1","2","mountain","93","probe-76","0.24944444913882005","0.3646630037823955","0.5797734940625705","0","","","","","",""
"","do_trial","161","870034","0.0-139.0-0.0","343.30000019073486","","","","49","0,0,0","2","mountain","94","probe-179","0.18809866782691603","0.3013632783716335","0.7364274456211127","0","","","","","",""
"","do_trial","162","875863","0.0-140.0-0.0","264.5","","","","51","0,1,1","2","mountain","95","probe-40","0.11871061215542414","0.38599830884899017","0.7657173756697679","1","","","","","",""
"","do_trial","163","882410","0.0-141.0-0.0","976.6999998092651","","","","51","1,0,1","2","mountain","96","probe-118","0.13103626165145132","0.558311522844115","0.7258204923331737","1","","","","","",""
"","do_trial","164","888295","0.0-142.0-0.0","302.69999980926514","","","","51","0,0,1","2","mountain","97","probe-215","0.24921281953001398","0.6095809570417453","0.6924441482262779","1","","","","","",""
"","do_trial","165","894256","0.0-143.0-0.0","380.59999990463257","","","","49","0,0,0","2","mountain","98","probe-117","0.14634685642733053","0.5777842936292865","0.6836967138866774","0","","","","","",""
"","do_trial","166","900096","0.0-144.0-0.0","282.59999990463257","","","","49","0,0,0","2","mountain","99","probe-149","0.15386783366145543","0.4884939250737737","0.7161650276183568","0","","","","","",""
"","do_trial","167","905936","0.0-145.0-0.0","276.40000009536743","","","","50","0,1,1","2","mountain","100","probe-124","0.17003023032143477","0.5033221770581178","0.882778652973685","1","","","","","",""
"","do_trial","168","912186","0.0-146.0-0.0","670.0999999046326","","","","50","0,1,0","2","mountain","101","probe-225","0.05600747335849843","0.37790555068481874","0.7553020475788396","1","","","","","",""
"","do_trial","169","918281","0.0-147.0-0.0","531","","","","50","1,0,1","2","mountain","102","probe-230","0.07585327140090299","0.3680127062305826","0.6935241583568151","0","","","","","",""
"","do_trial","170","924177","0.0-148.0-0.0","325.90000009536743","","","","51","1,0,1","2","mountain","103","probe-130","0.1863084102939365","0.3587378282618491","0.7873254988072974","1","","","","","",""
"","do_trial","171","930127","0.0-149.0-0.0","394.90000009536743","","","","49","0,1,1","2","mountain","104","probe-33","0.37085960430444387","0.27390982198895963","0.8249080170020315","0","","","","","",""
"","do_trial","172","935960","0.0-150.0-0.0","270","","","","51","0,0,1","2","mountain","105","probe-13","0.23068381748882552","0.31692392515949475","0.7933937634928387","1","","","","","",""
"","do_trial","173","941813","0.0-151.0-0.0","291.30000019073486","","","","51","0,0,1","2","mountain","106","probe-167","0.05747250042556221","0.3490929581893791","0.8762064806048924","1","","","","","",""
"","do_trial","174","947447","0.0-152.0-0.0","19.700000286102295","","","","51","1,0,1","2","mountain","107","probe-183","0.1317220609974425","0.3147965465056342","0.8373941933342046","1","","","","","",""
"","do_trial","175","953028","0.0-153.0-0.0","0.2999997138977051","","","","50","0,1,1","2","mountain","108","probe-150","0.19868650723057876","0.32948255073899213","0.9017065663329216","1","","","","","",""
"","do_trial","176","959060","0.0-154.0-0.0","469.80000019073486","","","","49","0,0,1","2","mountain","109","probe-240","0.0867564978781612","0.2600080911611592","0.908199778855694","0","","","","","",""
"","do_trial","177","964639","0.0-155.0-0.0","0.40000009536743164","","","","50","0,0,1","2","mountain","110","probe-89","0.1362098074661321","0.3656922661408409","0.7003719915585614","0","","","","","",""
"","do_trial","178","970518","0.0-156.0-0.0","325.59999990463257","","","","51","0,0,1","2","mountain","111","probe-216","0.15337038180108878","0.4478016387727107","0.7323824892985588","1","","","","","",""
"","do_trial","179","976685","0.0-157.0-0.0","597.6999998092651","","","","51","0,0,1","2","mountain","112","probe-153","0.16647779067308954","0.4543276507807322","0.8094175896887771","1","","","","","",""
"","do_trial","180","982701","0.0-158.0-0.0","452.09999990463257","","","","51","0,0,1","2","mountain","113","probe-93","0.06921555264322696","0.5379345989595679","0.8882522120698407","1","","","","","",""
"","do_trial","181","988753","0.0-159.0-0.0","479","","","","50","0,1,0","2","mountain","114","probe-43","0.10660825017630078","0.48398560738140556","0.8639335209284188","1","","","","","",""
"","do_trial","182","994576","0.0-160.0-0.0","254.2999997138977","","","","51","0,1,1","2","mountain","115","probe-108","0.10184402703704876","0.41024556039060905","0.7918652900801076","1","","","","","",""
"","do_trial","183","1000594","0.0-161.0-0.0","413.2999997138977","","","","50","0,1,1","2","mountain","116","probe-226","0.06740414752737248","0.37822846068236987","0.9026675606646497","1","","","","","",""
"","do_trial","184","1006402","0.0-162.0-0.0","254.09999990463257","","","","51","0,1,0","2","mountain","117","probe-209","0.08453845436475754","0.2776289160425096","0.8351846271093919","0","","","","","",""
"","do_trial","185","1012276","0.0-163.0-0.0","309.5","","","","50","0,0,1","2","mountain","118","probe-134","0.21154875464178363","0.29381217982085106","0.8384658865149175","0","","","","","",""
"","do_trial","186","1018194","0.0-164.0-0.0","358.80000019073486","","","","49","1,0,1","2","mountain","119","probe-191","0.2551425813743542","0.3964567472680075","0.8271966275054169","1","","","","","",""
"","do_bye","187","1019704","0.0-165.0-0.0","null","","","","null","","","","","","","","","","","","","","",""
"","do_travel","188","1025709","0.0-166.0-0.0","null","","","","null","","","","","","","","","","","","","","",""
"","do_welcome","189","1027217","0.0-166.0-1.0","null","","","","null","","","","","","","","","","","","","","",""
"","do_trial","190","1034015","0.0-167.0-0.0","1213.0999999046326","","","","50","0,0,1","3","forest","120","probe-71","0.12110663810532604","0.5450477888619555","1","0","","","","","",""
"","do_trial","191","1039704","0.0-168.0-0.0","122.10000038146973","","","","49","0,1,1","3","forest","121","probe-128","0.060607770011275125","0.4687995103991985","1","0","","","","","",""
"","do_trial","192","1045604","0.0-169.0-0.0","333.30000019073486","","","","51","1,0,1","3","forest","122","probe-116","0.14654137601717163","0.38509152440549616","1","1","","","","","",""
"","do_trial","193","1051517","0.0-170.0-0.0","355.5","","","","51","0,0,1","3","forest","123","probe-193","0.07773531247580522","0.4312919981002866","1","1","","","","","",""
"","do_trial","194","1057638","0.0-171.0-0.0","553.4000000953674","","","","51","0,1,0","3","forest","124","probe-145","0.16351859205233493","0.2914831209206077","0.8844225496730862","0","","","","","",""
"","do_trial","195","1063447","0.0-172.0-0.0","242.80000019073486","","","","49","0,0,0","3","forest","125","probe-57","0.10078093349720632","0.31419456337890694","0.8455430973734567","0","","","","","",""
"","do_trial","196","1069259","0.0-173.0-0.0","248.69999980926514","","","","49","0,0,1","3","forest","126","probe-203","0.1651550321763321","0.29671977712983016","0.9051113599343455","0","","","","","",""
"","do_trial","197","1075046","0.0-174.0-0.0","204.40000009536743","","","","50","0,1,1","3","forest","127","probe-100","0.21293428332846978","0.32510398701779425","0.8982436774524396","1","","","","","",""
"","do_trial","198","1081389","0.0-175.0-0.0","773.9000000953674","","","","50","0,0,1","3","forest","128","probe-198","0.10742836391264753","0.3600536254092801","0.7958745851662558","0","","","","","",""
"","do_trial","199","1087245","0.0-176.0-0.0","280.8999996185303","","","","49","0,0,1","3","forest","129","probe-227","0.11968073221911421","0.47260521994598576","0.8764844238114526","0","","","","","",""
"","do_trial","200","1093461","0.0-177.0-0.0","658.6999998092651","","","","51","1,1,0","3","forest","130","probe-12","0.20267510854255208","0.6780800607313183","0.5550143516566566","0","","","","","",""
"","do_trial","201","1099295","0.0-178.0-0.0","282.09999990463257","","","","49","0,1,1","3","forest","131","probe-181","0.21188753238776842","0.5474624496684212","0.38699097668756466","0","","","","","",""
"","do_trial","202","1105108","0.0-179.0-0.0","248.19999980926514","","","","50","1,0,1","3","forest","132","probe-86","0.3902519527989267","0.7462216968193848","0.34883726223112854","0","","","","","",""
"","do_trial","203","1110937","0.0-180.0-0.0","260.7000002861023","","","","51","0,1,0","3","forest","133","probe-147","0.3768937734343305","0.7030658308453127","0.31170219849591707","0","","","","","",""
"","do_trial","204","1116878","0.0-181.0-0.0","376.30000019073486","","","","51","0,1,0","3","forest","134","probe-54","0.34889670630181635","0.7501376244358029","0.222734520707984","0","","","","","",""
"","do_trial","205","1122847","0.0-182.0-0.0","399.3999996185303","","","","49","1,0,0","3","forest","135","probe-178","0.40146403675763753","0.7954726013458331","0.11245571736154837","1","","","","","",""
"","do_trial","206","1128764","0.0-183.0-0.0","354.30000019073486","","","","49","1,1,0","3","forest","136","probe-79","0.37733556440948157","0.700058031258701","0.09734634881279274","1","","","","","",""
"","do_trial","207","1134669","0.0-184.0-0.0","345.30000019073486","","","","49","1,0,0","3","forest","137","probe-49","0.4926466521099229","0.717946012867748","0.05788187832547905","1","","","","","",""
"","do_trial","208","1140831","0.0-185.0-0.0","587.3000001907349","","","","49","0,1,0","3","forest","138","probe-109","0.4602100557303574","0.7774541687788216","0.0961097706220901","0","","","","","",""
"","do_trial","209","1146864","0.0-186.0-0.0","467.7000002861023","","","","50","1,0,1","3","forest","139","probe-228","0.5636880866250013","0.6998153969876844","0.17037107910041166","0","","","","","",""
"","do_trial","210","1152446","0.0-187.0-0.0","0.39999961853027344","","","","50","0,1,0","3","forest","140","probe-127","0.4691280354898698","0.7769872037625577","0.27790139068778824","1","","","","","",""
"","do_trial","211","1158530","0.0-188.0-0.0","512.6999998092651","","","","51","1,0,0","3","forest","141","probe-58","0.4662069842447386","0.7338888124206544","0.20081824527298522","0","","","","","",""
"","do_trial","212","1164412","0.0-189.0-0.0","306","","","","49","0,1,0","3","forest","142","probe-107","0.5112571722970914","0.7009889756837616","0.1238139301209526","0","","","","","",""
"","do_trial","213","1170276","0.0-190.0-0.0","298.6000003814697","","","","50","1,0,0","3","forest","143","probe-187","0.46033958231151956","0.671729178728576","0.11971561607861722","0","","","","","",""
"","do_trial","214","1176364","0.0-191.0-0.0","524.0999999046326","","","","51","1,1,0","3","forest","144","probe-212","0.3228355692752289","0.7489402175944925","0.20339610579483322","0","","","","","",""
"","do_trial","215","1182243","0.0-192.0-0.0","312.19999980926514","","","","49","1,1,0","3","forest","145","probe-231","0.30378534841723903","0.9147011643681039","0.09885882343637672","1","","","","","",""
"","do_trial","216","1188277","0.0-193.0-0.0","456.59999990463257","","","","49","1,1,0","3","forest","146","probe-82","0.22442745960951327","0.7530597778936836","0.08914704834445218","1","","","","","",""
"","do_trial","217","1194117","0.0-194.0-0.0","277.2000002861023","","","","49","1,1,0","3","forest","147","probe-224","0.37567108019159234","0.7459500012168269","0.1290285434923038","1","","","","","",""
"","do_trial","218","1200187","0.0-195.0-0.0","501.59999990463257","","","","49","0,1,0","3","forest","148","probe-141","0.3232239480772765","0.8575544587645163","0.20747306632833024","0","","","","","",""
"","do_trial","219","1206130","0.0-196.0-0.0","379.69999980926514","","","","50","1,1,0","3","forest","149","probe-74","0.27703414701675516","0.8796635038855866","0.18281988701622198","1","","","","","",""
"","do_trial","220","1211947","0.0-197.0-0.0","256","","","","50","0,1,0","3","forest","150","probe-235","0.3690365583230384","0.8845006968576151","0.18487098942794572","1","","","","","",""
"","do_trial","221","1217834","0.0-198.0-0.0","325.09999990463257","","","","51","1,0,0","3","forest","151","probe-135","0.31065482299937924","0.7729908288573287","0.08929479543917794","0","","","","","",""
"","do_trial","222","1224330","0.0-199.0-0.0","911.2000002861023","","","","51","1,0,0","3","forest","152","probe-15","0.4288672812856727","0.7759857665562295","0.06497764094416837","0","","","","","",""
"","do_trial","223","1230329","0.0-200.0-0.0","427.59999990463257","","","","49","0,0,0","3","forest","153","probe-180","0.4416581555238754","0.6442520451807644","0.1654451314375701","0","","","","","",""
"","do_trial","224","1236764","0.0-201.0-0.0","853.5","","","","50","0,0,0","3","forest","154","probe-205","0.32323738645311556","0.689471022205138","0.107672061728777","0","","","","","",""
"","do_trial","225","1243668","0.0-202.0-0.0","1318.5","","","","51","0,1,0","3","forest","155","probe-125","0.40964642897630954","0.7374931129991394","0.10155119998435846","0","","","","","",""
"","do_trial","226","1249307","0.0-203.0-0.0","73","","","","49","0,0,0","3","forest","156","probe-28","0.24997394392400055","0.7689179430817591","0.14159053824620485","0","","","","","",""
"","do_trial","227","1255169","0.0-204.0-0.0","295.59999990463257","","","","50","0,0,0","3","forest","157","probe-68","0.18689817784134075","0.8302189739533435","0.1810940905022067","0","","","","","",""
"","do_trial","228","1261167","0.0-205.0-0.0","400","","","","51","0,1,1","3","forest","158","probe-234","0.17749572231954294","0.9018006956567133","0.2711129789692512","1","","","","","",""
"","do_trial","229","1267295","0.0-206.0-0.0","542.9000000953674","","","","51","0,0,0","3","forest","159","probe-02","0.26826689849008384","0.8825526759994494","0.197654864492728","0","","","","","",""
"","do_bye","230","1268806","0.0-207.0-0.0","null","","","","null","","","","","","","","","","","","","","",""
"","do_travel","231","1274810","0.0-208.0-0.0","null","","","","null","","","","","","","","","","","","","","",""
"","do_welcome","232","1276326","0.0-208.0-1.0","null","","","","null","","","","","","","","","","","","","","",""
"","do_trial","233","1282575","0.0-209.0-0.0","675.4000000953674","","","","50","0,1,0","4","coast","160","probe-81","0.16160790445502685","1","0.2932804827501011","1","","","","","",""
"","do_trial","234","1288501","0.0-210.0-0.0","368.30000019073486","","","","49","0,1,0","4","coast","161","probe-120","0.26533048201112536","1","0.4369551092344021","0","","","","","",""
"","do_trial","235","1294437","0.0-211.0-0.0","340.09999990463257","","","","50","0,1,0","4","coast","162","probe-199","0.3198208294573474","1","0.2508706856574994","1","","","","","",""
"","do_trial","236","1300351","0.0-212.0-0.0","343.09999990463257","","","","51","0,1,0","4","coast","163","probe-196","0.46816550449741","1","0.1867535196223817","0","","","","","",""
"","do_trial","237","1306316","0.0-213.0-0.0","388.09999990463257","","","","50","1,0,0","4","coast","164","probe-165","0.5033064666300241","0.7687253238489906","0.09255071208065797","0","","","","","",""
"","do_trial","238","1312166","0.0-214.0-0.0","269.5","","","","49","1,1,0","4","coast","165","probe-10","0.46307949876242954","0.7466936663528434","0.12261871360560721","1","","","","","",""
"","do_trial","239","1318215","0.0-215.0-0.0","466.80000019073486","","","","50","0,1,0","4","coast","166","probe-47","0.4181926500036742","0.8217648219799201","0.08754991257912423","1","","","","","",""
"","do_trial","240","1324358","0.0-216.0-0.0","537.3999996185303","","","","50","1,1,0","4","coast","167","probe-146","0.4416599817661688","0.8293526380546101","0.13519361225635343","1","","","","","",""
"","do_trial","241","1330164","0.0-217.0-0.0","246","","","","50","0,1,0","4","coast","168","probe-21","0.2654370172679081","0.9409867940376364","0.07298894572989965","1","","","","","",""
"","do_trial","242","1336035","0.0-218.0-0.0","299.59999990463257","","","","50","0,1,0","4","coast","169","probe-97","0.2494158233623037","0.9185947537191751","0.07930210031229427","1","","","","","",""
"","do_trial","243","1341948","0.0-219.0-0.0","341.5","","","","50","0,1,0","4","coast","170","probe-200","0.5029790827313256","0.6023175968113313","0.23856813241509822","1","","","","","",""
"","do_trial","244","1347779","0.0-220.0-0.0","268.5","","","","50","1,1,1","4","coast","171","probe-115","0.5613333384992111","0.4006737063477931","0.401094510656198","1","","","","","",""
"","do_trial","245","1353656","0.0-221.0-0.0","308.5","","","","50","1,0,1","4","coast","172","probe-30","0.7676927470818111","0.32187049187490074","0.465379739123919","0","","","","","",""
"","do_trial","246","1359697","0.0-222.0-0.0","469.40000009536743","","","","51","1,0,1","4","coast","173","probe-238","0.9197732085408455","0.16395694021736673","0.4682800445263319","1","","","","","",""
"","do_trial","247","1365586","0.0-223.0-0.0","313.09999990463257","","","","51","1,0,0","4","coast","174","probe-31","0.9115595230811647","0.13527543785999244","0.41673726142212725","0","","","","","",""
"","do_trial","248","1371157","0.0-224.0-0.0","6.699999809265137","","","","49","1,1,0","4","coast","175","probe-46","0.8528978485487917","0.1721006402523182","0.40881563929004033","1","","","","","",""
"","do_trial","249","1376988","0.0-225.0-0.0","257.09999990463257","","","","49","1,0,1","4","coast","176","probe-70","0.895442264897503","0.1187371673236279","0.42653157393610813","1","","","","","",""
"","do_trial","250","1382948","0.0-226.0-0.0","396.40000009536743","","","","49","1,0,1","4","coast","177","probe-22","0.9391656006025982","0.0705558563356188","0.4663024113020526","1","","","","","",""
"","do_trial","251","1388946","0.0-227.0-0.0","437","","","","49","1,0,0","4","coast","178","probe-132","0.8976176198874434","0.1052449300765775","0.4662281695885305","1","","","","","",""
"","do_trial","252","1394812","0.0-228.0-0.0","302.30000019073486","","","","49","1,1,0","4","coast","179","probe-65","0.8867774004133091","0.18414030229493814","0.5156927896128766","1","","","","","",""
"","do_trial","253","1400660","0.0-229.0-0.0","275.5","","","","49","1,1,0","4","coast","180","probe-41","0.8894339063341586","0.22224293455302216","0.48705990074519084","1","","","","","",""
"","do_trial","254","1406504","0.0-230.0-0.0","277.2999997138977","","","","49","1,0,0","4","coast","181","probe-106","0.864082507572664","0.07863131804490876","0.3746482420381321","1","","","","","",""
"","do_trial","255","1412424","0.0-231.0-0.0","333.09999990463257","","","","49","1,0,0","4","coast","182","probe-01","0.7726244304445888","0.08485413462037787","0.42063669972267853","1","","","","","",""
"","do_trial","256","1418467","0.0-232.0-0.0","457.5","","","","49","1,0,1","4","coast","183","probe-129","0.7197094846012003","0.11191096703783107","0.47622024782935063","1","","","","","",""
"","do_trial","257","1424186","0.0-233.0-0.0","150.90000009536743","","","","49","0,1,1","4","coast","184","probe-168","0.759325249428198","0.20344647404999472","0.37924284671256947","0","","","","","",""
"","do_trial","258","1430087","0.0-234.0-0.0","330.40000009536743","","","","50","1,0,0","4","coast","185","probe-239","0.6603763719403878","0.17178012273381846","0.3719253790631636","0","","","","","",""
"","do_trial","259","1435900","0.0-235.0-0.0","245.5","","","","51","1,0,1","4","coast","186","probe-162","0.6955713929087446","0.15163811033966829","0.4560923179401954","1","","","","","",""
"","do_trial","260","1442314","0.0-236.0-0.0","853","","","","51","0,1,0","4","coast","187","probe-131","0.8146026782953817","0.10097048008533835","0.28420208809582626","0","","","","","",""
"","do_trial","261","1448254","0.0-237.0-0.0","330.09999990463257","","","","50","1,1,1","4","coast","188","probe-217","0.7648133406011279","0.1540519725452704","0.2119019677419567","1","","","","","",""
"","do_trial","262","1454117","0.0-238.0-0.0","278","","","","50","0,0,0","4","coast","189","probe-152","0.6425509658390874","0.21481591653710197","0.42426985345141377","0","","","","","",""
"","do_trial","263","1460077","0.0-239.0-0.0","404.2999997138977","","","","50","1,0,0","4","coast","190","probe-159","0.7260371893979601","0.05127617038225198","0.4689387849343965","0","","","","","",""
"","do_trial","264","1466057","0.0-240.0-0.0","417.19999980926514","","","","51","1,0,1","4","coast","191","probe-80","0.8837069275632848","0.0802238398059124","0.5035728416877373","1","","","","","",""
"","do_trial","265","1472408","0.0-241.0-0.0","786.2999997138977","","","","51","0,0,1","4","coast","192","probe-233","0.8076865773978623","0.13788636368535273","0.6256386960352281","1","","","","","",""
"","do_trial","266","1478510","0.0-242.0-0.0","538.5999999046326","","","","51","1,0,1","4","coast","193","probe-105","0.6174217982746404","0.15339735618352643","0.5587978228132124","1","","","","","",""
"","do_trial","267","1485539","0.0-243.0-0.0","1463.3000001907349","","","","51","0,0,0","4","coast","194","probe-237","0.6533913396498909","0.05814120227913321","0.3564726018452086","0","","","","","",""
"","do_trial","268","1493417","0.0-244.0-0.0","2308.9000000953674","","","","51","0,0,1","4","coast","195","probe-119","0.666514773087112","0.1581010114293626","0.2899118367958176","1","","","","","",""
"","do_trial","269","1500183","0.0-245.0-0.0","1209.2000002861023","","","","51","0,1,0","4","coast","196","probe-27","0.7609783560873241","0.22411590224037642","0.5341207948662957","0","","","","","",""
"","do_trial","270","1506249","0.0-246.0-0.0","null","","","","null","1,1,0","4","coast","197","probe-223","0.8163935516359879","0.09314402639146258","0.5548904877206274","","","","","","",""
"","do_trial","271","1512954","0.0-247.0-0.0","1142.9000000953674","","","","50","1,0,0","4","coast","198","probe-59","0.7908704502802398","0.19806856163221434","0.3543555133066175","0","","","","","",""
"","do_trial","272","1520501","0.0-248.0-0.0","1967.7000002861023","","","","50","1,0,1","4","coast","199","probe-94","0.753198297801643","0.2117206295102335","0.31574259497876606","0","","","","","",""
"","do_bye","273","1522010","0.0-249.0-0.0","null","","","","null","","","","","","","","","","","","","","",""
"","do_travel","274","1528016","0.0-250.0-0.0","null","","","","null","","","","","","","","","","","","","","",""
"","do_welcome","275","1529528","0.0-250.0-1.0","null","","","","null","","","","","","","","","","","","","","",""
"","do_trial","276","1536288","0.0-251.0-0.0","1193","","","","49","1,0,1","5","city","200","probe-37","1","0.18491100292407503","0.30008481972289536","1","","","","","",""
"","do_trial","277","1542215","0.0-252.0-0.0","366.90000009536743","","","","49","1,0,0","5","city","201","probe-20","1","0.13591292935586538","0.16950020044685318","1","","","","","",""
"","do_trial","278","1548071","0.0-253.0-0.0","286.90000009536743","","","","49","1,0,1","5","city","202","probe-211","1","0.18848570187808963","0.11605527991044914","1","","","","","",""
"","do_trial","279","1553721","0.0-254.0-0.0","84.89999961853027","","","","49","1,0,0","5","city","203","probe-189","1","0.15994307320176643","0.40235591464969306","1","","","","","",""
"","do_trial","280","1559530","0.0-255.0-0.0","245.19999980926514","","","","49","1,0,0","5","city","204","probe-197","0.7390639157278623","0.194561999674059","0.4714433076461299","1","","","","","",""
"","do_trial","281","1565255","0.0-256.0-0.0","163.90000009536743","","","","49","1,0,0","5","city","205","probe-164","0.7242534477891133","0.10900033033334544","0.35994893137699746","1","","","","","",""
"","do_trial","282","1571119","0.0-257.0-0.0","287.5","","","","49","1,0,1","5","city","206","probe-99","0.8395780121952967","0.12698385228939693","0.4770884612177089","1","","","","","",""
"","do_trial","283","1577003","0.0-258.0-0.0","298.09999990463257","","","","49","1,0,1","5","city","207","probe-14","0.7049993120877504","0.11180018005189689","0.448379631226449","1","","","","","",""
"","do_trial","284","1582765","0.0-259.0-0.0","183.39999961853027","","","","49","0,0,0","5","city","208","probe-36","0.7741747021407105","0.1530926389663582","0.5084288667195052","0","","","","","",""
"","do_trial","285","1588538","0.0-260.0-0.0","202.40000009536743","","","","50","0,0,1","5","city","209","probe-19","0.782673022350211","0.09650379671797925","0.5883757417185257","0","","","","","",""
"","do_trial","286","1594703","0.0-261.0-0.0","602.0999999046326","","","","51","0,1,0","5","city","210","probe-151","0.6813296710715782","0.2279765798631288","0.6763262983113469","0","","","","","",""
"","do_trial","287","1600287","0.0-262.0-0.0","0.40000009536743164","","","","50","1,0,0","5","city","211","probe-138","0.30925444374292765","0.21611668232792292","0.7325890925271937","0","","","","","",""
"","do_trial","288","1606112","0.0-263.0-0.0","250.89999961853027","","","","51","0,0,1","5","city","212","probe-67","0.30823792724915433","0.17322700789172957","0.7240182529996025","1","","","","","",""
"","do_trial","289","1611860","0.0-264.0-0.0","152.90000009536743","","","","51","1,1,0","5","city","213","probe-236","0.3086131408260177","0.3113458358537141","0.700402238273822","0","","","","","",""
"","do_trial","290","1617704","0.0-265.0-0.0","260.40000009536743","","","","49","0,0,1","5","city","214","probe-210","0.23436596540207902","0.2068928868192581","0.8089710051083867","0","","","","","",""
"","do_trial","291","1623641","0.0-266.0-0.0","368.1000003814697","","","","50","0,0,0","5","city","215","probe-32","0.17916275465590845","0.23769731042176354","0.6910924616335993","0","","","","","",""
"","do_trial","292","1629254","0.0-267.0-0.0","23.700000286102295","","","","49","1,0,1","5","city","216","probe-157","0.20377498583261716","0.38764277337559344","0.6393769711795024","1","","","","","",""
"","do_trial","293","1635312","0.0-268.0-0.0","487.3999996185303","","","","49","0,1,1","5","city","217","probe-207","0.20095757249805174","0.4435458892958497","0.7247832665033106","0","","","","","",""
"","do_trial","294","1641196","0.0-269.0-0.0","307.19999980926514","","","","51","0,1,1","5","city","218","probe-66","0.22998095621975906","0.467625006411641","0.7637600673404383","1","","","","","",""
"","do_trial","295","1647174","0.0-270.0-0.0","388.6000003814697","","","","50","0,1,0","5","city","219","probe-158","0.3567542039224203","0.40717299585412586","0.8434620968144908","1","","","","","",""
"","do_trial","296","1653037","0.0-271.0-0.0","278.90000009536743","","","","50","0,0,1","5","city","220","probe-171","0.33807288696235965","0.46486490503923095","0.8380206342897119","0","","","","","",""
"","do_trial","297","1658877","0.0-272.0-0.0","257.80000019073486","","","","51","0,0,1","5","city","221","probe-72","0.23417731839445224","0.2337389327806634","0.8491116278979675","1","","","","","",""
"","do_trial","298","1665808","0.0-273.0-0.0","1360.7000002861023","","","","51","0,0,1","5","city","222","probe-155","0.24893282785534893","0.27636363612974096","0.6949693722289174","1","","","","","",""
"","do_trial","299","1671946","0.0-274.0-0.0","559.4000000953674","","","","51","0,1,0","5","city","223","probe-202","0.15556299794902154","0.43366005308084604","0.6855965977425827","0","","","","","",""
"","do_trial","300","1677813","0.0-275.0-0.0","284.80000019073486","","","","50","0,0,1","5","city","224","probe-219","0.15659545065723096","0.43378041476335943","0.8441171548701519","0","","","","","",""
"","do_trial","301","1683801","0.0-276.0-0.0","390","","","","49","0,0,1","5","city","225","probe-112","0.1913766664281397","0.39006115521903995","0.8734521092571148","0","","","","","",""
"","do_trial","302","1689741","0.0-277.0-0.0","376.5","","","","50","0,1,1","5","city","226","probe-06","0.1747170404593495","0.2848584710149436","0.8789892257953154","1","","","","","",""
"","do_trial","303","1695506","0.0-278.0-0.0","202.2999997138977","","","","50","1,0,0","5","city","227","probe-16","0.3218660930619417","0.2962616534065885","0.8715574758407162","0","","","","","",""
"","do_trial","304","1701437","0.0-279.0-0.0","385","","","","49","0,0,0","5","city","228","probe-137","0.15367604116668107","0.22929721337248296","0.9087561915574176","0","","","","","",""
"","do_trial","305","1708678","0.0-280.0-0.0","1673.0999999046326","","","","51","1,0,0","5","city","229","probe-07","0.1818080087181383","0.3096124389320744","0.8076879809327896","0","","","","","",""
"","do_trial","306","1714287","0.0-281.0-0.0","41.09999990463257","","","","50","0,0,1","5","city","230","probe-192","0.22791523993343546","0.193314942754173","0.7751321013571534","0","","","","","",""
"","do_trial","307","1720180","0.0-282.0-0.0","303.30000019073486","","","","49","0,0,1","5","city","231","probe-110","0.09366779367512518","0.25804540372911156","0.542885064762391","0","","","","","",""
"","do_trial","308","1726239","0.0-283.0-0.0","498.59999990463257","","","","50","0,0,1","5","city","232","probe-25","0.16730888124232857","0.15555724855672096","0.4970987254897122","0","","","","","",""
"","do_trial","309","1732146","0.0-284.0-0.0","345.19999980926514","","","","51","1,1,1","5","city","233","probe-63","0.1199073097140936","0.30259070807522326","0.6234873986270056","1","","","","","",""
"","do_trial","310","1739709","0.0-285.0-0.0","1999","","","","51","0,1,0","5","city","234","probe-208","0.22467040665428697","0.3644650741806339","0.7233218133884691","0","","","","","",""
"","do_trial","311","1745351","0.0-286.0-0.0","79.5","","","","49","0,0,0","5","city","235","probe-09","0.39005326194420614","0.40583677204112306","0.6818162489575685","0","","","","","",""
"","do_trial","312","1751348","0.0-287.0-0.0","435","","","","50","1,0,1","5","city","236","probe-144","0.39184012166442705","0.34346468939051","0.5068402930826194","0","","","","","",""
"","do_trial","313","1757005","0.0-288.0-0.0","86","","","","49","0,0,1","5","city","237","probe-77","0.35918677620370276","0.49425289225179647","0.577420978702561","0","","","","","",""
"","do_trial","314","1762843","0.0-289.0-0.0","267.5","","","","50","0,0,0","5","city","238","probe-51","0.2291572370322264","0.47294894902491214","0.6350124635897172","0","","","","","",""
"","do_trial","315","1769338","0.0-290.0-0.0","923.9000000953674","","","","51","0,0,1","5","city","239","probe-05","0.12885286398627505","0.6305822964267158","0.6906495478483978","1","","","","","",""
"","do_bye","316","1770847","0.0-291.0-0.0","null","","","","null","","","","","","","","","","","","","","",""
"","html-keyboard-response","317","1776602","0.0-291.0-1.0","5752.199999809265","<div class='center'><p>You may take a break now!</p><p> Stretch for a little bit. Get a glass of water.</p><p> You have two minutes to rest. Then, the game will automatically move on.</p><p>If you’d like to get started on the second half of the experiment sooner, then press the <b>space bar</b></p></div>","32","","","","","","","","","","","","","","","","",""
"","html-keyboard-response","318","1784139","0.0-291.0-2.0","7533.900000095367","<div class='center'><p>You’ve arrived at the final destination of your journey! Unfortunately, it’s very foggy out, so you won’t be able to see it in the distance like in previous places you've visited.</p><p>You’ll still be deciding which pirates you want to rob ships. However, because of the fog you also won’t be able to see the ship in the distance. </p><p><b>[Press the space bar to continue]</b></p></div>","32","","","","","","","","","","","","","","","","",""
"","html-keyboard-response","319","1812650","0.0-291.0-3.0","28508.599999904633","<div class='center'><p> Sometimes you’ll be asked if you’ve seen a ship before (see the example below). You will use the 5, 6, 7, 8 buttons on your keyboard to respond. </p><p> If you definitely did not see the ship, pick the the big red thumbs down by pressing <b>5</b>.</p><p> If you don’t think you saw it but aren’t sure, then pick the small red thumbs down by pressing <b>6</b>.</p><p> If you think you might have seen it, then pick the small green thumbs up by pressing <b>7</b>.</p><p> If you definitely did see this ship before, then pick the big thumb green thumbs up by pressing <b>8</b>.</p><p> If you recall correctly, then you’ll get a gold coin!</p><p><b>[Press the space bar to begin the next phase of the experiment]</b></p><p><img src='run_exp/static/images/example_recog_trial.png' height='500'></p></div>","32","","","","","","","","","","","","","","","","",""
"","do_welcome","320","1814159","0.0-291.0-4.0","null","","","","null","","","","","","","","","","","","","","",""
"","do_trial","321","1820245","0.0-292.0-0.0","null","","","","null","1,0,1","6","blank","240","null","0.2088171240239442","0.564197286257031","1","","","","","","",""
"","do_trial","322","1824443","0.0-293.0-0.0","620","","","","49","0,1,1","6","blank","241","null","0.17073787365811627","0.5586879077906941","0.8928354495529631","0","","","","","",""
"","do_trial","323","1829256","0.0-294.0-0.0","1242.3000001907349","","","","50","1,0,1","6","blank","242","null","0.12348597363356917","0.6427093426937718","0.8396429272817504","0","","","","","",""
"","do_trial","324","1833251","0.0-295.0-0.0","420.19999980926514","","","","51","0,1,1","6","blank","243","null","0.06257735978551654","0.6112142276929715","0.8719208187944658","1","","","","","",""
"","do_recog","325","1837620","0.0-296.0-0.0","2853.9000000953674","","","","53","","","","244","probe-45","","","","","1","[object Object]","88","2","0",""
"","do_trial","326","1842317","0.0-297.0-0.0","1130.1999998092651","","","","50","0,1,1","6","blank","245","null","0.12546609965481856","0.5251574835980796","0.8597520324886929","1","","","","","",""
"","do_trial","327","1847030","0.0-298.0-0.0","1130.9000000953674","","","","51","0,1,0","6","blank","246","null","0.07507273239910092","0.4595957428758346","0.8859853448859449","0","","","","","",""
"","do_trial","328","1850668","0.0-299.0-0.0","62.40000009536743","","","","50","0,1,1","6","blank","247","null","0.10358690954201646","0.4101590200608735","0.8331229624518338","1","","","","","",""
"","do_trial","329","1855520","0.0-300.0-0.0","1282.1000003814697","","","","50","0,0,1","6","blank","248","null","0.10241977148516526","0.31841285274761566","0.9007981302764246","0","","","","","",""
"","do_trial","330","1859505","0.0-301.0-0.0","401","","","","49","1,0,1","6","blank","249","null","0.06391038479935515","0.3334021649701066","0.8689537742533565","1","","","","","",""
"","do_recog","331","1863411","0.0-302.0-0.0","2390.300000190735","","","","54","","","","250","probe-114","","","","","1","[object Object]","43","1","0",""
"","do_trial","332","1867528","0.0-303.0-0.0","548.9000000953674","","","","50","1,0,1","6","blank","251","null","0.10053578269885664","0.28193618996751435","0.8535564619260784","0","","","","","",""
"","do_recog","333","1870985","0.0-304.0-0.0","1942.5","","","","55","","","","252","probe-55","","","","","1","[object Object]","80","2","1",""
"","do_trial","334","1875070","0.0-305.0-0.0","509.30000019073486","","","","49","0,1,1","6","blank","253","null","0.40276653775508464","0.228694266926847","0.5993578187364592","0","","","","","",""
"","do_recog","335","1878265","0.0-306.0-0.0","1677.8000001907349","","","","55","","","","254","probe-62","","","","","1","[object Object]","81","2","1",""
"","do_trial","336","1882571","0.0-307.0-0.0","728.0999999046326","","","","49","0,0,1","6","blank","255","null","0.5301792073653545","0.2570354520846231","0.4282877610515359","0","","","","","",""
"","do_trial","337","1886510","0.0-308.0-0.0","359.6000003814697","","","","50","1,0,0","6","blank","256","null","0.5829825818238249","0.37927194189081725","0.35162827940391217","0","","","","","",""
"","do_trial","338","1890394","0.0-309.0-0.0","318.30000019073486","","","","51","1,0,0","6","blank","257","null","0.6882343158726133","0.3583642957014034","0.27960509917214216","0","","","","","",""
"","do_trial","339","1894259","0.0-310.0-0.0","299.7000002861023","","","","49","1,0,0","6","blank","258","null","0.6332371968369603","0.39447956655177135","0.30398041074354804","1","","","","","",""
"","do_recog","340","1897473","0.0-311.0-0.0","1699","","","","56","","","","259","probe-20","","","","","1","[object Object]","201","5","1",""
"","do_trial","341","1901703","0.0-312.0-0.0","650.9000000953674","","","","49","0,0,0","6","blank","260","null","0.7752607928448816","0.36963833089899034","0.1382351108194031","0","","","","","",""
"","do_trial","342","1905537","0.0-313.0-0.0","256.09999990463257","","","","50","1,0,1","6","blank","261","null","0.716243756792905","0.4909289464812977","0.10463423846946578","0","","","","","",""
"","do_recog","343","1908714","0.0-314.0-0.0","1662.6999998092651","","","","53","","","","262","probe-42","","","","","1","[object Object]","84","2","0",""
"","do_trial","344","1913020","0.0-315.0-0.0","722","","","","51","0,1,0","6","blank","263","null","0.8539395817840226","0.4981677258104486","0.05267732937788754","0","","","","","",""
"","do_recog","345","1917337","0.0-316.0-0.0","2802.800000190735","","","","54","","","","264","probe-221","","","","","1","[object Object]","87","2","0",""
"","do_trial","346","1921266","0.0-317.0-0.0","365.3999996185303","","","","49","1,0,0","6","blank","265","null","0.9327102046393813","0.44829779153910104","0.1358129305139374","1","","","","","",""
"","do_trial","347","1925143","0.0-318.0-0.0","332.2999997138977","","","","49","1,0,0","6","blank","266","null","0.8237321462499958","0.4222257556996839","0.11719236010605302","1","","","","","",""
"","do_recog","348","1928207","0.0-319.0-0.0","1550.4000000953674","","","","55","","","","267","probe-139","","","","","1","[object Object]","44","1","1",""
"","do_trial","349","1932184","0.0-320.0-0.0","392.59999990463257","","","","49","1,1,0","6","blank","268","null","0.8088787737445583","0.429219763431403","0.16765669749456322","1","","","","","",""
"","do_recog","350","1934669","0.0-321.0-0.0","972.2999997138977","","","","56","","","","269","probe-21","","","","","1","[object Object]","168","4","1",""
"","do_trial","351","1938510","0.0-322.0-0.0","263.59999990463257","","","","50","1,1,0","6","blank","270","null","0.8493595019719888","0.5867355737214652","0.058608456805395406","1","","","","","",""
"","do_trial","352","1942630","0.0-323.0-0.0","541","","","","50","1,0,1","6","blank","271","null","0.8475579944156201","0.44344398429604737","0.08992595896360088","0","","","","","",""
"","do_trial","353","1946523","0.0-324.0-0.0","332.5","","","","51","0,0,0","6","blank","272","null","0.7782484028901445","0.4482364635232705","0.07588392402294847","0","","","","","",""
"","do_trial","354","1950498","0.0-325.0-0.0","402.7999997138977","","","","49","0,0,0","6","blank","273","null","0.8291698002044717","0.354978354001843","0.08756873579211277","0","","","","","",""
"","do_recog","355","1953099","0.0-326.0-0.0","1086.7000002861023","","","","56","","","","274","probe-258","","","","","0","[object Object]","null","null","0",""
"","do_trial","356","1957055","0.0-327.0-0.0","382.1000003814697","","","","50","0,1,1","6","blank","275","null","0.715069072894268","0.4277017706852149","0.06091304246047028","1","","","","","",""
"","do_recog","357","1959858","0.0-328.0-0.0","1288.4000000953674","","","","56","","","","276","probe-164","","","","","1","[object Object]","205","5","1",""
"","do_trial","358","1963814","0.0-329.0-0.0","392.7999997138977","","","","50","1,0,0","6","blank","277","null","0.6871341004099563","0.43542037151384433","0.05389098423660526","0","","","","","",""
"","do_recog","359","1966981","0.0-330.0-0.0","1654.8000001907349","","","","56","","","","278","probe-197","","","","","1","[object Object]","204","5","1",""
"","do_trial","360","1970929","0.0-331.0-0.0","371","","","","49","0,0,0","6","blank","279","null","0.5501393178385803","0.3070211577796583","0.11511724702069782","0","","","","","",""
"","do_recog","361","1974234","0.0-332.0-0.0","1791.5","","","","55","","","","280","probe-203","","","","","1","[object Object]","126","3","1",""
"","do_trial","362","1978183","0.0-333.0-0.0","365.19999980926514","","","","50","1,0,0","6","blank","281","null","0.6585414020354117","0.43490610835789567","0.10256285375908648","0","","","","","",""
"","do_recog","363","1980638","0.0-334.0-0.0","941.1999998092651","","","","56","","","","282","probe-36","","","","","1","[object Object]","208","5","1",""
"","do_trial","364","1984726","0.0-335.0-0.0","512.7000002861023","","","","51","1,0,1","6","blank","283","null","0.6354213329809871","0.4368042799366483","0.17864205382655649","1","","","","","",""
"","do_recog","365","1986967","0.0-336.0-0.0","725.5","","","","56","","","","284","probe-199","","","","","1","[object Object]","162","4","1",""
"","do_trial","366","1990934","0.0-337.0-0.0","392.30000019073486","","","","51","1,0,0","6","blank","285","null","1","0.39127450183594975","0.08764189088344063","0","","","","","",""
"","do_recog","367","1993305","0.0-338.0-0.0","855.9000000953674","","","","56","","","","286","probe-211","","","","","1","[object Object]","202","5","1",""
"","do_trial","368","1997317","0.0-339.0-0.0","442.40000009536743","","","","49","1,1,0","6","blank","287","null","0.8427736063645171","0.4849040253742903","0.15801743237176286","1","","","","","",""
"","do_recog","369","1999470","0.0-340.0-0.0","639.1999998092651","","","","56","","","","288","probe-255","","","","","0","[object Object]","null","null","0",""
"","do_trial","370","2003308","0.0-341.0-0.0","258.80000019073486","","","","49","1,1,0","6","blank","289","null","0.8113928194810839","0.6723276631455278","0.07893891722127344","1","","","","","",""
"","do_recog","371","2005493","0.0-342.0-0.0","676.9000000953674","","","","56","","","","290","probe-81","","","","","1","[object Object]","160","4","1",""
"","do_trial","372","2009525","0.0-343.0-0.0","458.19999980926514","","","","49","1,0,1","6","blank","291","null","0.7349938925187022","0.5443590009207138","0.09622278573468597","1","","","","","",""
"","do_recog","373","2015535","0.0-344.0-0.0","null","","","","null","","","","292","probe-78","","","","","1","[object Object]","42","1","0",""
"","do_trial","374","2019463","0.0-345.0-0.0","359.69999980926514","","","","49","1,0,1","6","blank","293","null","0.8002536583413941","0.5076508113146304","0.11504863967316899","1","","","","","",""
"","do_trial","375","2023653","0.0-346.0-0.0","610.8000001907349","","","","49","0,1,0","6","blank","294","null","0.7133657152169456","0.41147346348375197","0.0708917572216543","0","","","","","",""
"","do_trial","376","2027709","0.0-347.0-0.0","478.69999980926514","","","","50","1,0,0","6","blank","295","null","0.636022287872467","0.4260011544440755","0.07912032706866426","0","","","","","",""
"","do_trial","377","2031600","0.0-348.0-0.0","317.40000009536743","","","","51","0,1,0","6","blank","296","null","0.5574754070608521","0.4867458822256178","0.05208414896515265","0","","","","","",""
"","do_recog","378","2034111","0.0-349.0-0.0","993.9000000953674","","","","56","","","","297","probe-123","","","","","1","[object Object]","46","1","1",""
"","do_trial","379","2038141","0.0-350.0-0.0","472","","","","49","1,0,0","6","blank","298","null","0.6717060131100897","0.44180023761453086","0.10035692983933898","1","","","","","",""
"","do_trial","380","2042156","0.0-351.0-0.0","454","","","","49","0,0,0","6","blank","299","null","0.8191584115678575","0.4291135431141928","0.22938119214602665","0","","","","","",""
"","do_recog","381","2044776","0.0-352.0-0.0","1107.3000001907349","","","","55","","","","300","probe-10","","","","","1","[object Object]","165","4","1",""
"","do_trial","382","2048624","0.0-353.0-0.0","283.09999990463257","","","","50","0,0,0","6","blank","301","null","0.772555927945192","0.27186237773005306","0.18674344042351507","0","","","","","",""
"","do_recog","383","2051287","0.0-354.0-0.0","1148.5","","","","55","","","","302","probe-242","","","","","0","[object Object]","null","null","0",""
"","do_trial","384","2055748","0.0-355.0-0.0","898","","","","51","1,0,0","6","blank","303","null","0.6751406416634826","0.275628238460643","0.22705076174691868","0","","","","","",""
"","do_recog","385","2058827","0.0-356.0-0.0","1565.4000000953674","","","","56","","","","304","probe-259","","","","","0","[object Object]","null","null","0",""
"","do_trial","386","2062910","0.0-357.0-0.0","494.09999990463257","","","","49","0,0,1","6","blank","305","null","0.4703130363436466","0.3445053440055609","0.4016769605028428","0","","","","","",""
"","do_recog","387","2065381","0.0-358.0-0.0","959.0999999046326","","","","55","","","","306","probe-189","","","","","1","[object Object]","203","5","1",""
"","do_trial","388","2069432","0.0-359.0-0.0","455.90000009536743","","","","50","0,1,1","6","blank","307","null","0.38390967503785706","0.4063197689647499","0.5362802377597068","1","","","","","",""
"","do_recog","389","2072800","0.0-360.0-0.0","1855.1999998092651","","","","53","","","","308","probe-257","","","","","0","[object Object]","null","null","1",""
"","do_trial","390","2076876","0.0-361.0-0.0","514.9000000953674","","","","50","1,0,1","6","blank","309","null","0.15979443387652636","0.5128722545458176","0.7679082772884731","0","","","","","",""
"","do_recog","391","2080049","0.0-362.0-0.0","1657.5999999046326","","","","53","","","","310","probe-256","","","","","0","[object Object]","null","null","1",""
"","do_trial","392","2083958","0.0-363.0-0.0","319.3999996185303","","","","49","0,0,1","6","blank","311","null","0.10396282663029054","0.3587064502307945","0.7679751919318513","0","","","","","",""
"","do_recog","393","2087260","0.0-364.0-0.0","1787.7999997138977","","","","54","","","","312","probe-91","","","","","1","[object Object]","48","1","0",""
"","do_trial","394","2091390","0.0-365.0-0.0","558.0999999046326","","","","50","0,1,1","6","blank","313","null","0.17903258076632658","0.25886610215140005","0.8044013595276311","1","","","","","",""
"","do_recog","395","2093748","0.0-366.0-0.0","844.7000002861023","","","","56","","","","314","probe-165","","","","","1","[object Object]","164","4","1",""
"","do_trial","396","2097711","0.0-367.0-0.0","394.19999980926514","","","","51","0,1,0","6","blank","315","null","0.11214929539213742","0.2935919887704624","0.652327947877012","0","","","","","",""
"","do_recog","397","2103724","0.0-368.0-0.0","null","","","","null","","","","316","probe-85","","","","","1","[object Object]","47","1","0",""
"","do_trial","398","2107941","0.0-369.0-0.0","643.4000000953674","","","","49","0,0,1","6","blank","317","null","0.12783595123699673","0.42470620169045836","0.647697016373475","0","","","","","",""
"","do_recog","399","2110315","0.0-370.0-0.0","861","","","","55","","","","318","probe-196","","","","","1","[object Object]","163","4","1",""
"","do_trial","400","2114516","0.0-371.0-0.0","622.4000000953674","","","","50","0,0,1","6","blank","319","null","0.058232709350156175","0.41713134345676955","0.8067890547094105","0","","","","","",""
"","do_trial","401","2118906","0.0-372.0-0.0","812.2999997138977","","","","50","0,1,0","6","blank","320","null","0.0586129142939531","0.40349710638633013","0.7481249785461008","1","","","","","",""
"","do_trial","402","2123106","0.0-373.0-0.0","634.3999996185303","","","","50","0,0,1","6","blank","321","null","0.1672244698216096","0.5463654880805305","0.778423237120312","0","","","","","",""
"","do_recog","403","2126660","0.0-374.0-0.0","2041.5999999046326","","","","55","","","","322","probe-23","","","","","1","[object Object]","45","1","1",""
"","do_trial","404","2132584","0.0-375.0-0.0","2348.4000000953674","","","","50","1,0,0","6","blank","323","null","0.18809097478114425","0.5056005558570132","0.7203863944178452","0","","","","","",""
"","do_trial","405","2137869","0.0-376.0-0.0","1721.5999999046326","","","","50","0,0,1","6","blank","324","null","0.157179725427244","0.31318102412675236","0.7504475836683979","0","","","","","",""
"","do_trial","406","2142139","0.0-377.0-0.0","697.6999998092651","","","","50","0,1,1","6","blank","325","null","0.1779777038677817","0.2657394880714239","0.8392914671217767","1","","","","","",""
"","do_trial","407","2146217","0.0-378.0-0.0","503.40000009536743","","","","50","1,1,1","6","blank","326","null","0.21730117244280991","0.23728599425930078","0.7938251798641345","1","","","","","",""
"","do_trial","408","2150257","0.0-379.0-0.0","469.69999980926514","","","","50","0,0,1","6","blank","327","null","0.27140055839164623","0.32994699096287167","0.6692720923812311","0","","","","","",""
"","do_recog","409","2152639","0.0-380.0-0.0","867.9000000953674","","","","55","","","","328","probe-11","","","","","1","[object Object]","89","2","1",""
"","do_trial","410","2156806","0.0-381.0-0.0","583.8999996185303","","","","51","0,0,1","6","blank","329","null","0.09464061295254371","0.30919677797628164","0.7100058448423203","1","","","","","",""
"","do_trial","411","2161491","0.0-382.0-0.0","1108.1000003814697","","","","51","0,1,1","6","blank","330","null","0.05969291272458703","0.3680574179993402","0.6679303465194392","1","","","","","",""
"","do_trial","412","2165641","0.0-383.0-0.0","549.0999999046326","","","","51","0,0,0","6","blank","331","null","0.05769527740978644","0.4170503402441325","0.7238825691204319","0","","","","","",""
"","do_trial","413","2169743","0.0-384.0-0.0","549.7999997138977","","","","49","0,1,1","6","blank","332","null","0.12676357866821802","0.36160315417390576","1","0","","","","","",""
"","do_trial","414","2173741","0.0-385.0-0.0","413.5","","","","50","0,0,1","6","blank","333","null","0.18224894016890875","0.31753663438714846","0.9230093333896678","0","","","","","",""
"","do_trial","415","2177597","0.0-386.0-0.0","290.09999990463257","","","","51","0,0,0","6","blank","334","null","0.2318838923589425","0.45629955702930985","0.8760217974811864","0","","","","","",""
"","do_trial","416","2181645","0.0-387.0-0.0","481.40000009536743","","","","49","1,1,0","6","blank","335","null","0.19752435064412446","0.3654945390277624","0.8947794665747503","1","","","","","",""
"","do_recog","417","2184482","0.0-388.0-0.0","1323.3000001907349","","","","56","","","","336","probe-120","","","","","1","[object Object]","161","4","1",""
"","do_trial","418","2188611","0.0-389.0-0.0","550.4000000953674","","","","49","0,0,1","6","blank","337","null","0.11366185388407636","0.3656449534662252","0.9077687596682136","0","","","","","",""
"","do_trial","419","2192407","0.0-390.0-0.0","222.7999997138977","","","","50","1,0,0","6","blank","338","null","0.08425000461159479","0.35669954137040977","0.8923534773160737","0","","","","","",""
"","do_trial","420","2196110","0.0-391.0-0.0","141.7000002861023","","","","51","0,0,0","6","blank","339","null","0.09885896341916921","0.3610784853703472","0.9008231737414663","0","","","","","",""
"","do_trial","421","2199931","0.0-392.0-0.0","234.80000019073486","","","","50","0,0,1","6","blank","340","null","0.26296909552012787","0.3839965506773689","0.9340571069472923","0","","","","","",""
"","do_recog","422","2202309","0.0-393.0-0.0","864.0999999046326","","","","56","","","","341","probe-172","","","","","1","[object Object]","86","2","1",""
"","do_trial","423","2206536","0.0-394.0-0.0","666.9000000953674","","","","49","0,0,1","6","blank","342","null","0.060108184988432165","0.3705625380407311","0.8918151766575426","0","","","","","",""
"","do_trial","424","2210414","0.0-395.0-0.0","302.69999980926514","","","","50","0,0,1","6","blank","343","null","0.09192452498831298","0.42163093470775403","0.7876345606227877","0","","","","","",""
"","do_trial","425","2214309","0.0-396.0-0.0","336.40000009536743","","","","51","0,0,1","6","blank","344","null","0.4296077147263708","0.2834266513663802","0.5899449377658981","1","","","","","",""
"","do_recog","426","2216826","0.0-397.0-0.0","1004.5","","","","56","","","","345","probe-14","","","","","1","[object Object]","207","5","1",""
"","do_trial","427","2220999","0.0-398.0-0.0","596","","","","51","1,0,1","6","blank","346","null","0.64371642271962","0.3480285335613775","0.5193813213610925","1","","","","","",""
"","do_recog","428","2223195","0.0-399.0-0.0","681.6999998092651","","","","56","","","","347","probe-19","","","","","1","[object Object]","209","5","1",""
"","do_trial","429","2227206","0.0-400.0-0.0","454.3999996185303","","","","51","1,0,0","6","blank","348","null","0.5650518244588714","0.45254243835755154","0.43470998143948414","0","","","","","",""
"","do_trial","430","2231564","0.0-401.0-0.0","784.4000000953674","","","","50","0,0,0","6","blank","349","null","0.6714568165249147","0.3043835179782743","0.21795181298960128","0","","","","","",""
"","do_recog","431","2233759","0.0-402.0-0.0","681.9000000953674","","","","56","","","","350","probe-116","","","","","1","[object Object]","122","3","1",""
"","do_trial","432","2237875","0.0-403.0-0.0","531.0999999046326","","","","50","1,1,0","6","blank","351","null","0.6617917129046319","0.23452275981161044","0.2650929815510362","1","","","","","",""
"","do_recog","433","2240054","0.0-404.0-0.0","664.1999998092651","","","","56","","","","352","probe-04","","","","","1","[object Object]","82","2","1",""
"","do_trial","434","2244227","0.0-405.0-0.0","623.6000003814697","","","","51","1,0,0","6","blank","353","null","0.7512685482396804","0.4085294612242755","0.15025262912674936","0","","","","","",""
"","do_recog","435","2246351","0.0-406.0-0.0","610.6000003814697","","","","56","","","","354","probe-227","","","","","1","[object Object]","129","3","1",""
"","do_trial","436","2250357","0.0-407.0-0.0","445.30000019073486","","","","49","1,1,0","6","blank","355","null","0.678337954959157","0.39743876027695624","0.1360457332711286","1","","","","","",""
"","do_recog","437","2252940","0.0-408.0-0.0","1069.9000000953674","","","","55","","","","356","probe-166","","","","","1","[object Object]","40","1","1",""
"","do_trial","438","2256816","0.0-409.0-0.0","300.30000019073486","","","","49","0,0,0","6","blank","357","null","0.7451195943083697","0.43933484637306924","0.07710085538684933","0","","","","","",""
"","do_recog","439","2259457","0.0-410.0-0.0","1128.5","","","","55","","","","358","probe-69","","","","","1","[object Object]","85","2","1",""
"","do_trial","440","2263580","0.0-411.0-0.0","547","","","","50","1,1,0","6","blank","359","null","0.7463400335983106","0.3762459622346635","0.05305387867553831","1","","","","","",""
"","do_recog","441","2265739","0.0-412.0-0.0","644.7999997138977","","","","56","","","","360","probe-47","","","","","1","[object Object]","166","4","1",""
"","do_trial","442","2269947","0.0-413.0-0.0","641.5","","","","51","1,0,0","6","blank","361","null","0.6836498055911053","0.44289043005075185","0.05662595419421998","0","","","","","",""
"","do_recog","443","2272268","0.0-414.0-0.0","808.0999999046326","","","","56","","","","362","probe-26","","","","","1","[object Object]","83","2","1",""
"","do_trial","444","2276070","0.0-415.0-0.0","239.89999961853027","","","","50","1,1,1","6","blank","363","null","0.8061394391199431","0.3469079525203402","0.07428141852742634","1","","","","","",""
"","do_recog","445","2278557","0.0-416.0-0.0","979.9000000953674","","","","55","","","","364","probe-198","","","","","1","[object Object]","128","3","1",""
"","do_trial","446","2282621","0.0-417.0-0.0","465.40000009536743","","","","49","0,1,0","6","blank","365","null","0.6793503286178291","0.351503535977119","0.15925502719269916","0","","","","","",""
"","do_recog","447","2284957","0.0-418.0-0.0","823.9000000953674","","","","56","","","","366","probe-193","","","","","1","[object Object]","123","3","1",""
"","do_trial","448","2289038","0.0-419.0-0.0","518.9000000953674","","","","50","1,0,0","6","blank","367","null","0.7416611478912765","0.42060741354330844","0.08941518083541311","0","","","","","",""
"","do_recog","449","2292224","0.0-420.0-0.0","1673.4000000953674","","","","54","","","","368","probe-252","","","","","0","[object Object]","null","null","1",""
"","do_trial","450","2296267","0.0-421.0-0.0","477.2999997138977","","","","51","1,0,0","6","blank","369","null","0.7113394811636101","0.5082302595438638","0.09003202679147963","0","","","","","",""
"","do_trial","451","2300143","0.0-422.0-0.0","311.2999997138977","","","","50","1,1,0","6","blank","370","null","0.7202039460622711","0.5758304004001848","0.07538376490742145","1","","","","","",""
"","do_trial","452","2304044","0.0-423.0-0.0","342.40000009536743","","","","49","1,0,0","6","blank","371","null","0.8115833628053174","0.465632688190231","0.11900577117256407","1","","","","","",""
"","do_trial","453","2307999","0.0-424.0-0.0","386","","","","50","1,0,0","6","blank","372","null","0.9300433809421069","0.44834851112587254","0.06947465517518678","0","","","","","",""
"","do_trial","454","2311949","0.0-425.0-0.0","387.30000019073486","","","","49","1,0,0","6","blank","373","null","0.7430858439980659","0.33429781248752777","0.05261701016713646","1","","","","","",""
"","do_recog","455","2314598","0.0-426.0-0.0","1136.0999999046326","","","","55","","","","374","probe-97","","","","","1","[object Object]","169","4","1",""
"","do_trial","456","2318982","0.0-427.0-0.0","777.6999998092651","","","","49","1,0,0","6","blank","375","null","0.6370019674657992","0.3785567694525145","0.08770151885406473","1","","","","","",""
"","do_recog","457","2321220","0.0-428.0-0.0","723.8999996185303","","","","55","","","","376","probe-100","","","","","1","[object Object]","127","3","1",""
"","do_trial","458","2325081","0.0-429.0-0.0","282.3999996185303","","","","49","1,0,0","6","blank","377","null","0.6131525608482099","0.4027108786574952","0.10569033088908045","1","","","","","",""
"","do_trial","459","2328945","0.0-430.0-0.0","291.19999980926514","","","","50","1,1,0","6","blank","378","null","1","0.368995132470817","0.12233124590054464","1","","","","","",""
"","do_trial","460","2332873","0.0-431.0-0.0","362.5","","","","50","1,0,0","6","blank","379","null","0.9201987375085334","0.3875669445147099","0.09514202843062426","0","","","","","",""
"","do_trial","461","2336771","0.0-432.0-0.0","295.5","","","","49","1,0,0","6","blank","380","null","0.935624824583456","0.4507348449009174","0.0818185325102542","1","","","","","",""
"","do_trial","462","2340703","0.0-433.0-0.0","369.69999980926514","","","","49","1,0,0","6","blank","381","null","0.8518377177479758","0.47006965808958384","0.1140335821717391","1","","","","","",""
"","do_recog","463","2343135","0.0-434.0-0.0","917.9000000953674","","","","56","","","","382","probe-145","","","","","1","[object Object]","124","3","1",""
"","do_trial","464","2347380","0.0-435.0-0.0","688.2999997138977","","","","49","1,1,0","6","blank","383","null","0.7510884901777882","0.40419914386014294","0.24502169738810076","1","","","","","",""
"","do_recog","465","2349832","0.0-436.0-0.0","936.8999996185303","","","","55","","","","384","probe-71","","","","","1","[object Object]","120","3","1",""
"","do_trial","466","2353926","0.0-437.0-0.0","510.7000002861023","","","","49","0,1,0","6","blank","385","null","0.7075350602459136","0.29706490036594974","0.051956331146194565","0","","","","","",""
"","do_trial","467","2357815","0.0-438.0-0.0","325.2000002861023","","","","50","1,0,1","6","blank","386","null","0.7700156159454506","0.36254577841745034","0.1260704140944823","0","","","","","",""
"","do_trial","468","2361840","0.0-439.0-0.0","442.90000009536743","","","","51","0,0,0","6","blank","387","null","0.7493741535293689","0.33670140126048304","0.24004119958894912","0","","","","","",""
"","do_trial","469","2365846","0.0-440.0-0.0","438.2999997138977","","","","49","1,0,0","6","blank","388","null","0.786962312813168","0.37515148593785036","0.29396630691413084","1","","","","","",""
"","do_trial","470","2369843","0.0-441.0-0.0","440.40000009536743","","","","49","1,0,1","6","blank","389","null","0.8986829381662992","0.2765235134632432","0.2511652564001411","1","","","","","",""
"","do_trial","471","2374076","0.0-442.0-0.0","641.5","","","","49","0,1,0","6","blank","390","null","0.5856748126521194","0.5224485028909996","0.3028287657647498","0","","","","","",""
"","do_recog","472","2376324","0.0-443.0-0.0","735","","","","55","","","","391","probe-99","","","","","1","[object Object]","206","5","1",""
"","do_trial","473","2380225","0.0-444.0-0.0","319.2000002861023","","","","50","1,1,0","6","blank","392","null","0.38968016777585573","0.5578733680885692","0.32392575712917543","1","","","","","",""
"","do_trial","474","2384089","0.0-445.0-0.0","269.90000009536743","","","","50","1,1,0","6","blank","393","null","0.2513737856266342","0.7216751938287526","0.36486556224028144","1","","","","","",""
"","do_trial","475","2388183","0.0-446.0-0.0","519.6999998092651","","","","50","1,1,1","6","blank","394","null","0.20934032676621894","0.7442699565891207","0.4730241317009297","1","","","","","",""
