"success","trial_type","trial_index","time_elapsed","internal_node_id","rt","stimulus","key_press","subject_id","response","choice_outcomes","context_n","context_img_id","trial_n","probe_img_id","pR_red","pR_white","pR_black","outcome","is_valid","image_to_show","probed_trial","probed_context","correct","context_id"
"true","fullscreen","0","285807","0.0-0.0","","","","","","","","","","","","","","","","","","","",""
"","pavlovia","1","285816","0.0-1.0","","","","","","","","","","","","","","","","","","","",""
"","html-keyboard-response","2","300630","0.0-2.0","14809.200000047684","<div class='center'><p>Welcome! This experiment will last ~1 hour. In this experiment, you are the head captain of a pirate ship traveling around the world to different places. You will complete several different tasks during this experiment. Here is an overview of these tasks:</p><br><p>1. Tutorial and quiz</p><p>2. Pick a pirate game in 6 different places</p><p>3. Pick a pirate game and memory game</p><p>4. Final questions and payment</p><br><p>If you complete the entire experiment, you will receive $15 and a possible bonus payment.</p><p><b>[Press the space bar to begin the tutorial]</b></p></div>","32","60fd89696cfc5de1da988fff","","","","","","","","","","","","","","","",""
"","html-keyboard-response","3","309712","0.0-3.0","9078.699999809265","<div class='center'><p>You are the head captain of a pirate ship.</p><p> Your pirates rob other ships as they leave the marketplace port.</p> These ships have just sold all their goods at the marketplace, so they have lots and lots of gold on them.</p><p><img src='run_exp/static/images/ship_center.png' height='400'></p><p><b>[Press the space bar to continue]</b></p></div>","32","","","","","","","","","","","","","","","","",""
"","html-keyboard-response","4","336165","0.0-4.0","26451.700000047684","<div class='center'><p>As the head captain, you do not have to rob any ships yourself.</p><p>You get to choose which pirate you want to rob the next ship. </p><p>If they are successful at robbing the ship, then you will get gold coins.</p><p> If they are not successful, then you will get no gold coins.</p><p> The more coins you collect, the more bonus money you will win. So, choose your pirate wisely.</p><p><img src='run_exp/static/images/goal.png' height='400'></p><p><b>[Press the space bar to continue]</b></p><div>","32","","","","","","","","","","","","","","","","",""
"","html-keyboard-response","5","358447","0.0-5.0","22277.200000047684","<div class='center'><p>Even the most skilled pirate will not be able to rob EVERY ship.</p><p> Some ships will have very strong defenses against attacks.</p><p> For example, blue beard, here,  is very good at robbing ships.</p><p> You can press the <b>‘1’</b> button on the keyboard to choose him.</p><p> Try choosing him 10 times to see how often he is successful at robbing ships. </p><p><img src='run_exp/static/images/blue.png' height='500'></p></div>","49","","","","","","","","","","","","","","","","",""
"","html-keyboard-response","6","359953","0.0-6.0","null","<br><br><br><br><p><img src='run_exp/static/images/blue_win.png' height='500'></p>","null","","","","","","","","","","","","","","","","",""
"","html-keyboard-response","7","362196","0.0-7.0","2240.5999999046326","<br><br><br><br><p><img src='run_exp/static/images/blue.png' height='500'></p>","49","","","","","","","","","","","","","","","","",""
"","html-keyboard-response","8","363703","0.0-8.0","null","<br><br><br><br><p><img src='run_exp/static/images/blue_win.png' height='500'></p>","null","","","","","","","","","","","","","","","","",""
"","html-keyboard-response","9","364166","0.0-9.0","460","<br><br><br><br><p><img src='run_exp/static/images/blue.png' height='500'></p>","49","","","","","","","","","","","","","","","","",""
"","html-keyboard-response","10","365681","0.0-10.0","null","<br><br><br><br><p><img src='run_exp/static/images/blue_win.png' height='500'></p>","null","","","","","","","","","","","","","","","","",""
"","html-keyboard-response","11","365937","0.0-11.0","253.60000014305115","<br><br><br><br><p><img src='run_exp/static/images/blue.png' height='500'></p>","49","","","","","","","","","","","","","","","","",""
"","html-keyboard-response","12","367450","0.0-12.0","null","<br><br><br><br><p><img src='run_exp/static/images/blue_no_win.png' height='500'></p>","null","","","","","","","","","","","","","","","","",""
"","html-keyboard-response","13","367816","0.0-13.0","364.2999999523163","<br><br><br><br><p><img src='run_exp/static/images/blue.png' height='500'></p>","49","","","","","","","","","","","","","","","","",""
"","html-keyboard-response","14","369331","0.0-14.0","null","<br><br><br><br><p><img src='run_exp/static/images/blue_win.png' height='500'></p>","null","","","","","","","","","","","","","","","","",""
"","html-keyboard-response","15","369744","0.0-15.0","410.2999999523163","<br><br><br><br><p><img src='run_exp/static/images/blue.png' height='500'></p>","49","","","","","","","","","","","","","","","","",""
"","html-keyboard-response","16","371249","0.0-16.0","null","<br><br><br><br><p><img src='run_exp/static/images/blue_win.png' height='500'></p>","null","","","","","","","","","","","","","","","","",""
"","html-keyboard-response","17","371572","0.0-17.0","321","<br><br><br><br><p><img src='run_exp/static/images/blue.png' height='500'></p>","49","","","","","","","","","","","","","","","","",""
"","html-keyboard-response","18","373074","0.0-18.0","null","<br><br><br><br><p><img src='run_exp/static/images/blue_win.png' height='500'></p>","null","","","","","","","","","","","","","","","","",""
"","html-keyboard-response","19","373368","0.0-19.0","291.59999990463257","<br><br><br><br><p><img src='run_exp/static/images/blue.png' height='500'></p>","49","","","","","","","","","","","","","","","","",""
"","html-keyboard-response","20","374880","0.0-20.0","null","<br><br><br><br><p><img src='run_exp/static/images/blue_no_win.png' height='500'></p>","null","","","","","","","","","","","","","","","","",""
"","html-keyboard-response","21","375214","0.0-21.0","331.89999985694885","<br><br><br><br><p><img src='run_exp/static/images/blue.png' height='500'></p>","49","","","","","","","","","","","","","","","","",""
"","html-keyboard-response","22","376731","0.0-22.0","null","<br><br><br><br><p><img src='run_exp/static/images/blue_win.png' height='500'></p>","null","","","","","","","","","","","","","","","","",""
"","html-keyboard-response","23","377013","0.0-23.0","280.5","<br><br><br><br><p><img src='run_exp/static/images/blue.png' height='500'></p>","49","","","","","","","","","","","","","","","","",""
"","html-keyboard-response","24","378530","0.0-24.0","null","<br><br><br><br><p><img src='run_exp/static/images/blue_win.png' height='500'></p>","null","","","","","","","","","","","","","","","","",""
"","html-keyboard-response","25","383088","0.0-25.0","4555.899999856949","<div class='center'><p> See, he was successful at robbing the ships most of the time but not every time. </p><p><b>[Press the space bar to continue]</b></p></div>","32","","","","","","","","","","","","","","","","",""
"","html-keyboard-response","26","393734","0.0-26.0","10642.600000143051","<div class='center'><p>In the game, you will get to choose which of three pirates you want to rob the next ship. <p>Press the <b>‘1’</b> button on your keyboard to pick the pirate with the red beard.</p><p> Press <b>‘2’</b> to pick the pirate with the white beard.</p><p> Press <b>‘3’</b> to pick the pirate with the black beard.</p><p>Try picking a pirate now!</p><p><img src='run_exp/static/images/all_pirates.png' height='500'></p></div>","49","","","","","","","","","","","","","","","","",""
"","html-keyboard-response","27","397642","0.0-27.0-0.0","3903.600000143051","<div class='center'><p>This pirate was successful at robbing the ship!</p><p><img src='run_exp/static/images/red_win.png' height='500'></p><p><b>[Press the space bar to continue]</b></p></div>","32","","","","","","","","","","","","","","","","",""
"","html-keyboard-response","28","399428","0.0-27.0-1.0","1783.7999999523163","<div class='center'><p>Now try choosing another</p><p><img src='run_exp/static/images/all_pirates.png' height='500'></p></div>","51","","","","","","","","","","","","","","","","",""
"","html-keyboard-response","29","402572","0.0-28.0-0.0","3141.4000000953674","<div class='center'><p>This pirate was not successful at robbing the ship!</p><p><img src='run_exp/static/images/black_no_win.png' height='500'></p><p><b>[Press the space bar to continue]</b></p></div>","32","","","","","","","","","","","","","","","","",""
"","html-keyboard-response","30","408756","0.0-29.0-0.0","6181.899999856949","<div class='center'><p>You’ll stop at these 6 places on your journey.</p><p><img src='run_exp/static/images/all_contexts.png' height='500'></p><p><b>[Press the space bar to continue]</b></p></div>","32","","","","","","","","","","","","","","","","",""
"","html-keyboard-response","31","418757","0.0-29.0-1.0","9998","<div class='center'><p>How good a pirate is at robbing ships will depend on the current place.</p><p> Some pirates will have been to the place before, and will have more experience robbing ships there.</p><p>So, they will be more successful at stealing gold and bringing it back to you.</p><p><b>[Press the space bar to continue]</b></p></div>","32","","","","","","","","","","","","","","","","",""
"","html-keyboard-response","32","432034","0.0-29.0-2.0","13275.399999856949","<div class='center'><p>How successful a pirate is at robbing ships can also change in a place.<p> Ships may hear about the pirates coming and will improve their defenses. This may make it more difficult to rob them.</p><p> Ships may also grow lazy and lower their defenses. This may make it easier to rob them.</p><br><p>Things are always changing on the high seas! So, try your best to pay attention!</p><p><img src='run_exp/static/images/contingency.png' height='500'></p><p><b>[Press the space bar to continue]</b></p></div>","32","","","","","","","","","","","","","","","","",""
"","html-keyboard-response","33","467785","0.0-29.0-3.0","35747.10000014305","<div class='center'><p>Once you choose a pirate to rob a ship, you’ll be shown the ship they are robbing.</p><p>The ship will have a picture of the item they sold at the marketplace.</p><p> Try your best to remember the ship and where you saw the ship.</p><p> You’ll have to remember this for later, and remembering this correctly will help you win more bonus money!</p><p>You can remember the ship by remembering the item they sold at the marketplace</p><p>A helpful strategy is to try to come up with a story of the chosen pirate and ship’s item interacting with the scene.</p><p> For example, a ship might have sold travel mugs and you could imagine red beard walking through the city with a travel mug. </p><p>Or imagine an apple falling from a tree into white beard's hands in the forest.</p><p><img src='run_exp/static/images/example_probe.png' height='500'></p><p><b>[Press the space bar to continue]</b></p></div>","32","","","","","","","","","","","","","","","","",""
"","html-keyboard-response","34","476020","0.0-29.0-4.0","8232.799999952316","<div class='center'><p>If you don’t make your choice fast enough, you’ll have to wait a few seconds before you can make another one. </p><p>You can’t win more gold. You just have to sit and wait.</p><p><img src='run_exp/static/images/hurry_up.png' height='500'></p><p><b>[Press the space bar to continue]</b></p></div>","32","","","","","","","","","","","","","","","","",""
"","html-keyboard-response","35","542179","0.0-29.0-5.0","66154.29999995232","<div class='center'><p>Again, you have two important things to do: </p><b><p> 1. Pick the pirate who you think will be most successful at robbing the next ship.</p></b><b><p> 2. Remember where a pirate robbed a ship.</p> </b><p>Both are important in determining how much bonus money you’ll win.</p><br><p>Let’s try a practice game. The game will start by showing you the pirates. First pick a pirate using the <b> 1, 2, 3 </b> buttons on your keyboard. When you are shown a ship, try to remember the place you’re in by making up a story.</p><p> You only have 3 seconds to pick a pirate, so please make a choice quickly! If you are too slow, you’ll have to wait a bit during the time out.</p><p> Don’t feel rushed, but please do try to make a choice every time.</p><p>How good a pirate is at robbing a ship will change depending on the place they are in and how good the defenses are of the ship.</p> <p>This is just a practice game, so you’re not playing for money. </p><p>You’ll receive a bag which may or may not contain gold coins.</p><p> In the real game, though, you’ll be able to see whether or not you received the gold coins.</p><p> Good luck, remember press <b>'1'</b> to choose red beard, <b>'2'</b> to choose white beard, and <b>'3'</b> to choose black beard</p><p><b>[Press the space bar to begin the practice game]</b></p></div>","32","","","","","","","","","","","","","","","","",""
"","do_trial_prac","36","548913","0.0-29.0-6.0","2201.9000000953674","","","","50","","","","","","","","","","","","","","",""
"","do_trial_prac","37","554942","0.0-29.0-7.0","null","","","","null","","","","","","","","","","","","","","",""
"","do_trial_prac","38","561290","0.0-29.0-8.0","1834.2999999523163","","","","51","","","","","","","","","","","","","","",""
"","do_trial_prac","39","567266","0.0-29.0-9.0","1457","","","","49","","","","","","","","","","","","","","",""
"","do_trial_prac","40","573830","0.0-29.0-10.0","2048.5999999046326","","","","50","","","","","","","","","","","","","","",""
"","html-keyboard-response","41","584004","0.0-29.0-11.0","10169.299999952316","<div class='center'><p>Great job on the practice game!</p><p> Now, you will be asked you some true or false questions to make sure you really understand the rules of the game.</p><p> Press <b>'1'</b> on the keyboard for true and press <b>'2'</b> for false.</p><p><b>[Press the space bar to begin the quiz]</b></p></div>","32","","","","","","","","","","","","","","","","",""
"","html-keyboard-response","42","591895","0.0-29.0-12.0","7888.399999856949","<div class='center'><p>You win bonus money by making choices as fast as possible.</p><p>Press 1 for true and press  2 for false.</p></div>","50","","","","","","","","","","","","","","","","",""
"","html-keyboard-response","43","593636","0.0-30.0-0.0","1738.3000001907349","<br><br><br><br><p>That's correct!</p> <p><b>[press the space bar to continue with the quiz]</b></p>","32","","","","","","","","","","","","","","","","",""
"","html-keyboard-response","44","599569","0.0-30.0-1.0","5931.299999952316","<div class='center'><p>You press the <b>‘3’</b> button on the keyboard to choose the red bearded pirate? </p><p>Press 1 for true and press  2 for false.</p></div>","50","","","","","","","","","","","","","","","","",""
"","html-keyboard-response","45","601731","0.0-31.0-0.0","2159.7000000476837","<br><br><br><br><p>That's correct!</p> <p><b>[press the space bar to continue with the quiz]</b></p>","32","","","","","","","","","","","","","","","","",""
"","html-keyboard-response","46","606274","0.0-31.0-1.0","4539.600000143051","<div class='center'><p>A pirate will always be equally successful at robbing ships in each place</p><p>Press 1 for true and press  2 for false.</p></div>","50","","","","","","","","","","","","","","","","",""
"","html-keyboard-response","47","609176","0.0-32.0-0.0","2899.0999999046326","<br><br><br><br><p>That's correct!</p> <p><b>[press the space bar to continue with the quiz]</b></p>","32","","","","","","","","","","","","","","","","",""
"","html-keyboard-response","48","613001","0.0-32.0-1.0","3823.7999999523163","<div class='center'><p>You should remember the place where a pirate robbed a ship.</p><p>Press 1 for true and press  2 for false.</p></div>","49","","","","","","","","","","","","","","","","",""
"","html-keyboard-response","49","614506","0.0-33.0-0.0","1482.0999999046326","<br><br><br><br><p>That's correct!</p> <p><b>[press the space bar to continue with the quiz]</b></p>","32","","","","","","","","","","","","","","","","",""
"","html-keyboard-response","50","616747","0.0-34.0-0.0","2239.100000143051","<br><br><br><br><p>Good job! You’re now ready to move on to the real game!</p> <p><br>[press the space bar to begin!]</br></p>","32","","","","","","","","","","","","","","","","",""
"","do_welcome","51","618254","0.0-35.0-0.0","null","","","","null","","","","","","","","","","","","","","",""
"","do_trial","52","625870","0.0-36.0-0.0","1977.7999999523163","","","","49","1,1,0","0","forest","0","probe-151","1","0.4","0.1","1","","","","","",""
"","do_trial","53","632690","0.0-37.0-0.0","1227.6000001430511","","","","50","1,1,0","0","forest","1","probe-74","1","0.30140611653803523","0.19584365240238533","1","","","","","",""
"","do_trial","54","639267","0.0-38.0-0.0","989.6000001430511","","","","51","1,1,0","0","forest","2","probe-37","1","0.2830976622706873","0.30369812186201695","0","","","","","",""
"","do_trial","55","645987","0.0-39.0-0.0","1118.6999998092651","","","","49","1,0,1","0","forest","3","probe-123","1","0.3708200448369571","0.24279511413246066","1","","","","","",""
"","do_trial","56","652990","0.0-40.0-0.0","1405.2000000476837","","","","49","1,1,0","0","forest","4","probe-207","0.9168180154702842","0.48213163781789564","0.2814675227437398","1","","","","","",""
"","do_trial","57","659639","0.0-41.0-0.0","1033.0999999046326","","","","49","1,0,0","0","forest","5","probe-68","0.916329372010051","0.41224979641624315","0.15072636004811743","1","","","","","",""
"","do_trial","58","666040","0.0-42.0-0.0","810.2999999523163","","","","49","1,1,1","0","forest","6","probe-219","0.8505726798101297","0.43824882748134075","0.18304072356412968","1","","","","","",""
"","do_trial","59","674023","0.0-43.0-0.0","2381.5","","","","49","1,0,0","0","forest","7","probe-131","0.8791208613964843","0.4425326964928942","0.07244641786837681","1","","","","","",""
"","do_trial","60","680904","0.0-44.0-0.0","1284","","","","49","1,0,1","0","forest","8","probe-180","0.8404020676498","0.3838162685053154","0.09564220636438829","1","","","","","",""
"","do_trial","61","687346","0.0-45.0-0.0","835.3999998569489","","","","49","1,1,0","0","forest","9","probe-213","0.8825374856142945","0.39839226938849803","0.10808346792108463","1","","","","","",""
"","do_trial","62","693889","0.0-46.0-0.0","943.7000000476837","","","","49","1,0,1","0","forest","10","probe-02","0.5710462427044359","0.2586232193465305","0.5340476248598227","1","","","","","",""
"","do_trial","63","700388","0.0-47.0-0.0","909.5","","","","50","0,1,1","0","forest","11","probe-109","0.23853290421667628","0.41831628016692046","0.7447933434467053","1","","","","","",""
"","do_trial","64","707071","0.0-48.0-0.0","1086.7000000476837","","","","50","1,1,1","0","forest","12","probe-204","0.16023980151263367","0.38455241303271465","0.862895000612771","1","","","","","",""
"","do_trial","65","713722","0.0-49.0-0.0","1054.2999999523163","","","","50","0,0,0","0","forest","13","probe-17","0.13075790658979478","0.33693862199322616","0.8061618767235945","0","","","","","",""
"","do_trial","66","720253","0.0-50.0-0.0","935.7999999523163","","","","49","1,0,1","0","forest","14","probe-106","0.2208071977250651","0.2905254494316572","0.7935130091390249","1","","","","","",""
"","do_trial","67","727148","0.0-51.0-0.0","1288.7999999523163","","","","49","0,0,1","0","forest","15","probe-81","0.07833233511600815","0.37658856734697416","0.7991425814919216","0","","","","","",""
"","do_trial","68","733683","0.0-52.0-0.0","933.2000000476837","","","","51","0,0,0","0","forest","16","probe-145","0.07703827149946427","0.32647830363861097","0.812795611964523","0","","","","","",""
"","do_trial","69","740337","0.0-53.0-0.0","1063.1000001430511","","","","49","1,0,0","0","forest","17","probe-64","0.10376608694803109","0.3388569318349392","0.8061922176543846","1","","","","","",""
"","do_trial","70","747068","0.0-54.0-0.0","1127.5999999046326","","","","49","0,0,0","0","forest","18","probe-201","0.07359011130926875","0.284323245349819","0.7292715574069566","0","","","","","",""
"","do_trial","71","753602","0.0-55.0-0.0","936.2999999523163","","","","49","0,1,1","0","forest","19","probe-96","0.0988136029161972","0.36513337086825753","0.7072397119225913","0","","","","","",""
"","do_trial","72","759674","0.0-56.0-0.0","476.09999990463257","","","","50","0,1,1","0","forest","20","probe-162","0.11406726303477417","0.4300141739236015","0.8509409786328216","1","","","","","",""
"","do_trial","73","766207","0.0-57.0-0.0","945","","","","50","0,0,1","0","forest","21","probe-70","0.15491450666326656","0.46606254349659637","0.8685335359409038","0","","","","","",""
"","do_trial","74","772452","0.0-58.0-0.0","642.5","","","","49","0,0,1","0","forest","22","probe-227","0.1997375779992324","0.31358921749579344","0.8678517354477575","0","","","","","",""
"","do_trial","75","779378","0.0-59.0-0.0","1317.4000000953674","","","","49","1,1,1","0","forest","23","probe-27","0.19007295175899544","0.22205207143271374","0.9347303461544624","1","","","","","",""
"","do_trial","76","786005","0.0-60.0-0.0","1032.2000000476837","","","","49","1,0,1","0","forest","24","probe-183","0.1406898637739488","0.3555299410868355","0.9224864081478391","1","","","","","",""
"","do_trial","77","792582","0.0-61.0-0.0","969.5999999046326","","","","49","0,0,1","0","forest","25","probe-104","0.1629853353854768","0.3261441020454538","0.9007033640454831","0","","","","","",""
"","do_trial","78","799135","0.0-62.0-0.0","952.5","","","","49","0,0,1","0","forest","26","probe-04","0.050882412104147526","0.4380076752197695","0.9120162329777739","0","","","","","",""
"","do_trial","79","805159","0.0-63.0-0.0","433","","","","51","0,0,1","0","forest","27","probe-100","0.107880279518318","0.3735970334612218","0.8462517912999262","1","","","","","",""
"","do_trial","80","811966","0.0-64.0-0.0","1203.5","","","","50","1,0,1","0","forest","28","probe-32","0.10288774902187678","0.49740773245248493","0.9349981343485385","0","","","","","",""
"","do_trial","81","818663","0.0-65.0-0.0","1107.7999999523163","","","","49","0,0,1","0","forest","29","probe-23","0.1343181761767282","0.23941428585734068","0.8841815220702754","0","","","","","",""
"","do_trial","82","825484","0.0-66.0-0.0","1226.4000000953674","","","","51","0,0,1","0","forest","30","probe-163","0.1070832316259464","0.3052752389945482","0.7378935399158258","1","","","","","",""
"","do_trial","83","832184","0.0-67.0-0.0","1115.5999999046326","","","","51","0,0,1","0","forest","31","probe-174","0.05281915366350974","0.39288265414586215","0.7849103417148156","1","","","","","",""
"","do_trial","84","838136","0.0-68.0-0.0","357.2000000476837","","","","51","0,1,1","0","forest","32","probe-175","0.061856303574892565","0.3673278995548973","0.8758986285589125","1","","","","","",""
"","do_trial","85","844483","0.0-69.0-0.0","757.3999998569489","","","","51","0,1,1","0","forest","33","probe-35","0.1296007820709208","0.5170417236731665","0.8511461052126293","1","","","","","",""
"","do_trial","86","850900","0.0-70.0-0.0","813.7999999523163","","","","51","0,0,1","0","forest","34","probe-138","0.08349970022554624","0.4366244565507262","0.7864832729791528","1","","","","","",""
"","do_trial","87","857450","0.0-71.0-0.0","960.4000000953674","","","","51","0,0,1","0","forest","35","probe-65","0.31049273297079966","0.5658926238944563","0.8079410813073772","1","","","","","",""
"","do_trial","88","864232","0.0-72.0-0.0","1187.5999999046326","","","","51","0,1,0","0","forest","36","probe-169","0.20635189438635132","0.558882455374598","0.7196726924982849","0","","","","","",""
"","do_trial","89","870766","0.0-73.0-0.0","922.6999998092651","","","","49","0,0,1","0","forest","37","probe-31","0.23830346048818246","0.5077410673878682","0.8197328002067816","0","","","","","",""
"","do_trial","90","877144","0.0-74.0-0.0","781.5","","","","49","0,1,1","0","forest","38","probe-116","0.33138866713291265","0.5235542409162982","0.8924561789247111","0","","","","","",""
"","do_trial","91","883118","0.0-75.0-0.0","370.19999980926514","","","","50","0,1,0","0","forest","39","probe-135","0.20363926522714773","0.5857585305419548","0.705503234791449","1","","","","","",""
"","do_bye","92","884635","0.0-76.0-0.0","null","","","","null","","","","","","","","","","","","","","",""
"","do_travel","93","890650","0.0-77.0-0.0","null","","","","null","","","","","","","","","","","","","","",""
"","do_welcome","94","892158","0.0-77.0-1.0","null","","","","null","","","","","","","","","","","","","","",""
"","do_trial","95","899379","0.0-78.0-0.0","1623.4000000953674","","","","49","0,0,1","1","coast","40","probe-69","0.20145624697337422","0.5432583727861894","1","0","","","","","",""
"","do_trial","96","905913","0.0-79.0-0.0","927","","","","51","0,1,1","1","coast","41","probe-71","0.30797997672332805","0.5457531121431504","1","1","","","","","",""
"","do_trial","97","912696","0.0-80.0-0.0","1178.6000001430511","","","","50","0,0,1","1","coast","42","probe-235","0.23978993665575568","0.4868678894257938","1","0","","","","","",""
"","do_trial","98","919380","0.0-81.0-0.0","1089.5999999046326","","","","51","0,1,1","1","coast","43","probe-203","0.20800712709921823","0.4519335842448926","1","1","","","","","",""
"","do_trial","99","925948","0.0-82.0-0.0","976","","","","51","0,0,1","1","coast","44","probe-190","0.15192627134053266","0.3980999513605524","0.897485514139101","1","","","","","",""
"","do_trial","100","932628","0.0-83.0-0.0","1069.6999998092651","","","","51","0,1,1","1","coast","45","probe-111","0.05731528421719734","0.33496674047234337","0.940262870164799","1","","","","","",""
"","do_trial","101","939255","0.0-84.0-0.0","997.9000000953674","","","","51","0,0,1","1","coast","46","probe-181","0.10821935483527989","0.22427361181859307","0.8378921320627524","1","","","","","",""
"","do_trial","102","946347","0.0-85.0-0.0","1445.5","","","","51","0,0,1","1","coast","47","probe-218","0.14928942765340053","0.1934914000694839","0.8076633322823118","1","","","","","",""
"","do_trial","103","952793","0.0-86.0-0.0","818","","","","51","1,0,1","1","coast","48","probe-112","0.09558329953622177","0.3392838596469849","0.8098662434068503","1","","","","","",""
"","do_trial","104","959565","0.0-87.0-0.0","1184.1999998092651","","","","51","0,0,1","1","coast","49","probe-179","0.07107228787659653","0.22068471070719076","0.772400637515524","1","","","","","",""
"","do_trial","105","966560","0.0-88.0-0.0","1393.7000000476837","","","","51","1,1,0","1","coast","50","probe-216","0.2595733158160372","0.5414822549642004","0.580590240557409","0","","","","","",""
"","do_trial","106","973105","0.0-89.0-0.0","944.7999999523163","","","","49","0,1,1","1","coast","51","probe-196","0.24803509934988213","0.6908315163409694","0.4734679507853129","0","","","","","",""
"","do_trial","107","979495","0.0-90.0-0.0","789.4000000953674","","","","50","0,1,0","1","coast","52","probe-222","0.22246517151085557","0.6324939855985586","0.22095224265186342","1","","","","","",""
"","do_trial","108","986262","0.0-91.0-0.0","1169.2999999523163","","","","50","1,1,0","1","coast","53","probe-21","0.39937690194066144","0.8468756524511776","0.12887224514091614","1","","","","","",""
"","do_trial","109","992879","0.0-92.0-0.0","1025.2000000476837","","","","50","1,1,0","1","coast","54","probe-238","0.46311385262018095","0.8663827523646639","0.109413138140804","1","","","","","",""
"","do_trial","110","999562","0.0-93.0-0.0","1089.4000000953674","","","","50","1,1,0","1","coast","55","probe-193","0.467643017694495","0.7848199518509265","0.15127600611082362","1","","","","","",""
"","do_trial","111","1005977","0.0-94.0-0.0","814.5","","","","49","1,1,0","1","coast","56","probe-33","0.4243025479786519","0.7384405693881456","0.06576562048062742","1","","","","","",""
"","do_trial","112","1012508","0.0-95.0-0.0","932.3000001907349","","","","51","0,1,0","1","coast","57","probe-165","0.3929286323689268","0.7127480760732088","0.0600751063719088","0","","","","","",""
"","do_trial","113","1018532","0.0-96.0-0.0","434.39999985694885","","","","49","1,1,0","1","coast","58","probe-79","0.27006898573028737","0.7772201909730763","0.05925545836379996","1","","","","","",""
"","do_trial","114","1024475","0.0-97.0-0.0","340.7999999523163","","","","49","1,0,0","1","coast","59","probe-129","0.2726491725507534","0.745478599537159","0.14192180715703706","1","","","","","",""
"","do_trial","115","1030361","0.0-98.0-0.0","286.5","","","","49","0,1,0","1","coast","60","probe-14","0.12669095128913707","0.9071483824450902","0.24234303803702237","0","","","","","",""
"","do_trial","116","1036326","0.0-99.0-0.0","364.5","","","","50","0,1,0","1","coast","61","probe-171","0.2945789019614797","0.9146882770100818","0.12563354038611416","1","","","","","",""
"","do_trial","117","1042793","0.0-100.0-0.0","874.4000000953674","","","","50","0,1,0","1","coast","62","probe-198","0.3675343194094634","0.9423329743919763","0.2318750377491022","1","","","","","",""
"","do_trial","118","1049309","0.0-101.0-0.0","920.1999998092651","","","","51","0,1,1","1","coast","63","probe-51","0.31758375567696207","0.8408275125612431","0.24324922687725126","1","","","","","",""
"","do_trial","119","1055692","0.0-102.0-0.0","788","","","","49","0,0,0","1","coast","64","probe-186","0.3748039134574836","0.7237142811940137","0.24895450712438577","0","","","","","",""
"","do_trial","120","1061626","0.0-103.0-0.0","348.2000000476837","","","","50","0,1,0","1","coast","65","probe-118","0.3591921863953165","0.7630806042766656","0.14316609978913106","1","","","","","",""
"","do_trial","121","1067705","0.0-104.0-0.0","476.69999980926514","","","","50","1,1,0","1","coast","66","probe-226","0.32243990832780567","0.7143285910591548","0.15230664163284074","1","","","","","",""
"","do_trial","122","1074258","0.0-105.0-0.0","956.5999999046326","","","","50","0,1,0","1","coast","67","probe-80","0.35333075752396265","0.6546941580655127","0.06538141214978979","1","","","","","",""
"","do_trial","123","1080624","0.0-106.0-0.0","770.0999999046326","","","","50","0,0,0","1","coast","68","probe-20","0.4717322291064743","0.8312031441508624","0.052811698839794786","0","","","","","",""
"","do_trial","124","1086575","0.0-107.0-0.0","365.10000014305115","","","","49","0,1,0","1","coast","69","probe-58","0.441911722617665","0.7880058513046393","0.1614200106628347","0","","","","","",""
"","do_trial","125","1092442","0.0-108.0-0.0","278","","","","49","0,1,1","1","coast","70","probe-228","0.3329722218764815","0.8648302336305228","0.24084834190150664","0","","","","","",""
"","do_trial","126","1098420","0.0-109.0-0.0","384.59999990463257","","","","50","0,1,1","1","coast","71","probe-50","0.39632503880422226","0.796707634940964","0.24129887246656798","1","","","","","",""
"","do_trial","127","1104507","0.0-110.0-0.0","488","","","","51","0,1,0","1","coast","72","probe-92","0.42792484203854914","0.7020368635002745","0.1658026896899289","0","","","","","",""
"","do_trial","128","1110489","0.0-111.0-0.0","381.5","","","","50","0,1,0","1","coast","73","probe-239","0.5419886520133247","0.793180113399532","0.1732581817227096","1","","","","","",""
"","do_trial","129","1117090","0.0-112.0-0.0","999.6000001430511","","","","50","0,1,1","1","coast","74","probe-195","0.5020163993581866","0.7663996557954172","0.05482971699575963","1","","","","","",""
"","do_trial","130","1123392","0.0-113.0-0.0","715.5","","","","50","0,1,0","1","coast","75","probe-66","0.37773964270052524","0.890920142125247","0.2130270065378999","1","","","","","",""
"","do_trial","131","1129772","0.0-114.0-0.0","782.3999998569489","","","","50","0,1,0","1","coast","76","probe-167","0.3266764219452638","0.7941949425435827","0.15308712112620002","1","","","","","",""
"","do_trial","132","1136769","0.0-115.0-0.0","1409.5","","","","49","0,1,1","1","coast","77","probe-46","0.35541845982936593","0.8664425516665739","0.12541547323216443","0","","","","","",""
"","do_trial","133","1143670","0.0-116.0-0.0","1312.3000001907349","","","","51","0,1,0","1","coast","78","probe-236","0.20181180833586","0.9190876155136537","0.07430408751472908","0","","","","","",""
"","do_trial","134","1152253","0.0-117.0-0.0","2998.699999809265","","","","50","1,1,1","1","coast","79","probe-231","0.3186161668206647","0.7757950476715234","0.12116349870352965","1","","","","","",""
"","do_bye","135","1153777","0.0-118.0-0.0","null","","","","null","","","","","","","","","","","","","","",""
"","do_travel","136","1159782","0.0-119.0-0.0","null","","","","null","","","","","","","","","","","","","","",""
"","do_welcome","137","1161303","0.0-119.0-1.0","null","","","","null","","","","","","","","","","","","","","",""
"","do_trial","138","1168659","0.0-120.0-0.0","1754","","","","49","0,1,0","2","highway","80","probe-143","0.23249980782507623","1","0.14741892793528846","0","","","","","",""
"","do_trial","139","1174639","0.0-121.0-0.0","369.90000009536743","","","","51","0,1,1","2","highway","81","probe-108","0.30295788045392835","1","0.2992037712977826","1","","","","","",""
"","do_trial","140","1180971","0.0-122.0-0.0","741.7000000476837","","","","50","1,1,0","2","highway","82","probe-124","0.3655981624702618","1","0.2783843785008202","1","","","","","",""
"","do_trial","141","1186919","0.0-123.0-0.0","358.89999985694885","","","","51","0,1,0","2","highway","83","probe-48","0.408023823330948","1","0.15491216541023198","0","","","","","",""
"","do_trial","142","1192868","0.0-124.0-0.0","338","","","","50","0,1,1","2","highway","84","probe-202","0.46458782975368634","0.9488578073938274","0.22027506702973726","1","","","","","",""
"","do_trial","143","1198871","0.0-125.0-0.0","419.60000014305115","","","","50","0,1,1","2","highway","85","probe-208","0.3045281880511515","0.9258027182502965","0.16385686840341845","1","","","","","",""
"","do_trial","144","1205340","0.0-126.0-0.0","879.7000000476837","","","","50","0,1,0","2","highway","86","probe-133","0.4798117604532318","0.816859417584821","0.14659006184713064","1","","","","","",""
"","do_trial","145","1211836","0.0-127.0-0.0","875.6999998092651","","","","50","1,1,0","2","highway","87","probe-28","0.4805674324556014","0.7510611893366788","0.05096037272372907","1","","","","","",""
"","do_trial","146","1218487","0.0-128.0-0.0","1059.7000000476837","","","","50","0,1,0","2","highway","88","probe-217","0.48431074189503825","0.6968404199884765","0.07376912496733802","1","","","","","",""
"","do_trial","147","1224370","0.0-129.0-0.0","292.5","","","","50","0,1,0","2","highway","89","probe-89","0.3441313552469592","0.520539639453319","0.11095877558016236","1","","","","","",""
"","do_trial","148","1230637","0.0-130.0-0.0","669.3999998569489","","","","50","1,1,0","2","highway","90","probe-139","0.4766858620062708","0.5136116679178916","0.26830770472153126","1","","","","","",""
"","do_trial","149","1236533","0.0-131.0-0.0","299.40000009536743","","","","50","1,0,1","2","highway","91","probe-107","0.5749228562073866","0.4595603611257114","0.3736596461101547","0","","","","","",""
"","do_trial","150","1242901","0.0-132.0-0.0","771.7999999523163","","","","49","1,1,1","2","highway","92","probe-113","0.6163246903826484","0.37465285249737196","0.35255630393138754","1","","","","","",""
"","do_trial","151","1249344","0.0-133.0-0.0","848.5","","","","49","1,0,0","2","highway","93","probe-164","0.7791430602375903","0.1771273085940068","0.32549782623200196","1","","","","","",""
"","do_trial","152","1256019","0.0-134.0-0.0","1086.2000000476837","","","","49","1,0,0","2","highway","94","probe-03","0.908828494604484","0.0781636245400633","0.204823584725139","1","","","","","",""
"","do_trial","153","1261849","0.0-135.0-0.0","245.20000004768372","","","","50","0,0,0","2","highway","95","probe-19","0.9483348305934207","0.11025003591524137","0.29778394515078516","0","","","","","",""
"","do_trial","154","1267997","0.0-136.0-0.0","547.8000001907349","","","","51","1,0,1","2","highway","96","probe-229","0.7723765415028444","0.19280348977683845","0.5807582408734905","1","","","","","",""
"","do_trial","155","1274700","0.0-137.0-0.0","1112.2000000476837","","","","51","1,0,1","2","highway","97","probe-87","0.5646332883944155","0.11701005423850497","0.5501246211194646","1","","","","","",""
"","do_trial","156","1281349","0.0-138.0-0.0","1051.4000000953674","","","","49","0,0,0","2","highway","98","probe-12","0.6854890020874657","0.1332887473931434","0.45891793864781044","0","","","","","",""
"","do_trial","157","1287718","0.0-139.0-0.0","779.5999999046326","","","","50","0,0,1","2","highway","99","probe-115","0.6548934536342732","0.0740482175807616","0.3606396103907103","0","","","","","",""
"","do_trial","158","1293592","0.0-140.0-0.0","284.7000000476837","","","","51","1,0,1","2","highway","100","probe-88","0.7097879176787548","0.12011716507037572","0.36191367349619624","1","","","","","",""
"","do_trial","159","1300067","0.0-141.0-0.0","881.2999999523163","","","","51","1,0,1","2","highway","101","probe-49","0.7719783720047676","0.08753610779434984","0.2567457208140654","1","","","","","",""
"","do_trial","160","1306749","0.0-142.0-0.0","1086.8999998569489","","","","51","1,0,0","2","highway","102","probe-24","0.6992210473333558","0.10176374678244603","0.3918915006284081","0","","","","","",""
"","do_trial","161","1313150","0.0-143.0-0.0","807.1999998092651","","","","51","1,0,1","2","highway","103","probe-166","0.8084936094292653","0.15813867181555616","0.41817077489560533","1","","","","","",""
"","do_trial","162","1319817","0.0-144.0-0.0","1067.5999999046326","","","","51","0,0,1","2","highway","104","probe-86","0.8494198874752091","0.050390368515814486","0.4801286923174394","1","","","","","",""
"","do_trial","163","1326283","0.0-145.0-0.0","877.9000000953674","","","","51","0,0,1","2","highway","105","probe-172","0.8588999769211043","0.11753071140282369","0.5303959860455829","1","","","","","",""
"","do_trial","164","1332898","0.0-146.0-0.0","1016.7999999523163","","","","51","1,0,1","2","highway","106","probe-170","0.8602815708171901","0.09035421873857302","0.5414679787354078","1","","","","","",""
"","do_trial","165","1339551","0.0-147.0-0.0","1058.3000001907349","","","","51","1,0,0","2","highway","107","probe-45","0.7832395106095761","0.09938207853395581","0.4534356711188544","0","","","","","",""
"","do_trial","166","1345440","0.0-148.0-0.0","291.59999990463257","","","","50","1,0,0","2","highway","108","probe-39","0.7256847726485574","0.10895800035411497","0.35455915781994785","0","","","","","",""
"","do_trial","167","1351413","0.0-149.0-0.0","378.59999990463257","","","","49","1,0,1","2","highway","109","probe-44","0.6473462842176411","0.13387212722273426","0.31745823954514385","1","","","","","",""
"","do_trial","168","1357479","0.0-150.0-0.0","472","","","","51","1,0,0","2","highway","110","probe-05","0.6919698255105624","0.10284198530919098","0.3488082926775335","0","","","","","",""
"","do_trial","169","1363501","0.0-151.0-0.0","427.30000019073486","","","","51","1,0,1","2","highway","111","probe-99","0.857108733402005","0.19634990837602467","0.554243039579289","1","","","","","",""
"","do_trial","170","1369569","0.0-152.0-0.0","409.2000000476837","","","","51","1,1,1","2","highway","112","probe-22","0.7537293475857345","0.18319335416845636","0.619475342958091","1","","","","","",""
"","do_trial","171","1375632","0.0-153.0-0.0","466.69999980926514","","","","51","0,0,1","2","highway","113","probe-121","0.7672895631907963","0.25650841960677473","0.4723748580940256","1","","","","","",""
"","do_trial","172","1381429","0.0-154.0-0.0","210.70000004768372","","","","51","1,0,0","2","highway","114","probe-15","0.7319901332202489","0.09015903913842681","0.5274024705725973","0","","","","","",""
"","do_trial","173","1387897","0.0-155.0-0.0","867.4000000953674","","","","51","0,0,0","2","highway","115","probe-146","0.8132294626518665","0.0791752564017466","0.39524626757563297","0","","","","","",""
"","do_trial","174","1393785","0.0-156.0-0.0","290.2000000476837","","","","50","1,0,0","2","highway","116","probe-177","0.5969296017727068","0.11967396005421865","0.4268134497579131","0","","","","","",""
"","do_trial","175","1399696","0.0-157.0-0.0","317.90000009536743","","","","49","1,0,0","2","highway","117","probe-206","0.685714949722684","0.09434411145464865","0.34750665528004876","1","","","","","",""
"","do_trial","176","1405612","0.0-158.0-0.0","313.90000009536743","","","","49","0,1,0","2","highway","118","probe-122","0.751467363555476","0.14690014512076854","0.41685484110396226","0","","","","","",""
"","do_trial","177","1411679","0.0-159.0-0.0","458.59999990463257","","","","51","1,1,0","2","highway","119","probe-205","0.6924189662037716","0.12657883180039778","0.5438834314487249","0","","","","","",""
"","do_bye","178","1413192","0.0-160.0-0.0","null","","","","null","","","","","","","","","","","","","","",""
"","do_travel","179","1419209","0.0-161.0-0.0","null","","","","null","","","","","","","","","","","","","","",""
"","do_welcome","180","1420720","0.0-161.0-1.0","null","","","","null","","","","","","","","","","","","","","",""
"","do_trial","181","1428202","0.0-162.0-0.0","1892.7999999523163","","","","50","1,0,1","3","city","120","probe-220","1","0.09963168794795584","0.44024502256114484","0","","","","","",""
"","do_trial","182","1434160","0.0-163.0-0.0","363.5","","","","49","1,0,1","3","city","121","probe-93","1","0.18042721804365536","0.4413457696055724","1","","","","","",""
"","do_trial","183","1440062","0.0-164.0-0.0","301.19999980926514","","","","49","1,0,1","3","city","122","probe-128","1","0.0959618586372061","0.4234161373567221","1","","","","","",""
"","do_trial","184","1445962","0.0-165.0-0.0","296.89999985694885","","","","49","1,1,1","3","city","123","probe-225","1","0.3133946668105278","0.46131550684293593","1","","","","","",""
"","do_trial","185","1452578","0.0-166.0-0.0","1019.4000000953674","","","","49","1,0,0","3","city","124","probe-91","0.8609102773562518","0.22749768472775475","0.3205817862943328","1","","","","","",""
"","do_trial","186","1458580","0.0-167.0-0.0","410.7999999523163","","","","49","1,1,0","3","city","125","probe-160","0.8641048558308676","0.14274169627511607","0.33788525726686336","1","","","","","",""
"","do_trial","187","1464535","0.0-168.0-0.0","359.19999980926514","","","","49","1,1,1","3","city","126","probe-117","0.8706510591129203","0.14592028015003533","0.4120346041219589","1","","","","","",""
"","do_trial","188","1470945","0.0-169.0-0.0","811.2999999523163","","","","49","1,0,0","3","city","127","probe-40","0.8058198065631279","0.07012149312572749","0.4172673365589061","1","","","","","",""
"","do_trial","189","1477110","0.0-170.0-0.0","572.0999999046326","","","","49","1,0,0","3","city","128","probe-36","0.6886546581275202","0.21536273690186925","0.30363979767671134","1","","","","","",""
"","do_trial","190","1483505","0.0-171.0-0.0","797.5","","","","49","1,0,1","3","city","129","probe-119","0.7202975077317788","0.09430279194200832","0.32408286118039425","1","","","","","",""
"","do_trial","191","1489658","0.0-172.0-0.0","565.5","","","","49","0,0,1","3","city","130","probe-98","0.47354071662809466","0.3229555977577608","0.5024558248556925","0","","","","","",""
"","do_trial","192","1496391","0.0-173.0-0.0","1134","","","","51","0,0,1","3","city","131","probe-34","0.39152005429682113","0.36498242799085034","0.6089537206924104","1","","","","","",""
"","do_trial","193","1502275","0.0-174.0-0.0","303.09999990463257","","","","51","0,0,1","3","city","132","probe-142","0.4074603913969252","0.27746573250393136","0.6121199182443418","1","","","","","",""
"","do_trial","194","1508188","0.0-175.0-0.0","302.09999990463257","","","","51","0,0,0","3","city","133","probe-29","0.26678940709019366","0.29294670840901654","0.5767936161396576","0","","","","","",""
"","do_trial","195","1514108","0.0-176.0-0.0","331.89999985694885","","","","49","0,0,1","3","city","134","probe-240","0.32775536955376566","0.3273390075850534","0.6116453873236778","0","","","","","",""
"","do_trial","196","1519958","0.0-177.0-0.0","250.40000009536743","","","","50","1,0,0","3","city","135","probe-178","0.13982309947443802","0.35842277307865744","0.7071214077954123","0","","","","","",""
"","do_trial","197","1525883","0.0-178.0-0.0","324.2999999523163","","","","51","0,0,1","3","city","136","probe-120","0.22644805270031698","0.5449940953299336","0.5702863745207634","1","","","","","",""
"","do_trial","198","1531868","0.0-179.0-0.0","383.10000014305115","","","","49","1,1,0","3","city","137","probe-54","0.2496134382062676","0.498649443743159","0.6370453331754562","1","","","","","",""
"","do_trial","199","1537903","0.0-180.0-0.0","420.40000009536743","","","","50","0,0,0","3","city","138","probe-192","0.2653073727609519","0.4275601544212234","0.6714538904908052","0","","","","","",""
"","do_trial","200","1543769","0.0-181.0-0.0","266.2999999523163","","","","49","1,0,1","3","city","139","probe-157","0.10993294893130365","0.3967202248286962","0.8300681724147535","1","","","","","",""
"","do_trial","201","1549670","0.0-182.0-0.0","309.40000009536743","","","","49","0,0,1","3","city","140","probe-47","0.09448931864856791","0.5337829297326152","0.6612671404689721","0","","","","","",""
"","do_trial","202","1555553","0.0-183.0-0.0","299.59999990463257","","","","49","0,0,0","3","city","141","probe-42","0.052865656965075676","0.3686445464508394","0.6390039074230514","0","","","","","",""
"","do_trial","203","1561452","0.0-184.0-0.0","306.19999980926514","","","","51","0,0,1","3","city","142","probe-102","0.07130213450584126","0.396103512364227","0.7332327533511361","1","","","","","",""
"","do_trial","204","1567666","0.0-185.0-0.0","607.5999999046326","","","","49","0,0,1","3","city","143","probe-90","0.0503371519981738","0.32171613376774666","0.7063115144067297","0","","","","","",""
"","do_trial","205","1574731","0.0-186.0-0.0","1480.2000000476837","","","","49","0,1,1","3","city","144","probe-210","0.26154764312070705","0.3985289715275138","0.7850703717811515","0","","","","","",""
"","do_trial","206","1581277","0.0-187.0-0.0","955.1000001430511","","","","49","0,0,1","3","city","145","probe-61","0.13253525453271656","0.2406529999695338","0.9006732815440213","0","","","","","",""
"","do_trial","207","1587287","0.0-188.0-0.0","421.5","","","","51","1,0,1","3","city","146","probe-140","0.15808769158551594","0.29844779365817475","0.8438980389216737","1","","","","","",""
"","do_trial","208","1593206","0.0-189.0-0.0","321.60000014305115","","","","51","0,0,1","3","city","147","probe-63","0.20484969777476916","0.4151863803486014","0.7545993975250016","1","","","","","",""
"","do_trial","209","1599164","0.0-190.0-0.0","361","","","","51","0,0,1","3","city","148","probe-148","0.326976250381468","0.4545444546787738","0.7002184570864126","1","","","","","",""
"","do_trial","210","1605076","0.0-191.0-0.0","308.90000009536743","","","","51","0,1,0","3","city","149","probe-158","0.18104638659336608","0.5239084778745767","0.8100601501452355","0","","","","","",""
"","do_trial","211","1610692","0.0-192.0-0.0","16.300000190734863","","","","50","0,0,1","3","city","150","probe-76","0.13718931412382598","0.38348795426156285","0.8538806919995158","0","","","","","",""
"","do_trial","212","1616572","0.0-193.0-0.0","286.2999999523163","","","","49","0,0,0","3","city","151","probe-18","0.09561995023786998","0.3301697818216626","0.7292769094283742","0","","","","","",""
"","do_trial","213","1622502","0.0-194.0-0.0","329.90000009536743","","","","51","0,0,1","3","city","152","probe-73","0.10740758241631643","0.25170099899404863","0.8814184141821605","1","","","","","",""
"","do_trial","214","1628489","0.0-195.0-0.0","385.60000014305115","","","","51","0,1,0","3","city","153","probe-52","0.1229420591674519","0.31759950998139735","0.7430126156356747","0","","","","","",""
"","do_trial","215","1634536","0.0-196.0-0.0","446","","","","51","0,1,1","3","city","154","probe-110","0.2616800585994658","0.3578829582287933","0.9477860085478647","1","","","","","",""
"","do_trial","216","1640568","0.0-197.0-0.0","435","","","","51","0,0,0","3","city","155","probe-209","0.22788438888727267","0.5263665700486448","0.9270002638997403","0","","","","","",""
"","do_trial","217","1646935","0.0-198.0-0.0","769.7000000476837","","","","50","0,1,0","3","city","156","probe-134","0.05790317212082376","0.41962880813001585","0.946202023921999","1","","","","","",""
"","do_trial","218","1652901","0.0-199.0-0.0","372.2000000476837","","","","50","1,0,1","3","city","157","probe-56","0.0853795437048831","0.4529703419929453","0.9132603652596518","0","","","","","",""
"","do_trial","219","1659149","0.0-200.0-0.0","650.7000000476837","","","","49","0,0,1","3","city","158","probe-188","0.19967925345730717","0.522544870079466","0.822541201927119","0","","","","","",""
"","do_trial","220","1665054","0.0-201.0-0.0","316.59999990463257","","","","51","0,0,1","3","city","159","probe-07","0.1740793142744964","0.35832864796153807","0.8163817434254844","1","","","","","",""
"","do_bye","221","1666573","0.0-202.0-0.0","null","","","","null","","","","","","","","","","","","","","",""
"","do_travel","222","1672587","0.0-203.0-0.0","null","","","","null","","","","","","","","","","","","","","",""
"","do_welcome","223","1674094","0.0-203.0-1.0","null","","","","null","","","","","","","","","","","","","","",""
"","do_trial","224","1680720","0.0-204.0-0.0","1039","","","","49","0,0,1","4","countryside","160","probe-08","0.1601156280849438","0.4183421080390817","1","0","","","","","",""
"","do_trial","225","1686569","0.0-205.0-0.0","249.09999990463257","","","","50","1,0,1","4","countryside","161","probe-43","0.2166215580647405","0.39499033447204546","1","0","","","","","",""
"","do_trial","226","1692500","0.0-206.0-0.0","330.30000019073486","","","","51","0,0,1","4","countryside","162","probe-230","0.3064362907398216","0.41231456507731673","1","1","","","","","",""
"","do_trial","227","1698573","0.0-207.0-0.0","478.5","","","","51","0,0,1","4","countryside","163","probe-11","0.20942931752297483","0.3575783766289867","1","1","","","","","",""
"","do_trial","228","1704665","0.0-208.0-0.0","488.40000009536743","","","","51","0,0,0","4","countryside","164","probe-159","0.0864247537060102","0.3836228447616535","0.8881934784741736","0","","","","","",""
"","do_trial","229","1710515","0.0-209.0-0.0","261.7999999523163","","","","51","0,0,1","4","countryside","165","probe-09","0.08517570341060043","0.5107908573671334","0.893042636672022","1","","","","","",""
"","do_trial","230","1716402","0.0-210.0-0.0","296.2000000476837","","","","51","0,0,1","4","countryside","166","probe-67","0.05695867930364333","0.6113936512821375","0.9285935912451937","1","","","","","",""
"","do_trial","231","1722351","0.0-211.0-0.0","338.2000000476837","","","","51","0,1,1","4","countryside","167","probe-150","0.06743124721713954","0.5708576308423228","0.9124588404242965","1","","","","","",""
"","do_trial","232","1728259","0.0-212.0-0.0","308.2000000476837","","","","51","0,0,0","4","countryside","168","probe-01","0.11800824368149496","0.3912751055445163","0.8407136014561652","0","","","","","",""
"","do_trial","233","1735151","0.0-213.0-0.0","1302.5","","","","50","0,1,0","4","countryside","169","probe-211","0.12107719342979373","0.4087728524229484","0.9180806728973029","1","","","","","",""
"","do_trial","234","1741084","0.0-214.0-0.0","338.7999999523163","","","","49","0,0,1","4","countryside","170","probe-38","0.4655540895482808","0.35815043154420906","0.7091914020545899","0","","","","","",""
"","do_trial","235","1746983","0.0-215.0-0.0","311.5","","","","50","1,0,1","4","countryside","171","probe-75","0.7710209692917461","0.20833838351510625","0.408758537441151","0","","","","","",""
"","do_trial","236","1753200","0.0-216.0-0.0","620.9000000953674","","","","51","1,0,0","4","countryside","172","probe-185","0.7780934811667827","0.3416736242610596","0.4602796525032132","0","","","","","",""
"","do_trial","237","1759197","0.0-217.0-0.0","398.5","","","","50","1,0,0","4","countryside","173","probe-214","0.8721742917556682","0.44352195870508915","0.35208792447081577","0","","","","","",""
"","do_trial","238","1764981","0.0-218.0-0.0","181.79999995231628","","","","49","1,0,0","4","countryside","174","probe-105","0.8820275081509044","0.4320474870656361","0.07692246706824772","1","","","","","",""
"","do_trial","239","1770967","0.0-219.0-0.0","380.5","","","","51","1,0,1","4","countryside","175","probe-84","0.9379382440668244","0.49561829732171275","0.12404689174111169","1","","","","","",""
"","do_trial","240","1776950","0.0-220.0-0.0","392.5","","","","51","1,1,1","4","countryside","176","probe-161","0.8334480239539488","0.6411806692829386","0.15912693580926748","1","","","","","",""
"","do_trial","241","1782933","0.0-221.0-0.0","393.7000000476837","","","","51","1,0,0","4","countryside","177","probe-234","0.9256208182071397","0.5424977702963719","0.1167315840957105","0","","","","","",""
"","do_trial","242","1788873","0.0-222.0-0.0","338.10000014305115","","","","51","1,1,0","4","countryside","178","probe-141","0.8184641350366161","0.5452822569121981","0.09718350202166053","0","","","","","",""
"","do_trial","243","1794688","0.0-223.0-0.0","222.60000014305115","","","","49","0,0,0","4","countryside","179","probe-57","0.6531954436769667","0.36564247069439504","0.27514859820482684","0","","","","","",""
"","do_trial","244","1800649","0.0-224.0-0.0","361.60000014305115","","","","49","0,0,0","4","countryside","180","probe-10","0.6496920755848554","0.4010940003243685","0.09644178029029213","0","","","","","",""
"","do_trial","245","1806915","0.0-225.0-0.0","671","","","","50","1,1,0","4","countryside","181","probe-125","0.7091087512000981","0.48713524991459156","0.12354671861106066","1","","","","","",""
"","do_trial","246","1814748","0.0-226.0-0.0","2247.2000000476837","","","","50","1,0,1","4","countryside","182","probe-194","0.7775003639750215","0.5572034870046128","0.23721649113134516","0","","","","","",""
"","do_trial","247","1820782","0.0-227.0-0.0","442.69999980926514","","","","51","1,1,0","4","countryside","183","probe-154","0.9063257465293156","0.6110687364369378","0.12820749381981567","0","","","","","",""
"","do_trial","248","1826981","0.0-228.0-0.0","614.8999998569489","","","","51","1,1,0","4","countryside","184","probe-130","0.7713151050625786","0.4431755703743296","0.08678581577873097","0","","","","","",""
"","do_trial","249","1832964","0.0-229.0-0.0","380.69999980926514","","","","51","1,0,0","4","countryside","185","probe-197","0.8245410732403816","0.34230909918705876","0.1991172869985592","0","","","","","",""
"","do_trial","250","1838865","0.0-230.0-0.0","298.5","","","","49","1,0,0","4","countryside","186","probe-223","0.9468511538550055","0.39516261888596904","0.10473435898243562","1","","","","","",""
"","do_trial","251","1845082","0.0-231.0-0.0","622.2999999523163","","","","49","1,1,0","4","countryside","187","probe-132","0.8988511817587207","0.4027491186676509","0.06979638150144575","1","","","","","",""
"","do_trial","252","1850996","0.0-232.0-0.0","316.90000009536743","","","","49","1,1,0","4","countryside","188","probe-144","0.9304534289175306","0.23558542187356438","0.08843149194280774","1","","","","","",""
"","do_trial","253","1856929","0.0-233.0-0.0","331.2999999523163","","","","49","1,0,0","4","countryside","189","probe-156","0.9390584226198625","0.37300119468281084","0.060660175172681116","1","","","","","",""
"","do_trial","254","1862863","0.0-234.0-0.0","337.7000000476837","","","","49","1,1,0","4","countryside","190","probe-97","0.8690263253097429","0.3471556143933808","0.13170453063557191","1","","","","","",""
"","do_trial","255","1868776","0.0-235.0-0.0","310.39999985694885","","","","49","1,1,0","4","countryside","191","probe-72","0.9131735354673304","0.34989985785232064","0.15718793667400482","1","","","","","",""
"","do_trial","256","1874731","0.0-236.0-0.0","357.10000014305115","","","","49","1,1,0","4","countryside","192","probe-62","0.7373636305626207","0.3534295285401818","0.14968216591429467","1","","","","","",""
"","do_trial","257","1880595","0.0-237.0-0.0","270.2999999523163","","","","49","0,0,1","4","countryside","193","probe-127","0.5784731675115732","0.3963538467743682","0.1421628033360014","0","","","","","",""
"","do_trial","258","1886412","0.0-238.0-0.0","223.79999995231628","","","","49","0,0,0","4","countryside","194","probe-200","0.8603573327786923","0.16700169333364845","0.20127927492216288","0","","","","","",""
"","do_trial","259","1892479","0.0-239.0-0.0","468.59999990463257","","","","51","1,0,0","4","countryside","195","probe-199","0.8569501736215216","0.21293492134558173","0.06757003287055369","0","","","","","",""
"","do_trial","260","1898428","0.0-240.0-0.0","363.7000000476837","","","","51","1,0,0","4","countryside","196","probe-53","0.8706816676393276","0.39979051151762074","0.16575076776923858","0","","","","","",""
"","do_trial","261","1904295","0.0-241.0-0.0","271.90000009536743","","","","50","1,0,0","4","countryside","197","probe-173","0.8962475208120545","0.3631148699503822","0.06880489593560153","0","","","","","",""
"","do_trial","262","1910161","0.0-242.0-0.0","278.7999999523163","","","","49","0,0,0","4","countryside","198","probe-60","0.8409769321175187","0.36803776885844464","0.15381910837790755","0","","","","","",""
"","do_trial","263","1916080","0.0-243.0-0.0","331.7000000476837","","","","49","1,1,1","4","countryside","199","probe-59","0.8849469818977757","0.46361654533443714","0.14672476234763918","1","","","","","",""
"","do_bye","264","1917594","0.0-244.0-0.0","null","","","","null","","","","","","","","","","","","","","",""
"","do_travel","265","1923606","0.0-245.0-0.0","null","","","","null","","","","","","","","","","","","","","",""
"","do_welcome","266","1925122","0.0-245.0-1.0","null","","","","null","","","","","","","","","","","","","","",""
"","do_trial","267","1932158","0.0-246.0-0.0","1449.7999999523163","","","","49","1,0,0","5","mountain","200","probe-25","1","0.39177319138549777","0.15080889710474096","1","","","","","",""
"","do_trial","268","1938130","0.0-247.0-0.0","381.2000000476837","","","","49","1,0,0","5","mountain","201","probe-191","1","0.30186508884000185","0.27232995107041424","1","","","","","",""
"","do_trial","269","1944276","0.0-248.0-0.0","562.6000001430511","","","","49","1,0,0","5","mountain","202","probe-26","1","0.48336876534634476","0.17330343917004576","1","","","","","",""
"","do_trial","270","1950244","0.0-249.0-0.0","375.59999990463257","","","","49","1,0,0","5","mountain","203","probe-114","1","0.5344450541545338","0.22423215166810942","1","","","","","",""
"","do_trial","271","1956275","0.0-250.0-0.0","434.7000000476837","","","","49","1,1,0","5","mountain","204","probe-232","0.8720265441456235","0.6871405325178657","0.16397760401224948","1","","","","","",""
"","do_trial","272","1962443","0.0-251.0-0.0","579.7999999523163","","","","49","1,0,0","5","mountain","205","probe-82","0.888157939403396","0.538409412174479","0.1703751581537099","1","","","","","",""
"","do_trial","273","1968578","0.0-252.0-0.0","535.7999999523163","","","","49","1,0,0","5","mountain","206","probe-187","0.9342312352624713","0.5351338187474957","0.07413797473812136","1","","","","","",""
"","do_trial","274","1974608","0.0-253.0-0.0","439.5","","","","49","1,1,0","5","mountain","207","probe-215","0.8881080304995131","0.4876677601460226","0.0904895586431362","1","","","","","",""
"","do_trial","275","1980658","0.0-254.0-0.0","454.2000000476837","","","","49","1,1,0","5","mountain","208","probe-184","0.7983486995735816","0.5539529232191215","0.08037432044479367","1","","","","","",""
"","do_trial","276","1986658","0.0-255.0-0.0","398.7000000476837","","","","49","1,1,0","5","mountain","209","probe-16","0.7032035935180002","0.49999873691632996","0.13800160066322942","1","","","","","",""
"","do_trial","277","1992590","0.0-256.0-0.0","341.7999999523163","","","","49","0,0,0","5","mountain","210","probe-78","0.32030906155248967","0.48249861464038596","0.3723758526487646","0","","","","","",""
"","do_trial","278","1998561","0.0-257.0-0.0","373.7000000476837","","","","49","0,1,0","5","mountain","211","probe-155","0.29120110505938995","0.3788961757724332","0.6025528396386285","0","","","","","",""
"","do_trial","279","2004485","0.0-258.0-0.0","334.7000000476837","","","","51","1,0,0","5","mountain","212","probe-221","0.30015326212806764","0.4150748241598211","0.6721726700443423","0","","","","","",""
"","do_trial","280","2010375","0.0-259.0-0.0","304","","","","50","0,0,0","5","mountain","213","probe-55","0.16037297371671677","0.2658518235012199","0.5912542080153567","0","","","","","",""
"","do_trial","281","2016223","0.0-260.0-0.0","250.29999995231628","","","","50","0,0,1","5","mountain","214","probe-224","0.08179477349651937","0.39296769296444106","0.7114178790207888","0","","","","","",""
"","do_trial","282","2022040","0.0-261.0-0.0","229.39999985694885","","","","49","0,0,1","5","mountain","215","probe-168","0.12014376665851444","0.3852885079764255","0.701131036244208","0","","","","","",""
"","do_trial","283","2027923","0.0-262.0-0.0","284.59999990463257","","","","49","0,1,1","5","mountain","216","probe-103","0.12813771684945144","0.5197455908878122","0.6192874561030199","0","","","","","",""
"","do_trial","284","2033778","0.0-263.0-0.0","260.60000014305115","","","","49","0,1,1","5","mountain","217","probe-176","0.17037929548382033","0.4058697529975281","0.581854509652067","0","","","","","",""
"","do_trial","285","2039639","0.0-264.0-0.0","267.5","","","","51","0,0,0","5","mountain","218","probe-237","0.07730207289829588","0.3661077958813837","0.6078025525904547","0","","","","","",""
"","do_trial","286","2045540","0.0-265.0-0.0","311","","","","51","0,0,0","5","mountain","219","probe-06","0.13753010684095066","0.309856415224024","0.6138260634997171","0","","","","","",""
"","do_trial","287","2051555","0.0-266.0-0.0","428.2000000476837","","","","50","0,1,0","5","mountain","220","probe-147","0.13728006247289226","0.36047761470070255","0.6556201297561185","1","","","","","",""
"","do_trial","288","2057855","0.0-267.0-0.0","712.8000001907349","","","","50","0,0,0","5","mountain","221","probe-153","0.08333146028319639","0.31170011038035955","0.7553195184908412","0","","","","","",""
"","do_trial","289","2063983","0.0-268.0-0.0","532.2999999523163","","","","50","1,0,0","5","mountain","222","probe-152","0.17743133874224115","0.30856376164846494","0.6313601261495302","0","","","","","",""
"","do_trial","290","2069890","0.0-269.0-0.0","310.7999999523163","","","","49","0,0,0","5","mountain","223","probe-83","0.11437641101046113","0.33749585355106343","0.547448312802544","0","","","","","",""
"","do_trial","291","2075889","0.0-270.0-0.0","397.5","","","","49","0,1,1","5","mountain","224","probe-189","0.10298808676236176","0.42418652552409813","0.6249159554430795","0","","","","","",""
"","do_trial","292","2082088","0.0-271.0-0.0","573","","","","51","0,1,1","5","mountain","225","probe-85","0.1996303147674177","0.3995751791657693","0.6002018129798414","1","","","","","",""
"","do_trial","293","2088257","0.0-272.0-0.0","576","","","","51","0,0,0","5","mountain","226","probe-126","0.2420587422305232","0.43281315984260427","0.6975420384604144","0","","","","","",""
"","do_trial","294","2094279","0.0-273.0-0.0","416.7000000476837","","","","50","0,0,1","5","mountain","227","probe-77","0.2212283023379294","0.31657339760936287","0.6316773040741589","0","","","","","",""
"","do_trial","295","2100505","0.0-274.0-0.0","640.5","","","","49","0,0,1","5","mountain","228","probe-101","0.17500345807862258","0.44506457244170533","0.79935075854176","0","","","","","",""
"","do_trial","296","2107420","0.0-275.0-0.0","1322.2000000476837","","","","51","0,1,1","5","mountain","229","probe-149","0.13503961499339853","0.5263340939939176","0.8604320009207496","1","","","","","",""
"","do_trial","297","2113554","0.0-276.0-0.0","533.2000000476837","","","","51","1,1,0","5","mountain","230","probe-212","0.2329366271117155","0.43091340842069314","0.8215647699941008","0","","","","","",""
"","do_trial","298","2119551","0.0-277.0-0.0","397.59999990463257","","","","51","0,0,0","5","mountain","231","probe-30","0.2141191254414974","0.3440345514534592","0.8118292013070755","0","","","","","",""
"","do_trial","299","2125569","0.0-278.0-0.0","420.2999999523163","","","","51","0,0,1","5","mountain","232","probe-95","0.18535279693761983","0.28321236553947104","0.719883629635178","1","","","","","",""
"","do_trial","300","2131687","0.0-279.0-0.0","526.2000000476837","","","","51","0,1,1","5","mountain","233","probe-137","0.19778024115653264","0.487793828690574","0.6702307792925446","1","","","","","",""
"","do_trial","301","2138320","0.0-280.0-0.0","1047.0999999046326","","","","51","1,0,1","5","mountain","234","probe-136","0.20403709664707076","0.4997627131927064","0.7437036076510871","1","","","","","",""
"","do_trial","302","2144370","0.0-281.0-0.0","459.39999985694885","","","","51","0,0,1","5","mountain","235","probe-13","0.07592570092336155","0.48428044325273106","0.7243149486291304","1","","","","","",""
"","do_trial","303","2150469","0.0-282.0-0.0","495.7000000476837","","","","51","0,1,1","5","mountain","236","probe-41","0.11503291509895962","0.510863710101047","0.8644971609376205","1","","","","","",""
"","do_trial","304","2156520","0.0-283.0-0.0","454.80000019073486","","","","51","0,1,1","5","mountain","237","probe-182","0.1832959618461401","0.36198195494521485","0.7746936736915205","1","","","","","",""
"","do_trial","305","2162568","0.0-284.0-0.0","453.39999985694885","","","","51","0,1,1","5","mountain","238","probe-233","0.14040284566009187","0.5142998089659009","0.938932058764415","1","","","","","",""
"","do_trial","306","2168706","0.0-285.0-0.0","549.7000000476837","","","","51","0,1,1","5","mountain","239","probe-94","0.10496539857826238","0.479769225289788","0.8208250546426901","1","","","","","",""
"","do_bye","307","2170218","0.0-286.0-0.0","null","","","","null","","","","","","","","","","","","","","",""
"","html-keyboard-response","308","2197803","0.0-286.0-1.0","27581.599999904633","<div class='center'><p>You may take a break now!</p><p> Stretch for a little bit. Get a glass of water.</p><p> You have two minutes to rest. Then, the game will automatically move on.</p><p>If you’d like to get started on the second half of the experiment sooner, then press the <b>space bar</b></p></div>","32","","","","","","","","","","","","","","","","",""
"","html-keyboard-response","309","2209844","0.0-286.0-2.0","12038.899999856949","<div class='center'><p>You’ve arrived at the final destination of your journey! Unfortunately, it’s very foggy out, so you won’t be able to see it in the distance like in previous places you've visited.</p><p>You’ll still be deciding which pirates you want to rob ships. However, because of the fog you also won’t be able to see the ship in the distance. </p><p><b>[Press the space bar to continue]</b></p></div>","32","","","","","","","","","","","","","","","","",""
"","html-keyboard-response","310","2239009","0.0-286.0-3.0","29159.299999952316","<div class='center'><p> Sometimes you’ll be asked if you’ve seen a ship before (see the example below). You will use the 5, 6, 7, 8 buttons on your keyboard to respond. </p><p> If you definitely did not see the ship, pick the the big red thumbs down by pressing <b>5</b>.</p><p> If you don’t think you saw it but aren’t sure, then pick the small red thumbs down by pressing <b>6</b>.</p><p> If you think you might have seen it, then pick the small green thumbs up by pressing <b>7</b>.</p><p> If you definitely did see this ship before, then pick the big thumb green thumbs up by pressing <b>8</b>.</p><p> If you recall correctly, then you’ll get a gold coin!</p><p><b>[Press the space bar to begin the next phase of the experiment]</b></p><p><img src='run_exp/static/images/example_recog_trial.png' height='500'></p></div>","32","","","","","","","","","","","","","","","","",""
"","do_welcome","311","2240519","0.0-286.0-4.0","null","","","","null","","","","","","","","","","","","","","",""
"","do_trial","312","2246616","0.0-287.0-0.0","null","","","","null","0,1,1","6","blank","240","null","0.08419019733054789","0.430420044604627","1","","","","","","",""
"","do_recog","313","2252646","0.0-288.0-0.0","null","","","","null","","","","241","probe-220","","","","","1","[object Object]","120","3","0",""
"","do_trial","314","2257128","0.0-289.0-0.0","887.2000000476837","","","","49","0,1,1","6","blank","242","null","0.10405278420928639","0.5704866759206647","0.9246837774515946","0","","","","","",""
"","do_recog","315","2261323","0.0-290.0-0.0","2672.5","","","","56","","","","243","probe-190","","","","","1","[object Object]","44","1","1",""
"","do_trial","316","2266338","0.0-291.0-0.0","1425.4000000953674","","","","50","1,0,1","6","blank","244","null","0.15376527824648176","0.5462053982023897","0.9308092806089513","0","","","","","",""
"","do_recog","317","2271346","0.0-292.0-0.0","3486.2000000476837","","","","53","","","","245","probe-246","","","","","0","[object Object]","null","null","1",""
"","do_trial","318","2276498","0.0-293.0-0.0","1554.5999999046326","","","","49","0,0,1","6","blank","246","null","0.06745029619351954","0.5688631956791487","0.9480908212595707","0","","","","","",""
"","do_trial","319","2281760","0.0-294.0-0.0","1663.9000000953674","","","","51","0,1,1","6","blank","247","null","0.07491032456867719","0.5311952441266025","0.7896699161505165","1","","","","","",""
"","do_trial","320","2286748","0.0-295.0-0.0","1403.6000001430511","","","","50","0,0,1","6","blank","248","null","0.08615076657393968","0.6417851994679099","0.9419358894235909","0","","","","","",""
"","do_recog","321","2290445","0.0-296.0-0.0","2175.899999856949","","","","56","","","","249","probe-108","","","","","1","[object Object]","81","2","1",""
"","do_trial","322","2295363","0.0-297.0-0.0","1321.2999999523163","","","","49","0,1,1","6","blank","250","null","0.06154357699755115","0.48202711396401876","0.8861121752441184","0","","","","","",""
"","do_recog","323","2298942","0.0-298.0-0.0","2053.5","","","","55","","","","251","probe-159","","","","","1","[object Object]","164","4","1",""
"","do_trial","324","2303562","0.0-299.0-0.0","1023.6000001430511","","","","49","0,0,1","6","blank","252","null","0.11114880485731952","0.39498628414354975","0.8382807874157591","0","","","","","",""
"","do_trial","325","2308311","0.0-300.0-0.0","1158","","","","51","0,0,1","6","blank","253","null","0.10512503290843561","0.5077637168965491","0.8905270312818582","1","","","","","",""
"","do_recog","326","2311648","0.0-301.0-0.0","1823.2000000476837","","","","56","","","","254","probe-160","","","","","1","[object Object]","125","3","1",""
"","do_trial","327","2316957","0.0-302.0-0.0","1715.8999998569489","","","","51","0,1,1","6","blank","255","null","0.061727350945812005","0.5238754133784977","0.7665477392261587","1","","","","","",""
"","do_recog","328","2320245","0.0-303.0-0.0","1769.5","","","","56","","","","256","probe-111","","","","","1","[object Object]","45","1","1",""
"","do_trial","329","2324911","0.0-304.0-0.0","1059.2999999523163","","","","51","1,0,1","6","blank","257","null","0.34761754170480225","0.3881924996916291","0.7506327198656036","1","","","","","",""
"","do_recog","330","2327783","0.0-305.0-0.0","1354.9000000953674","","","","56","","","","258","probe-112","","","","","1","[object Object]","48","1","1",""
"","do_trial","331","2332245","0.0-306.0-0.0","853.2999999523163","","","","51","1,0,0","6","blank","259","null","0.49618577607405","0.3085793703074394","0.5921723419024582","0","","","","","",""
"","do_recog","332","2335380","0.0-307.0-0.0","1615.0999999046326","","","","56","","","","260","probe-43","","","","","1","[object Object]","161","4","1",""
"","do_trial","333","2340028","0.0-308.0-0.0","1053.8000001907349","","","","50","1,0,0","6","blank","261","null","0.533248082475622","0.33891303179662385","0.6034312925509925","0","","","","","",""
"","do_trial","334","2344794","0.0-309.0-0.0","1169","","","","51","1,0,0","6","blank","262","null","0.5891972886376605","0.19301943329977816","0.44782720551754146","0","","","","","",""
"","do_recog","335","2348719","0.0-310.0-0.0","2409.7999999523163","","","","55","","","","263","probe-40","","","","","1","[object Object]","127","3","1",""
"","do_trial","336","2352961","0.0-311.0-0.0","653.4000000953674","","","","49","0,0,1","6","blank","264","null","0.650479579599358","0.05271834383790432","0.4172450221008711","0","","","","","",""
"","do_recog","337","2356878","0.0-312.0-0.0","2386.399999856949","","","","55","","","","265","probe-203","","","","","1","[object Object]","43","1","1",""
"","do_trial","338","2361411","0.0-313.0-0.0","935.2999999523163","","","","51","1,0,1","6","blank","266","null","0.7967499814301513","0.062093606753985","0.4709365148566809","1","","","","","",""
"","do_recog","339","2364227","0.0-314.0-0.0","1287.2000000476837","","","","56","","","","267","probe-16","","","","","1","[object Object]","209","5","1",""
"","do_trial","340","2368893","0.0-315.0-0.0","1058.5999999046326","","","","51","0,0,0","6","blank","268","null","0.7957253593305259","0.07230004206210454","0.5511789699409316","0","","","","","",""
"","do_trial","341","2373260","0.0-316.0-0.0","765.4000000953674","","","","51","1,0,1","6","blank","269","null","0.7714476897663193","0.08313646680042781","0.43574625436074116","1","","","","","",""
"","do_trial","342","2378110","0.0-317.0-0.0","1243.9000000953674","","","","51","1,0,0","6","blank","270","null","0.8832564147653927","0.15338449948338992","0.455424391239676","0","","","","","",""
"","do_trial","343","2382144","0.0-318.0-0.0","439.80000019073486","","","","51","1,0,0","6","blank","271","null","0.8046876143371648","0.06980449066795819","0.4305268766384552","0","","","","","",""
"","do_trial","344","2386527","0.0-319.0-0.0","786.6999998092651","","","","49","0,0,0","6","blank","272","null","0.6644346825122953","0.08030400606370858","0.3050907217702458","0","","","","","",""
"","do_trial","345","2390475","0.0-320.0-0.0","345.90000009536743","","","","50","1,0,0","6","blank","273","null","0.5958300487866344","0.1845071069912217","0.3270518457808302","0","","","","","",""
"","do_recog","346","2393830","0.0-321.0-0.0","1835.8999998569489","","","","56","","","","274","probe-08","","","","","1","[object Object]","160","4","1",""
"","do_trial","347","2398611","0.0-322.0-0.0","1194.8999998569489","","","","51","1,0,0","6","blank","275","null","0.6258737228932919","0.1441757864819913","0.3071222201558647","0","","","","","",""
"","do_recog","348","2401843","0.0-323.0-0.0","1714.9000000953674","","","","56","","","","276","probe-124","","","","","1","[object Object]","82","2","1",""
"","do_trial","349","2406393","0.0-324.0-0.0","956.7000000476837","","","","51","1,0,0","6","blank","277","null","0.6314850812794804","0.15881862966136925","0.3390946895787277","0","","","","","",""
"","do_recog","350","2409397","0.0-325.0-0.0","1492.1000001430511","","","","56","","","","278","probe-179","","","","","1","[object Object]","49","1","1",""
"","do_trial","351","2413975","0.0-326.0-0.0","969.5999999046326","","","","51","1,0,1","6","blank","279","null","0.6514656457846145","0.11538144841841065","0.3211308679663153","1","","","","","",""
"","do_recog","352","2416961","0.0-327.0-0.0","1471.2999999523163","","","","56","","","","280","probe-114","","","","","1","[object Object]","203","5","1",""
"","do_trial","353","2421109","0.0-328.0-0.0","560.4000000953674","","","","51","0,0,0","6","blank","281","null","0.6394523366831002","0.13778138177386587","0.30569871350549466","0","","","","","",""
"","do_trial","354","2425054","0.0-329.0-0.0","359.2000000476837","","","","50","1,0,1","6","blank","282","null","0.6813482878214974","0.08983799191016396","0.30368200427845937","0","","","","","",""
"","do_trial","355","2429124","0.0-330.0-0.0","484.2000000476837","","","","50","1,0,0","6","blank","283","null","0.7887790167894546","0.08099491260482271","0.4615631665113978","0","","","","","",""
"","do_trial","356","2433158","0.0-331.0-0.0","438.7999999523163","","","","50","0,0,1","6","blank","284","null","0.8318453596888471","0.17106698547649565","0.5185016736603602","0","","","","","",""
"","do_trial","357","2437725","0.0-332.0-0.0","965.0999999046326","","","","49","1,0,0","6","blank","285","null","0.8248821252691048","0.18389644048292564","0.48582412258592916","1","","","","","",""
"","do_trial","358","2442308","0.0-333.0-0.0","985.6999998092651","","","","49","1,0,1","6","blank","286","null","1","0.13714503564820404","0.5179104110466749","1","","","","","",""
"","do_recog","359","2445940","0.0-334.0-0.0","2112.2999999523163","","","","56","","","","287","probe-28","","","","","1","[object Object]","87","2","1",""
"","do_trial","360","2449888","0.0-335.0-0.0","363.2999999523163","","","","49","1,0,0","6","blank","288","null","0.7167635486027379","0.08569439710597739","0.4395026141561404","1","","","","","",""
"","do_recog","361","2452758","0.0-336.0-0.0","1357.2999999523163","","","","56","","","","289","probe-187","","","","","1","[object Object]","206","5","1",""
"","do_trial","362","2456874","0.0-337.0-0.0","530.2999999523163","","","","49","1,0,1","6","blank","290","null","0.7962296285176571","0.07186825015116977","0.39731190018316187","1","","","","","",""
"","do_trial","363","2461075","0.0-338.0-0.0","612","","","","49","1,0,1","6","blank","291","null","0.8812281695398599","0.1432993945524722","0.49043538945082094","1","","","","","",""
"","do_recog","364","2465394","0.0-339.0-0.0","2806.7999999523163","","","","54","","","","292","probe-242","","","","","0","[object Object]","null","null","1",""
"","do_trial","365","2469756","0.0-340.0-0.0","760.2999999523163","","","","49","1,0,0","6","blank","293","null","0.7923692103311755","0.13036141427520706","0.3936744051996232","1","","","","","",""
"","do_trial","366","2473706","0.0-341.0-0.0","361.2000000476837","","","","49","1,0,0","6","blank","294","null","0.7803903593677732","0.06085535651285743","0.41438326436119655","1","","","","","",""
"","do_trial","367","2477856","0.0-342.0-0.0","550.4000000953674","","","","49","1,0,0","6","blank","295","null","0.7584174701273318","0.1745570448012062","0.4710243278794785","1","","","","","",""
"","do_trial","368","2481755","0.0-343.0-0.0","314.5","","","","51","0,0,0","6","blank","296","null","0.6261191473861634","0.2183543941861337","0.39397571641789747","0","","","","","",""
"","do_trial","369","2485772","0.0-344.0-0.0","419.09999990463257","","","","49","1,0,0","6","blank","297","null","0.7213481989975731","0.17091035672150434","0.41565893766627837","1","","","","","",""
"","do_recog","370","2488961","0.0-345.0-0.0","1673.7999999523163","","","","56","","","","298","probe-117","","","","","1","[object Object]","126","3","1",""
"","do_trial","371","2493272","0.0-346.0-0.0","612.5","","","","49","1,0,0","6","blank","299","null","0.7372590085820193","0.05150657560381083","0.47327074910546785","1","","","","","",""
"","do_trial","372","2497389","0.0-347.0-0.0","527.5","","","","49","0,1,1","6","blank","300","null","0.6019810606731113","0.18330792234998305","0.22561030174929708","0","","","","","",""
"","do_trial","373","2502072","0.0-348.0-0.0","1091.7999999523163","","","","49","1,0,0","6","blank","301","null","0.6664038314022624","0.25915399658231186","0.27318847257980866","1","","","","","",""
"","do_recog","374","2505144","0.0-349.0-0.0","1554.6000001430511","","","","56","","","","302","probe-215","","","","","1","[object Object]","207","5","1",""
"","do_trial","375","2509343","0.0-350.0-0.0","612.2000000476837","","","","49","1,1,0","6","blank","303","null","0.6925519139629016","0.35226260016483557","0.19404007749083266","1","","","","","",""
"","do_recog","376","2511939","0.0-351.0-0.0","1083.2999999523163","","","","56","","","","304","probe-181","","","","","1","[object Object]","46","1","1",""
"","do_trial","377","2516503","0.0-352.0-0.0","938.2999999523163","","","","49","1,0,0","6","blank","305","null","0.5853761931430954","0.5032480922538002","0.21977917756974719","1","","","","","",""
"","do_recog","378","2519113","0.0-353.0-0.0","1086.0999999046326","","","","56","","","","306","probe-133","","","","","1","[object Object]","86","2","1",""
"","do_trial","379","2523105","0.0-354.0-0.0","407.10000014305115","","","","49","1,1,0","6","blank","307","null","0.3702939927310934","0.7705807138569994","0.12012275779539955","1","","","","","",""
"","do_trial","380","2527438","0.0-355.0-0.0","743.1000001430511","","","","49","0,1,0","6","blank","308","null","0.30970826791087436","0.8400045668481592","0.15966343575980171","0","","","","","",""
"","do_trial","381","2531288","0.0-356.0-0.0","255.5","","","","51","0,0,0","6","blank","309","null","0.20270810324695154","0.7363162633432517","0.18736447306635107","0","","","","","",""
"","do_trial","382","2535212","0.0-357.0-0.0","334.2000000476837","","","","50","0,1,1","6","blank","310","null","0.3825255184549065","0.6359247631157783","0.0845455155301601","1","","","","","",""
"","do_recog","383","2540204","0.0-358.0-0.0","3475.2999999523163","","","","54","","","","311","probe-257","","","","","0","[object Object]","null","null","1",""
"","do_trial","384","2544987","0.0-359.0-0.0","1193.4000000953674","","","","49","0,0,0","6","blank","312","null","0.4037101514914223","0.7317630554212593","0.054117668340422344","0","","","","","",""
"","do_recog","385","2548371","0.0-360.0-0.0","1872.9000000953674","","","","56","","","","313","probe-69","","","","","1","[object Object]","40","1","1",""
"","do_trial","386","2553475","0.0-361.0-0.0","1515.7000000476837","","","","49","0,1,0","6","blank","314","null","0.31108398197909","0.8322746624427703","0.11316633844569213","0","","","","","",""
"","do_recog","387","2556537","0.0-362.0-0.0","1550.9000000953674","","","","56","","","","315","probe-09","","","","","1","[object Object]","165","4","1",""
"","do_trial","388","2560752","0.0-363.0-0.0","609.5999999046326","","","","49","0,1,0","6","blank","316","null","0.27358965020584225","0.8017754441000031","0.2065338809172249","0","","","","","",""
"","do_trial","389","2564632","0.0-364.0-0.0","291.89999985694885","","","","50","1,1,0","6","blank","317","null","0.3533744621824051","0.9149785501393481","0.21745561706933245","1","","","","","",""
"","do_trial","390","2568867","0.0-365.0-0.0","650.1000001430511","","","","51","1,1,0","6","blank","318","null","0.302705782325106","0.8351160855499075","0.1873211809047459","0","","","","","",""
"","do_recog","391","2572788","0.0-366.0-0.0","2410.7999999523163","","","","54","","","","319","probe-191","","","","","1","[object Object]","201","5","0",""
"","do_trial","392","2577653","0.0-367.0-0.0","1258.6999998092651","","","","49","0,1,0","6","blank","320","null","0.39064913875337587","0.6622345597984374","0.2164152356798266","0","","","","","",""
"","do_recog","393","2580433","0.0-368.0-0.0","1255.9000000953674","","","","56","","","","321","probe-230","","","","","1","[object Object]","162","4","1",""
"","do_trial","394","2584900","0.0-369.0-0.0","860.6000001430511","","","","49","0,1,0","6","blank","322","null","0.39909970088209246","0.8123723740247947","0.1332139525963356","0","","","","","",""
"","do_recog","395","2587652","0.0-370.0-0.0","1227.5","","","","56","","","","323","probe-235","","","","","1","[object Object]","42","1","1",""
"","do_trial","396","2592168","0.0-371.0-0.0","917.1000001430511","","","","51","0,1,0","6","blank","324","null","0.36676056083700104","0.6224026393754254","0.13226100636522484","0","","","","","",""
"","do_recog","397","2595602","0.0-372.0-0.0","1912.3000001907349","","","","56","","","","325","probe-01","","","","","1","[object Object]","168","4","1",""
"","do_trial","398","2599984","0.0-373.0-0.0","779.5999999046326","","","","49","0,1,0","6","blank","326","null","0.41427173285297436","0.6105977199137229","0.07521704648240317","0","","","","","",""
"","do_trial","399","2603955","0.0-374.0-0.0","384.5","","","","51","0,1,0","6","blank","327","null","0.45480806988070455","0.7263060841730169","0.1610505966881736","0","","","","","",""
"","do_trial","400","2607883","0.0-375.0-0.0","327.90000009536743","","","","50","1,1,0","6","blank","328","null","0.5406508468160682","0.7163733784407856","0.1773756904772857","1","","","","","",""
"","do_recog","401","2610451","0.0-376.0-0.0","1052.1999998092651","","","","56","","","","329","probe-93","","","","","1","[object Object]","121","3","1",""
"","do_trial","402","2614414","0.0-377.0-0.0","361.7999999523163","","","","50","0,1,0","6","blank","330","null","0.5065843407930807","0.7886732559072077","0.10674631315820031","1","","","","","",""
"","do_trial","403","2618401","0.0-378.0-0.0","394.39999985694885","","","","50","1,1,0","6","blank","331","null","0.47313459830808613","1","0.05447065758345653","1","","","","","",""
"","do_trial","404","2622484","0.0-379.0-0.0","468.60000014305115","","","","50","1,1,0","6","blank","332","null","0.3661983002988831","0.9447498719324062","0.13904814410929758","1","","","","","",""
"","do_trial","405","2627000","0.0-380.0-0.0","920.3999998569489","","","","50","0,1,0","6","blank","333","null","0.3739824571424875","0.7139514170883292","0.08422230034392125","1","","","","","",""
"","do_recog","406","2629771","0.0-381.0-0.0","1248.5","","","","56","","","","334","probe-26","","","","","1","[object Object]","202","5","1",""
"","do_trial","407","2634505","0.0-382.0-0.0","1136.8999998569489","","","","50","0,1,0","6","blank","335","null","0.25623866470239554","0.743215435768024","0.06194532193733752","1","","","","","",""
"","do_trial","408","2638684","0.0-383.0-0.0","582.7000000476837","","","","50","1,1,0","6","blank","336","null","0.361743174531705","0.7590331964095783","0.1584105295934694","1","","","","","",""
"","do_trial","409","2642666","0.0-384.0-0.0","395","","","","50","0,1,0","6","blank","337","null","0.25668407284178274","0.7614960093535291","0.2524192407606397","1","","","","","",""
"","do_recog","410","2645257","0.0-385.0-0.0","1075.7000000476837","","","","56","","","","338","probe-225","","","","","1","[object Object]","123","3","1",""
"","do_trial","411","2649523","0.0-386.0-0.0","668.4000000953674","","","","50","1,1,1","6","blank","339","null","0.4475568241190807","0.8443353695380316","0.20181677147178775","1","","","","","",""
"","do_recog","412","2652167","0.0-387.0-0.0","1131.5","","","","56","","","","340","probe-150","","","","","1","[object Object]","167","4","1",""
"","do_trial","413","2656184","0.0-388.0-0.0","430.5","","","","50","0,0,0","6","blank","341","null","0.510457863734955","0.8128900648011808","0.19894710921735495","0","","","","","",""
"","do_recog","414","2659150","0.0-389.0-0.0","1452.9000000953674","","","","56","","","","342","probe-208","","","","","1","[object Object]","85","2","1",""
"","do_trial","415","2663349","0.0-390.0-0.0","601.7999999523163","","","","49","1,1,0","6","blank","343","null","0.4358850534802508","0.7104607722101725","0.11184323234665029","1","","","","","",""
"","do_recog","416","2665783","0.0-391.0-0.0","914.9000000953674","","","","56","","","","344","probe-232","","","","","1","[object Object]","204","5","1",""
"","do_trial","417","2669815","0.0-392.0-0.0","447","","","","51","0,1,0","6","blank","345","null","0.3126662215254318","0.612217084278393","0.17729132345070292","0","","","","","",""
"","do_recog","418","2672349","0.0-393.0-0.0","1017.9000000953674","","","","56","","","","346","probe-218","","","","","1","[object Object]","47","1","1",""
"","do_trial","419","2676415","0.0-394.0-0.0","480.2000000476837","","","","51","0,1,1","6","blank","347","null","0.46135708821468047","0.3640293448290585","0.3358451329500998","1","","","","","",""
"","do_recog","420","2680397","0.0-395.0-0.0","2464","","","","54","","","","348","probe-202","","","","","1","[object Object]","84","2","0",""
"","do_trial","421","2685666","0.0-396.0-0.0","1655.2999999523163","","","","50","0,0,0","6","blank","349","null","0.46927574264696936","0.23451378176905696","0.5648689239413247","0","","","","","",""
"","do_recog","422","2688900","0.0-397.0-0.0","1724.3000001907349","","","","56","","","","350","probe-11","","","","","1","[object Object]","163","4","1",""
"","do_trial","423","2693200","0.0-398.0-0.0","715","","","","49","1,1,1","6","blank","351","null","0.43704430793407795","0.18041163332543705","0.665111387889822","1","","","","","",""
"","do_trial","424","2697346","0.0-399.0-0.0","547","","","","49","1,0,1","6","blank","352","null","0.43845516800275924","0.1066570043806642","0.6622037291165748","1","","","","","",""
"","do_trial","425","2701350","0.0-400.0-0.0","398.2000000476837","","","","49","1,0,0","6","blank","353","null","0.507658713672214","0.05716341243901372","0.6417322082933508","1","","","","","",""
"","do_trial","426","2705284","0.0-401.0-0.0","336.7999999523163","","","","49","1,1,0","6","blank","354","null","0.4325762259060398","0.1116194781727508","0.7213726415326239","1","","","","","",""
"","do_trial","427","2709214","0.0-402.0-0.0","317.40000009536743","","","","49","1,1,1","6","blank","355","null","0.4760603712423687","0.18489810588194977","0.7452604997566122","1","","","","","",""
"","do_trial","428","2713181","0.0-403.0-0.0","378","","","","49","1,1,1","6","blank","356","null","0.5976933959748278","0.0970607696041274","0.8836073912234675","1","","","","","",""
"","do_recog","429","2715680","0.0-404.0-0.0","977.1999998092651","","","","56","","","","357","probe-128","","","","","1","[object Object]","122","3","1",""
"","do_trial","430","2719664","0.0-405.0-0.0","387.7999999523163","","","","49","1,0,1","6","blank","358","null","0.6932204040438039","0.06307644606004899","0.8658436239852952","1","","","","","",""
"","do_recog","431","2723245","0.0-406.0-0.0","2052.2999999523163","","","","54","","","","359","probe-258","","","","","0","[object Object]","null","null","1",""
"","do_trial","432","2727730","0.0-407.0-0.0","882.8999998569489","","","","49","0,0,1","6","blank","360","null","0.5597283120292781","0.12065980950234234","0.8734854715314327","0","","","","","",""
"","do_recog","433","2730814","0.0-408.0-0.0","1566.5999999046326","","","","56","","","","361","probe-89","","","","","1","[object Object]","89","2","1",""
"","do_trial","434","2735387","0.0-409.0-0.0","978.2000000476837","","","","51","1,0,1","6","blank","362","null","0.42465721790519523","0.06876308390182004","0.8720069131068019","1","","","","","",""
"","do_recog","435","2738630","0.0-410.0-0.0","1727.2000000476837","","","","54","","","","363","probe-256","","","","","0","[object Object]","null","null","1",""
"","do_trial","436","2742995","0.0-411.0-0.0","774.7000000476837","","","","49","1,0,1","6","blank","364","null","0.4038769205907809","0.08707178130750946","0.8399878260395489","1","","","","","",""
"","do_trial","437","2747047","0.0-412.0-0.0","449.2000000476837","","","","49","0,1,0","6","blank","365","null","0.34807267125482116","0.24933672341214183","0.8111660578858347","0","","","","","",""
"","do_trial","438","2751164","0.0-413.0-0.0","510.89999985694885","","","","51","0,0,1","6","blank","366","null","0.2845057122154273","0.1339463342766018","0.798425787390402","1","","","","","",""
"","do_trial","439","2755345","0.0-414.0-0.0","597.6000001430511","","","","51","0,0,1","6","blank","367","null","0.23696397738434813","0.08248241159242169","0.6063120209064286","1","","","","","",""
"","do_trial","440","2759413","0.0-415.0-0.0","469.89999985694885","","","","51","0,0,0","6","blank","368","null","0.13934635958342478","0.121217185878658","0.7097803929591605","0","","","","","",""
"","do_recog","441","2762681","0.0-416.0-0.0","1755.3999998569489","","","","54","","","","369","probe-48","","","","","1","[object Object]","83","2","0",""
"","do_trial","442","2766780","0.0-417.0-0.0","506","","","","49","0,1,1","6","blank","370","null","0.2810369660081338","0.2086278346974232","0.8744291933988038","0","","","","","",""
"","do_trial","443","2770745","0.0-418.0-0.0","355.40000009536743","","","","51","0,1,1","6","blank","371","null","0.2700212614846737","0.25879053121306966","0.8580715720443146","1","","","","","",""
"","do_trial","444","2774715","0.0-419.0-0.0","360","","","","51","1,0,1","6","blank","372","null","0.2622456691540013","0.19107444560157116","0.8168639137962848","1","","","","","",""
"","do_recog","445","2777149","0.0-420.0-0.0","917","","","","56","","","","373","probe-184","","","","","1","[object Object]","208","5","1",""
"","do_trial","446","2781279","0.0-421.0-0.0","539","","","","51","0,0,0","6","blank","374","null","0.283980319421448","0.1549079578037011","0.7084248478063","0","","","","","",""
"","do_recog","447","2784434","0.0-422.0-0.0","1624.7999999523163","","","","55","","","","375","probe-119","","","","","1","[object Object]","129","3","1",""
"","do_trial","448","2789261","0.0-423.0-0.0","1235.2999999523163","","","","50","0,0,1","6","blank","376","null","0.1503679122072144","0.13301544165351892","1","0","","","","","",""
"","do_recog","449","2792178","0.0-424.0-0.0","1392.3999998569489","","","","56","","","","377","probe-67","","","","","1","[object Object]","166","4","1",""
"","do_trial","450","2796224","0.0-425.0-0.0","445.5","","","","49","0,0,1","6","blank","378","null","0.35677764357322134","0.19859840593512645","0.8896211259980956","0","","","","","",""
"","do_trial","451","2800184","0.0-426.0-0.0","355.09999990463257","","","","51","0,1,1","6","blank","379","null","0.330018967748343","0.13033841439613525","0.8724359948243599","1","","","","","",""
"","do_trial","452","2805928","0.0-427.0-0.0","2153.5999999046326","","","","51","0,0,1","6","blank","380","null","0.353648082456199","0.07246003800851045","0.8219682715641813","1","","","","","",""
"","do_trial","453","2809896","0.0-428.0-0.0","362.89999985694885","","","","51","0,0,1","6","blank","381","null","0.2745912900673305","0.11380916637681454","0.9194303642843857","1","","","","","",""
"","do_trial","454","2813761","0.0-429.0-0.0","265.60000014305115","","","","51","0,0,1","6","blank","382","null","0.49587836958678283","0.07855775693703937","0.9042930163799454","1","","","","","",""
"","do_recog","455","2816582","0.0-430.0-0.0","1304.7999999523163","","","","56","","","","383","probe-217","","","","","1","[object Object]","88","2","1",""
"","do_trial","456","2820776","0.0-431.0-0.0","604.8000001907349","","","","51","1,0,1","6","blank","384","null","0.5596918159309522","0.05555356842727044","0.8318885780871704","1","","","","","",""
"","do_recog","457","2823395","0.0-432.0-0.0","1104.3000001907349","","","","56","","","","385","probe-25","","","","","1","[object Object]","200","5","1",""
"","do_trial","458","2827378","0.0-433.0-0.0","386.59999990463257","","","","51","0,1,1","6","blank","386","null","0.4694187141955206","0.18387931399184942","0.8804778828751091","1","","","","","",""
"","do_trial","459","2831893","0.0-434.0-0.0","917.6000001430511","","","","51","0,0,1","6","blank","387","null","0.5474585619165384","0.16730014342213995","0.9054537947804012","1","","","","","",""
"","do_trial","460","2835857","0.0-435.0-0.0","365.19999980926514","","","","51","1,0,1","6","blank","388","null","0.6056758710034514","0.17434012703059423","0.9011988789543668","1","","","","","",""
"","do_trial","461","2840030","0.0-436.0-0.0","573.9000000953674","","","","51","0,1,0","6","blank","389","null","0.42027733324400796","0.5972422134932925","0.7395880564345642","0","","","","","",""
"","do_trial","462","2843909","0.0-437.0-0.0","284.2000000476837","","","","51","0,1,0","6","blank","390","null","0.2084815044446824","0.729274114829087","0.49842514170600766","0","","","","","",""
"","do_recog","463","2846879","0.0-438.0-0.0","1442.0999999046326","","","","56","","","","391","probe-71","","","","","1","[object Object]","41","1","1",""
"","do_trial","464","2851126","0.0-439.0-0.0","649.5","","","","51","0,1,1","6","blank","392","null","0.13801632194820695","0.9143009003327334","0.4991411033383985","1","","","","","",""
"","do_recog","465","2853826","0.0-440.0-0.0","1187.6999998092651","","","","56","","","","393","probe-143","","","","","1","[object Object]","80","2","1",""
"","do_trial","466","2857876","0.0-441.0-0.0","464.89999985694885","","","","51","0,1,1","6","blank","394","null","0.082037883247535","0.9376627307626795","0.5926752150764365","1","","","","","",""
"","do_recog","467","2861111","0.0-442.0-0.0","1720.2000000476837","","","","56","","","","395","probe-91","","","","","1","[object Object]","124","3","1",""
"","do_trial","468","2865558","0.0-443.0-0.0","859.7999999523163","","","","51","0,1,1","6","blank","396","null","0.07582412336319129","0.8809348161832614","0.6293347478257799","1","","","","","",""
"","do_trial","469","2870141","0.0-444.0-0.0","989.0999999046326","","","","51","0,1,0","6","blank","397","null","0.12993256751163526","0.8767812163125075","0.4856793113778629","0","","","","","",""
"","do_trial","470","2874075","0.0-445.0-0.0","348.90000009536743","","","","51","0,1,1","6","blank","398","null","0.13856200869948532","0.8699556627544217","0.5888411724674054","1","","","","","",""
"","do_recog","471","2876942","0.0-446.0-0.0","1352","","","","56","","","","399","probe-82","","","","","1","[object Object]","205","5","1",""
"","do_trial","472","2881292","0.0-447.0-0.0","744.5","","","","51","0,1,0","6","blank","400","null","0.11635779614827542","0.9309236231220903","0.49382705179801534","0","","","","","",""
"","do_recog","473","2883892","0.0-448.0-0.0","1084.8000001907349","","","","56","","","","401","probe-36","","","","","1","[object Object]","128","3","1",""
"","do_trial","474","2888024","0.0-449.0-0.0","546.5","","","","49","0,1,0","6","blank","402","null","0.08414360915159844","0.9385614094033805","0.5274881213797997","0","","","","","",""
"","do_trial","475","2891958","0.0-450.0-0.0","340","","","","49","0,1,0","6","blank","403","null","0.123733587815758","0.8262370858956211","0.4027818155942686","0","","","","","",""
"","do_trial","476","2895924","0.0-451.0-0.0","370.40000009536743","","","","50","0,0,1","6","blank","404","null","0.07298625835061864","0.7990589453209899","0.48575067868657945","0","","","","","",""
"","do_trial","477","2899790","0.0-452.0-0.0","271.7999999523163","","","","51","0,0,1","6","blank","405","null","0.08867161242358261","0.8582828195495068","0.43836103535649673","1","","","","","",""
"","do_recog","478","2903191","0.0-453.0-0.0","1889.7999999523163","","","","54","","","","406","probe-211","","","","","1","[object Object]","169","4","0",""
"","do_trial","479","2907708","0.0-454.0-0.0","918.5999999046326","","","","49","0,1,0","6","blank","407","null","0.152128925165305","0.8744029562655145","0.5068065010573123","0","","","","","",""
"","do_recog","480","2910922","0.0-455.0-0.0","1692","","","","54","","","","408","probe-249","","","","","0","[object Object]","null","null","1",""
