"success","trial_type","trial_index","time_elapsed","internal_node_id","interactions","blur_events","focus_events","fullscreenenter_events","fullscreenexit_events","rt","stimulus","key_press","subject_id","participant_id","age","gender","prompt","response","choice_outcomes","context_n","context_img_id","trial_n","probe_img_id","pR_red","pR_white","pR_black","outcome","contextArray_ind","validImageProbes","invalidImageProbes","pRew_Red","pRew_White","pRew_Black","availableForMemProbe","choice_blocks"
"true","fullscreen","0","4301","0.0-0.0","""event"",""trial"",""time""
""fullscreenenter"",""0"",""3341""
","
","
","""event"",""trial"",""time""
""fullscreenenter"",""0"",""3341""
","
","","","","","","","","","","","","","","","","","","","","","","","","","",""
"","pavlovia","1","4305","0.0-1.0","""event"",""trial"",""time""
""fullscreenenter"",""0"",""3341""
","
","
","""event"",""trial"",""time""
""fullscreenenter"",""0"",""3341""
","
","","","","","","","","","","","","","","","","","","","","","","","","","",""
"","instruc1","2","49416","0.0-2.0","""event"",""trial"",""time""
""fullscreenenter"",""0"",""3341""
","
","
","""event"",""trial"",""time""
""fullscreenenter"",""0"",""3341""
","
","null","run_exp/static/audio/clip_1_welcome.m4a","null","342","784","21","Female","<div class='center'><p>Welcome! This is the first part of the study. It will last ~30 minutes. In part 1 and part 2 of the study, you are the head captain of a pirate ship traveling around the world to different islands. You will play a few different games throughout these two parts. Here is an overview of them:</p><br><p>Part 1 (today)</p><p>1. Instructions, practice game, and quiz</p><p>2. Pick a pirate game on 6 different islands</p><br><p>Part 2 (tomorrow)</p><p>3. Pick a pirate game and memory game</p><p>4. Where did you see this ship? </p></div>","","","","","","","","","","","","","","","","","",""
"","html-keyboard-response","3","49566","0.0-3.0","""event"",""trial"",""time""
""fullscreenenter"",""0"",""3341""
","
","
","""event"",""trial"",""time""
""fullscreenenter"",""0"",""3341""
","
","145.60000000149012","<div class='center'><p>Welcome! This is the first part of the study. It will last ~30 minutes. In part 1 and part 2 of the study, you are the head captain of a pirate ship traveling around the world to different islands. You will play a few different games throughout these two parts. Here is an overview of them:</p><br><p>Part 1 (today)</p><p>1. Instructions, practice game, and quiz</p><p>2. Pick a pirate game on 6 different islands</p><br><p>Part 2 (tomorrow)</p><p>3. Pick a pirate game and memory game</p><p>4. Where did you see this ship? </p><p><b>[Press the space bar to continue]</b></p></div>","32","","","","","","","","","","","","","","","","","","","","","","",""
"","instruc2","4","54893","0.0-4.0","""event"",""trial"",""time""
""fullscreenenter"",""0"",""3341""
","
","
","""event"",""trial"",""time""
""fullscreenenter"",""0"",""3341""
","
","null","run_exp/static/audio/clip_2_different_places.m4a","null","","","","","<div class='center'><p>Today, you’ll visit these 6 islands on your journey. You'll be able to see these islands from your ship.</p><p><img src='run_exp/static/images/contexts/all_contexts.png' height='500'></p></div>","","","","","","","","","","","","","","","","","",""
"","html-keyboard-response","5","57021","0.0-5.0","""event"",""trial"",""time""
""fullscreenenter"",""0"",""3341""
","
","
","""event"",""trial"",""time""
""fullscreenenter"",""0"",""3341""
","
","2125.6999999955297","<div class='center'><p>Today, you’ll visit these 6 islands on your journey. You'll be able to see these islands from your ship.</p><p><img src='run_exp/static/images/contexts/all_contexts.png' height='500'></p><p><b>[Press the space bar to continue]</b></p></div>","32","","","","","","","","","","","","","","","","","","","","","","",""
"","instruc3","6","66754","0.0-6.0","""event"",""trial"",""time""
""fullscreenenter"",""0"",""3341""
","
","
","""event"",""trial"",""time""
""fullscreenenter"",""0"",""3341""
","
","null","run_exp/static/audio/clip_3_goal_of_game_1.m4a","null","","","","","<div class='center'><p> The pirates on your ship will rob other ships as they leave the island.</p> These ships have just sold their goods to the islanders, so they will be filled with lots and lots of gold.</p><p><img src='run_exp/static/images/tutorial/ship_center.png' height='400'></p></div>","","","","","","","","","","","","","","","","","",""
"","html-keyboard-response","7","68210","0.0-7.0","""event"",""trial"",""time""
""fullscreenenter"",""0"",""3341""
","
","
","""event"",""trial"",""time""
""fullscreenenter"",""0"",""3341""
","
","1453.3999999985099","<div class='center'><p> The pirates on your ship will rob other ships as they leave the island.</p> These ships have just sold their goods to the islanders, so they will be filled with lots and lots of gold.</p><p><img src='run_exp/static/images/tutorial/ship_center.png' height='400'></p><p><b>[Press the space bar to continue]</b></p></div>","32","","","","","","","","","","","","","","","","","","","","","","",""
"","instruc4","8","96214","0.0-8.0","""event"",""trial"",""time""
""fullscreenenter"",""0"",""3341""
","
","
","""event"",""trial"",""time""
""fullscreenenter"",""0"",""3341""
","
","null","run_exp/static/audio/clip_4_goal_of_game_2.m4a","null","","","","","<div class='center'><p>As the head captain, you do not have to rob any ships yourself. Another pirate will be doing the robbing for you. First, you will choose a pirate to rob the next ship.</p><p><img src='run_exp/static/images/tutorial/pirates_all_crop.png' height='200'></p><p>Then, you'll see if the pirate successfully robbed the ship of their gold. If they were successful, then you'll get a stack of gold coins like this:</p><p><img src='run_exp/static/images/tutorial/reward.png' height='150'></p><p> If they were <b>not</b> successful, then you'll get no gold coins, and you'll see a big red x like this: </p><p><img src='run_exp/static/images/tutorial/reward_no.png' height='150'></p><p> How much bonus money you make is based on how many gold coins you collect.</p><div>","","","","","","","","","","","","","","","","","",""
"","html-keyboard-response","9","98039","0.0-9.0","""event"",""trial"",""time""
""fullscreenenter"",""0"",""3341""
","
","
","""event"",""trial"",""time""
""fullscreenenter"",""0"",""3341""
","
","1819.1999999955297","<div class='center'><p>As the head captain, you do not have to rob any ships yourself. Another pirate will be doing the robbing for you. First, you will choose a pirate to rob the next ship.</p><p><img src='run_exp/static/images/tutorial/pirates_all_crop.png' height='200'></p><p>Then, you'll see if the pirate successfully robbed the ship of their gold. If they were successful, then you'll get a stack of gold coins like this:</p><p><img src='run_exp/static/images/tutorial/reward.png' height='150'></p><p> If they were <b>not</b> successful, then you'll get no gold coins, and you'll see a big red x like this: </p><p><img src='run_exp/static/images/tutorial/reward_no.png' height='150'></p><p> How much bonus money you make is based on how many gold coins you collect.</p<p><b>[Press the space bar to continue]</b></p></div>","32","","","","","","","","","","","","","","","","","","","","","","",""
"","instruc5","10","120736","0.0-10.0","""event"",""trial"",""time""
""fullscreenenter"",""0"",""3341""
","
","
","""event"",""trial"",""time""
""fullscreenenter"",""0"",""3341""
","
","22694.39999999851","run_exp/static/audio/clip_5_probabilistic.m4a","49","","","","","<div class='center'><p>Even the most skilled pirate can not rob EVERY ship.</p><p> Some ships will have very strong protections against pirate attacks.</p><p> Blue beard, here, is very, very good at robbing ships, but he won't be successful every time he tries to rob one.</p><p> You can press the <b>‘1’</b> key on the keyboard to choose him.</p><p> Try choosing him 10 times to see how often he succeeds at robbing a ship. </p><p><img src='run_exp/static/images/tutorial/blue.png' height='500'></p></div>","","","","","","","","","","","","","","","","","",""
"","html-keyboard-response","11","122243","0.0-11.0","""event"",""trial"",""time""
""fullscreenenter"",""0"",""3341""
","
","
","""event"",""trial"",""time""
""fullscreenenter"",""0"",""3341""
","
","null","<div class='center'><p><img src='run_exp/static/images/tutorial/blue_win.png' height='500'></p></div>","null","","","","","","","","","","","","","","","","","","","","","","",""
"","html-keyboard-response","12","122256","0.0-12.0","""event"",""trial"",""time""
""fullscreenenter"",""0"",""3341""
","
","
","""event"",""trial"",""time""
""fullscreenenter"",""0"",""3341""
","
","11.5","<div class='center'><img src='run_exp/static/images/tutorial/blue.png' height='500'></p></div>","49","","","","","","","","","","","","","","","","","","","","","","",""
"","html-keyboard-response","13","123763","0.0-13.0","""event"",""trial"",""time""
""fullscreenenter"",""0"",""3341""
","
","
","""event"",""trial"",""time""
""fullscreenenter"",""0"",""3341""
","
","null","<div class='center'><p><img src='run_exp/static/images/tutorial/blue_win.png' height='500'></p></div>","null","","","","","","","","","","","","","","","","","","","","","","",""
"","html-keyboard-response","14","126607","0.0-14.0","""event"",""trial"",""time""
""fullscreenenter"",""0"",""3341""
","
","
","""event"",""trial"",""time""
""fullscreenenter"",""0"",""3341""
","
","2841.89999999851","<div class='center'><img src='run_exp/static/images/tutorial/blue.png' height='500'></p></div>","49","","","","","","","","","","","","","","","","","","","","","","",""
"","html-keyboard-response","15","128113","0.0-15.0","""event"",""trial"",""time""
""fullscreenenter"",""0"",""3341""
","
","
","""event"",""trial"",""time""
""fullscreenenter"",""0"",""3341""
","
","null","<div class='center'><p><img src='run_exp/static/images/tutorial/blue_win.png' height='500'></p></div>","null","","","","","","","","","","","","","","","","","","","","","","",""
"","html-keyboard-response","16","128269","0.0-16.0","""event"",""trial"",""time""
""fullscreenenter"",""0"",""3341""
","
","
","""event"",""trial"",""time""
""fullscreenenter"",""0"",""3341""
","
","154.10000000149012","<div class='center'><img src='run_exp/static/images/tutorial/blue.png' height='500'></p></div>","49","","","","","","","","","","","","","","","","","","","","","","",""
"","html-keyboard-response","17","129776","0.0-17.0","""event"",""trial"",""time""
""fullscreenenter"",""0"",""3341""
","
","
","""event"",""trial"",""time""
""fullscreenenter"",""0"",""3341""
","
","null","<div class='center'><p><img src='run_exp/static/images/tutorial/blue_no_win.png' height='500'></p></div>","null","","","","","","","","","","","","","","","","","","","","","","",""
"","html-keyboard-response","18","131068","0.0-18.0","""event"",""trial"",""time""
""fullscreenenter"",""0"",""3341""
","
","
","""event"",""trial"",""time""
""fullscreenenter"",""0"",""3341""
","
","1289.5","<div class='center'><img src='run_exp/static/images/tutorial/blue.png' height='500'></p></div>","49","","","","","","","","","","","","","","","","","","","","","","",""
"","html-keyboard-response","19","132570","0.0-19.0","""event"",""trial"",""time""
""fullscreenenter"",""0"",""3341""
","
","
","""event"",""trial"",""time""
""fullscreenenter"",""0"",""3341""
","
","null","<div class='center'><p><img src='run_exp/static/images/tutorial/blue_win.png' height='500'></p></div>","null","","","","","","","","","","","","","","","","","","","","","","",""
"","html-keyboard-response","20","132958","0.0-20.0","""event"",""trial"",""time""
""fullscreenenter"",""0"",""3341""
","
","
","""event"",""trial"",""time""
""fullscreenenter"",""0"",""3341""
","
","386","<div class='center'><img src='run_exp/static/images/tutorial/blue.png' height='500'></p></div>","49","","","","","","","","","","","","","","","","","","","","","","",""
"","html-keyboard-response","21","134468","0.0-21.0","""event"",""trial"",""time""
""fullscreenenter"",""0"",""3341""
","
","
","""event"",""trial"",""time""
""fullscreenenter"",""0"",""3341""
","
","null","<div class='center'><p><img src='run_exp/static/images/tutorial/blue_win.png' height='500'></p></div>","null","","","","","","","","","","","","","","","","","","","","","","",""
"","html-keyboard-response","22","134720","0.0-22.0","""event"",""trial"",""time""
""fullscreenenter"",""0"",""3341""
","
","
","""event"",""trial"",""time""
""fullscreenenter"",""0"",""3341""
","
","249.69999999552965","<div class='center'><img src='run_exp/static/images/tutorial/blue.png' height='500'></p></div>","49","","","","","","","","","","","","","","","","","","","","","","",""
"","html-keyboard-response","23","136237","0.0-23.0","""event"",""trial"",""time""
""fullscreenenter"",""0"",""3341""
","
","
","""event"",""trial"",""time""
""fullscreenenter"",""0"",""3341""
","
","null","<div class='center'><p><img src='run_exp/static/images/tutorial/blue_win.png' height='500'></p></div>","null","","","","","","","","","","","","","","","","","","","","","","",""
"","html-keyboard-response","24","136788","0.0-24.0","""event"",""trial"",""time""
""fullscreenenter"",""0"",""3341""
","
","
","""event"",""trial"",""time""
""fullscreenenter"",""0"",""3341""
","
","549.6999999955297","<div class='center'><img src='run_exp/static/images/tutorial/blue.png' height='500'></p></div>","49","","","","","","","","","","","","","","","","","","","","","","",""
"","html-keyboard-response","25","138305","0.0-25.0","""event"",""trial"",""time""
""fullscreenenter"",""0"",""3341""
","
","
","""event"",""trial"",""time""
""fullscreenenter"",""0"",""3341""
","
","null","<div class='center'><p><img src='run_exp/static/images/tutorial/blue_no_win.png' height='500'></p></div>","null","","","","","","","","","","","","","","","","","","","","","","",""
"","html-keyboard-response","26","138602","0.0-26.0","""event"",""trial"",""time""
""fullscreenenter"",""0"",""3341""
","
","
","""event"",""trial"",""time""
""fullscreenenter"",""0"",""3341""
","
","295.8999999985099","<div class='center'><img src='run_exp/static/images/tutorial/blue.png' height='500'></p></div>","49","","","","","","","","","","","","","","","","","","","","","","",""
"","html-keyboard-response","27","140111","0.0-27.0","""event"",""trial"",""time""
""fullscreenenter"",""0"",""3341""
","
","
","""event"",""trial"",""time""
""fullscreenenter"",""0"",""3341""
","
","null","<div class='center'><p><img src='run_exp/static/images/tutorial/blue_win.png' height='500'></p></div>","null","","","","","","","","","","","","","","","","","","","","","","",""
"","html-keyboard-response","28","140425","0.0-28.0","""event"",""trial"",""time""
""fullscreenenter"",""0"",""3341""
","
","
","""event"",""trial"",""time""
""fullscreenenter"",""0"",""3341""
","
","313.19999999552965","<div class='center'><img src='run_exp/static/images/tutorial/blue.png' height='500'></p></div>","49","","","","","","","","","","","","","","","","","","","","","","",""
"","html-keyboard-response","29","141943","0.0-29.0","""event"",""trial"",""time""
""fullscreenenter"",""0"",""3341""
","
","
","""event"",""trial"",""time""
""fullscreenenter"",""0"",""3341""
","
","null","<div class='center'><p><img src='run_exp/static/images/tutorial/blue_win.png' height='500'></p></div>","null","","","","","","","","","","","","","","","","","","","","","","",""
"","instruc6","30","152520","0.0-30.0","""event"",""trial"",""time""
""fullscreenenter"",""0"",""3341""
","
","
","""event"",""trial"",""time""
""fullscreenenter"",""0"",""3341""
","
","null","run_exp/static/audio/clip_6_blue_beard_outcome.m4a","null","","","","","<div class='center'><p> See, he succeeded in robbing the ships most of the time but not every time. </p></div>","","","","","","","","","","","","","","","","","",""
"","html-keyboard-response","31","153540","0.0-31.0","""event"",""trial"",""time""
""fullscreenenter"",""0"",""3341""
","
","
","""event"",""trial"",""time""
""fullscreenenter"",""0"",""3341""
","
","1018.2000000029802","<div class='center'><p> See, he succeeded in robbing the ships most of the time but not every time. </p><p><b>[Press the space bar to continue]</b></p></div>","32","","","","","","","","","","","","","","","","","","","","","","",""
"","audio-keyboard-response","32","170824","0.0-32.0","""event"",""trial"",""time""
""fullscreenenter"",""0"",""3341""
","
","
","""event"",""trial"",""time""
""fullscreenenter"",""0"",""3341""
","
","17281.60000000149","run_exp/static/audio/clip_7_pick_pirate.m4a","51","","","","","","","","","","","","","","","","","","","","","","",""
"","audio-keyboard-response","33","175209","0.0-33.0-0.0","""event"",""trial"",""time""
""fullscreenenter"",""0"",""3341""
","
","
","""event"",""trial"",""time""
""fullscreenenter"",""0"",""3341""
","
","4381.60000000149","run_exp/static/audio/clip_8_chosen_pirate_win.m4a","32","","","","","","","","","","","","","","","","","","","","","","",""
"","audio-keyboard-response","34","180580","0.0-33.0-1.0","""event"",""trial"",""time""
""fullscreenenter"",""0"",""3341""
","
","
","""event"",""trial"",""time""
""fullscreenenter"",""0"",""3341""
","
","5368.29999999702","run_exp/static/audio/clip_9_pick_a_pirate_again.m4a","51","","","","","","","","","","","","","","","","","","","","","","",""
"","audio-keyboard-response","35","186017","0.0-34.0-0.0","""event"",""trial"",""time""
""fullscreenenter"",""0"",""3341""
","
","
","""event"",""trial"",""time""
""fullscreenenter"",""0"",""3341""
","
","5433.10000000149","run_exp/static/audio/clip_10_chosen_pirate_loss.m4a","32","","","","","","","","","","","","","","","","","","","","","","",""
"","instruc9","36","191679","0.0-35.0-0.0","""event"",""trial"",""time""
""fullscreenenter"",""0"",""3341""
","
","
","""event"",""trial"",""time""
""fullscreenenter"",""0"",""3341""
","
","null","run_exp/static/audio/clip_11_time_out.m4a","null","","","","","<div class='center'><p>If you don’t make your choice fast enough, you’ll have to wait a few seconds before you can make another one. </p><p><img src='run_exp/static/images/miscellaneous/hurry_up.png' height='500'></p></div>","","","","","","","","","","","","","","","","","",""
"","html-keyboard-response","37","192724","0.0-35.0-1.0","""event"",""trial"",""time""
""fullscreenenter"",""0"",""3341""
","
","
","""event"",""trial"",""time""
""fullscreenenter"",""0"",""3341""
","
","1042.5","<div class='center'><p>If you don’t make your choice fast enough, you’ll have to wait a few seconds before you can make another one. </p><p><img src='run_exp/static/images/miscellaneous/hurry_up.png' height='500'></p><p><b>[Press the space bar to continue]</b></p></div>","32","","","","","","","","","","","","","","","","","","","","","","",""
"","instruc10","38","232000","0.0-35.0-2.0","""event"",""trial"",""time""
""fullscreenenter"",""0"",""3341""
","
","
","""event"",""trial"",""time""
""fullscreenenter"",""0"",""3341""
","
","null","run_exp/static/audio/clip_12_probe.m4a","null","","","","","<div class='center'><p>Once you've chosen a pirate, you’ll be shown the ship they are robbing. You will never rob the same ship twice. Ships can be told apart from one another by the image on them. These are the goods that they sell. See, this ship has a travel mug on it. </p><p> You’ll have to remember which island you saw each ship on. You will win more gold coins and hence more bonus money if you remember correctly! To help you remember, you can imagine a story. For example, here, you could imagine a mug full of water in the desert. Or, as another example, if on the forest island, your pirate robbed a ship with an apple on it, you could imagine an apple falling from a tree in the forest. </p><p><img src='run_exp/static/images/tutorial/example_probe.png' height='500'></p></div>","","","","","","","","","","","","","","","","","",""
"","html-keyboard-response","39","232987","0.0-35.0-3.0","""event"",""trial"",""time""
""fullscreenenter"",""0"",""3341""
","
","
","""event"",""trial"",""time""
""fullscreenenter"",""0"",""3341""
","
","984.6000000014901","<div class='center'><p>Once you've chosen a pirate, you’ll be shown the ship they are robbing. You will never rob the same ship twice. Ships can be told apart from one another by the image on them. These are the goods that they sell. See, this ship has a travel mug on it. </p><p> You’ll have to remember which island you saw each ship on. You will win more gold coins and hence more bonus money if you remember correctly! To help you remember, you can imagine a story. For example, here, you could imagine a mug full of water in the desert. Or, as another example, if on the forest island, your pirate robbed a ship with an apple on it, you could imagine an apple falling from a tree in the forest. </p><p><img src='run_exp/static/images/tutorial/example_probe.png' height='500'></p><p><b>[Press the space bar to continue]</b></p></div>","32","","","","","","","","","","","","","","","","","","","","","","",""
"","instruc11","40","249579","0.0-35.0-4.0","""event"",""trial"",""time""
""fullscreenenter"",""0"",""3341""
","
","
","""event"",""trial"",""time""
""fullscreenenter"",""0"",""3341""
","
","null","run_exp/static/audio/clip_13_changepoint.m4a","null","","","","","<div class='center'><p>How successful a pirate is at robbing ships will depend on the island you’re on.</p><p> A pirate may have visited this island many times before and gained a lot of practice robbing ships there.</p><p>So, they’re more likely to be successful than a pirate who has never visited the island before.</p></div>","","","","","","","","","","","","","","","","","",""
"","html-keyboard-response","41","251089","0.0-35.0-5.0","""event"",""trial"",""time""
""fullscreenenter"",""0"",""3341""
","
","
","""event"",""trial"",""time""
""fullscreenenter"",""0"",""3341""
","
","1507.7999999970198","<div class='center'><p>How successful a pirate is at robbing ships will depend on the island you’re on.</p><p> A pirate may have visited this island many times before and gained a lot of practice robbing ships there.</p><p>So, they’re more likely to be successful than a pirate who has never visited the island before.</p><p><b>[Press the space bar to continue]</b></p></div>","32","","","","","","","","","","","","","","","","","","","","","","",""
"","instruc12","42","292360","0.0-35.0-6.0","""event"",""trial"",""time""
""fullscreenenter"",""0"",""3341""
","
","
","""event"",""trial"",""time""
""fullscreenenter"",""0"",""3341""
","
","null","run_exp/static/audio/clip_14_drift.m4a","null","","","","","<div class='center'><p>How successful a pirate is at robbing ships can also change over the time spent on the island. </p><p> Ships may hear from islanders about the pirates coming and will improve their protections against the attack. This may make it harder to rob them.</p><p> Ships may also become lazy and weaken the strength of their protections. This may make it easier to rob them.</p><br><p>Things are always changing on the high seas! So, try your best to pay attention!</p><p><img src='run_exp/static/images/tutorial/contingency.png' height='500'></p></div>","","","","","","","","","","","","","","","","","",""
"","html-keyboard-response","43","294899","0.0-35.0-7.0","""event"",""trial"",""time""
""fullscreenenter"",""0"",""3341""
","
","
","""event"",""trial"",""time""
""fullscreenenter"",""0"",""3341""
","
","2535.5999999940395","<div class='center'><p>How successful a pirate is at robbing ships can also change over the time spent on the island. </p><p> Ships may hear from islanders about the pirates coming and will improve their protections against the attack. This may make it harder to rob them.</p><p> Ships may also become lazy and weaken the strength of their protections. This may make it easier to rob them.</p><br><p>Things are always changing on the high seas! So, try your best to pay attention!</p><p><img src='run_exp/static/images/tutorial/contingency.png' height='500'></p><p><b>[Press the space bar to continue]</b></p></div>","32","","","","","","","","","","","","","","","","","","","","","","",""
"","instruc13","44","330280","0.0-35.0-8.0","""event"",""trial"",""time""
""fullscreenenter"",""0"",""3341""
","
","
","""event"",""trial"",""time""
""fullscreenenter"",""0"",""3341""
","
","null","run_exp/static/audio/clip_15_summary.m4a","null","","","","","<div class='center'><p>Let's go over the instructions quickly again. You have two important things to do: </p><b><p> 1. Pick the pirate who is the best at robbing ships on the current island. </p></b><b><p> 2. Remember on which island a ship was robbed.</p> </b><p>The amount of bonus money you can win depends on both.</p><p><br><p>Let’s try a practice game. The game will start by showing you the pirates. First, pick a pirate using the <b> 1, 2, 3 </b> keys on your keyboard. When you are shown a ship, try to remember which island you’re on by making up a story.</p><p>This is just a practice game, so you’re not playing for money. </p><p> Good luck! This game will be very difficult but try your best!</p></div>","","","","","","","","","","","","","","","","","",""
"","html-keyboard-response","45","331574","0.0-35.0-9.0","""event"",""trial"",""time""
""fullscreenenter"",""0"",""3341""
","
","
","""event"",""trial"",""time""
""fullscreenenter"",""0"",""3341""
","
","1291","<div class='center'><p>Let's go over the instructions quickly again. You have two important things to do: </p><b><p> 1. Pick the pirate who is the best at robbing ships on the current island. </p></b><b><p> 2. Remember on which island a ship was robbed.</p> </b><p>The amount of bonus money you can win depends on both.</p><p><br><p>Let’s try a practice game. The game will start by showing you the pirates. First, pick a pirate using the <b> 1, 2, 3 </b> keys on your keyboard. When you are shown a ship, try to remember which island you’re on by making up a story.</p><p>This is just a practice game, so you’re not playing for money. </p><p> Good luck! This game will be very difficult but try your best!</p><p><b>[Press the space bar to continue]</b></p></div>","32","","","","","","","","","","","","","","","","","","","","","","",""
"","do_welcome","46","335589","0.0-35.0-10.0","""event"",""trial"",""time""
""fullscreenenter"",""0"",""3341""
","
","
","""event"",""trial"",""time""
""fullscreenenter"",""0"",""3341""
","
","null","","","","","","","","null","","","","","","","","","","","","","","","","",""
"","do_trial","47","341669","0.0-35.0-11.0","""event"",""trial"",""time""
""fullscreenenter"",""0"",""3341""
","
","
","""event"",""trial"",""time""
""fullscreenenter"",""0"",""3341""
","
","1560","","","","","","","","49","1,0,0","","","","","","","","","","","","","","","",""
"","html-keyboard-response","48","342679","0.0-36.0-0.0","""event"",""trial"",""time""
""fullscreenenter"",""0"",""3341""
","
","
","""event"",""trial"",""time""
""fullscreenenter"",""0"",""3341""
","
","null","<p></p>","null","","","","","","","","","","","","","","","","","","","","","","",""
"","do_trial","49","348535","0.0-36.0-1.0","""event"",""trial"",""time""
""fullscreenenter"",""0"",""3341""
","
","
","""event"",""trial"",""time""
""fullscreenenter"",""0"",""3341""
","
","1339.8000000044703","","","","","","","","50","1,1,0","","","","","","","","","","","","","","","",""
"","html-keyboard-response","50","349548","0.0-37.0-0.0","""event"",""trial"",""time""
""fullscreenenter"",""0"",""3341""
","
","
","""event"",""trial"",""time""
""fullscreenenter"",""0"",""3341""
","
","null","<p></p>","null","","","","","","","","","","","","","","","","","","","","","","",""
"","do_trial","51","354445","0.0-37.0-1.0","""event"",""trial"",""time""
""fullscreenenter"",""0"",""3341""
","
","
","""event"",""trial"",""time""
""fullscreenenter"",""0"",""3341""
","
","379.29999999701977","","","","","","","","51","1,0,1","","","","","","","","","","","","","","","",""
"","html-keyboard-response","52","355454","0.0-38.0-0.0","""event"",""trial"",""time""
""fullscreenenter"",""0"",""3341""
","
","
","""event"",""trial"",""time""
""fullscreenenter"",""0"",""3341""
","
","null","<p></p>","null","","","","","","","","","","","","","","","","","","","","","","",""
"","do_trial","53","360726","0.0-38.0-1.0","""event"",""trial"",""time""
""fullscreenenter"",""0"",""3341""
","
","
","""event"",""trial"",""time""
""fullscreenenter"",""0"",""3341""
","
","752.3999999985099","","","","","","","","50","0,1,0","","","","","","","","","","","","","","","",""
"","html-keyboard-response","54","361738","0.0-39.0-0.0","""event"",""trial"",""time""
""fullscreenenter"",""0"",""3341""
","
","
","""event"",""trial"",""time""
""fullscreenenter"",""0"",""3341""
","
","null","<p></p>","null","","","","","","","","","","","","","","","","","","","","","","",""
"","do_trial","55","367655","0.0-39.0-1.0","""event"",""trial"",""time""
""fullscreenenter"",""0"",""3341""
","
","
","""event"",""trial"",""time""
""fullscreenenter"",""0"",""3341""
","
","1391.6999999955297","","","","","","","","51","1,0,0","","","","","","","","","","","","","","","",""
"","do_bye","56","369176","0.0-40.0-0.0","""event"",""trial"",""time""
""fullscreenenter"",""0"",""3341""
","
","
","""event"",""trial"",""time""
""fullscreenenter"",""0"",""3341""
","
","null","","","","","","","","null","","","","","","","","","","","","","","","","",""
"","do_travel","57","378197","0.0-40.0-1.0","""event"",""trial"",""time""
""fullscreenenter"",""0"",""3341""
","
","
","""event"",""trial"",""time""
""fullscreenenter"",""0"",""3341""
","
","null","","","","","","","","null","","","","","","","","","","","","","","","","",""
"","do_welcome","58","382217","0.0-40.0-2.0","""event"",""trial"",""time""
""fullscreenenter"",""0"",""3341""
","
","
","""event"",""trial"",""time""
""fullscreenenter"",""0"",""3341""
","
","null","","","","","","","","null","","","","","","","","","","","","","","","","",""
"","do_trial","59","387761","0.0-40.0-3.0","""event"",""trial"",""time""
""fullscreenenter"",""0"",""3341""
","
","
","""event"",""trial"",""time""
""fullscreenenter"",""0"",""3341""
","
","1024.8999999985099","","","","","","","","49","1,0,0","","","","","","","","","","","","","","","",""
"","html-keyboard-response","60","388767","0.0-41.0-0.0","""event"",""trial"",""time""
""fullscreenenter"",""0"",""3341""
","
","
","""event"",""trial"",""time""
""fullscreenenter"",""0"",""3341""
","
","null","<p></p>","null","","","","","","","","","","","","","","","","","","","","","","",""
"","do_trial","61","394202","0.0-41.0-1.0","""event"",""trial"",""time""
""fullscreenenter"",""0"",""3341""
","
","
","""event"",""trial"",""time""
""fullscreenenter"",""0"",""3341""
","
","917.8000000044703","","","","","","","","49","1,0,1","","","","","","","","","","","","","","","",""
"","html-keyboard-response","62","395225","0.0-42.0-0.0","""event"",""trial"",""time""
""fullscreenenter"",""0"",""3341""
","
","
","""event"",""trial"",""time""
""fullscreenenter"",""0"",""3341""
","
","null","<p></p>","null","","","","","","","","","","","","","","","","","","","","","","",""
"","do_trial","63","400493","0.0-42.0-1.0","""event"",""trial"",""time""
""fullscreenenter"",""0"",""3341""
","
","
","""event"",""trial"",""time""
""fullscreenenter"",""0"",""3341""
","
","756.4000000059605","","","","","","","","51","1,1,0","","","","","","","","","","","","","","","",""
"","html-keyboard-response","64","401522","0.0-43.0-0.0","""event"",""trial"",""time""
""fullscreenenter"",""0"",""3341""
","
","
","""event"",""trial"",""time""
""fullscreenenter"",""0"",""3341""
","
","null","<p></p>","null","","","","","","","","","","","","","","","","","","","","","","",""
"","do_trial","65","406600","0.0-43.0-1.0","""event"",""trial"",""time""
""fullscreenenter"",""0"",""3341""
","
","
","""event"",""trial"",""time""
""fullscreenenter"",""0"",""3341""
","
","562.2000000029802","","","","","","","","50","0,0,1","","","","","","","","","","","","","","","",""
"","html-keyboard-response","66","407616","0.0-44.0-0.0","""event"",""trial"",""time""
""fullscreenenter"",""0"",""3341""
","
","
","""event"",""trial"",""time""
""fullscreenenter"",""0"",""3341""
","
","null","<p></p>","null","","","","","","","","","","","","","","","","","","","","","","",""
"","do_trial","67","413670","0.0-44.0-1.0","""event"",""trial"",""time""
""fullscreenenter"",""0"",""3341""
","
","
","""event"",""trial"",""time""
""fullscreenenter"",""0"",""3341""
","
","1529.8999999985099","","","","","","","","49","1,0,1","","","","","","","","","","","","","","","",""
"","html-keyboard-response","68","415820","0.0-45.0-0.0","""event"",""trial"",""time""
""fullscreenenter"",""0"",""3341""
","
","
","""event"",""trial"",""time""
""fullscreenenter"",""0"",""3341""
","
","2147.8000000044703","<div class='center'><p><img src='run_exp/static/images/tutorial/prac_best_pirate.png'  height='500'></p></div>","49","","","","","","","","","","","","","","","","","","","","","","",""
"","html-keyboard-response","69","418047","0.0-46.0-0.0","""event"",""trial"",""time""
""fullscreenenter"",""0"",""3341""
","
","
","""event"",""trial"",""time""
""fullscreenenter"",""0"",""3341""
","
","2225.0999999940395","<div class='center'><p>That's correct! Red beard was the best.</p><p><b>[Press the space bar to continue]</b></p></div>","32","","","","","","","","","","","","","","","","","","","","","","",""
"","html-keyboard-response","70","420811","0.0-46.0-1.0","""event"",""trial"",""time""
""fullscreenenter"",""0"",""3341""
","
","
","""event"",""trial"",""time""
""fullscreenenter"",""0"",""3341""
","
","2762.1999999955297","<div class='center'><p><img src='run_exp/static/images/tutorial/prac_source.png'  height='500'></p></div>","50","","","","","","","","","","","","","","","","","","","","","","",""
"","html-keyboard-response","71","421706","0.0-47.0-0.0","""event"",""trial"",""time""
""fullscreenenter"",""0"",""3341""
","
","
","""event"",""trial"",""time""
""fullscreenenter"",""0"",""3341""
","
","893.7999999970198","<div class='center'><p>That's correct! You saw this ship on the cavern island.</p><p><b>[Press the space bar to continue]</b></p></div>","32","","","","","","","","","","","","","","","","","","","","","","",""
"","quiz_beginning","72","438077","0.0-47.0-1.0","""event"",""trial"",""time""
""fullscreenenter"",""0"",""3341""
","
","
","""event"",""trial"",""time""
""fullscreenenter"",""0"",""3341""
","
","null","run_exp/static/audio/clip_16_quiz_intro.m4a","null","","","","","<div class='center'><p>Good job on the practice game! Now, you will be asked some true or false questions to make sure you really understand the rules of the game.</p><p> Press <b>'1'</b> on the keyboard for true and press <b>'2'</b> for false.</p></div>","","","","","","","","","","","","","","","","","",""
"","audio-keyboard-response","73","455195","0.0-47.0-2.0","""event"",""trial"",""time""
""fullscreenenter"",""0"",""3341""
","
","
","""event"",""trial"",""time""
""fullscreenenter"",""0"",""3341""
","
","17115.39999999851","run_exp/static/audio/clip_17_q1.m4a","49","","","","","","","","","","","","","","","","","","","","","","",""
"","correct","74","457610","0.0-48.0-0.0","""event"",""trial"",""time""
""fullscreenenter"",""0"",""3341""
","
","
","""event"",""trial"",""time""
""fullscreenenter"",""0"",""3341""
","
","null","run_exp/static/audio/clip_18_correct.m4a","null","","","","","<div class='center'><p>That's correct!</p></div>","","","","","","","","","","","","","","","","","",""
"","html-keyboard-response","75","458430","0.0-48.0-1.0","""event"",""trial"",""time""
""fullscreenenter"",""0"",""3341""
","
","
","""event"",""trial"",""time""
""fullscreenenter"",""0"",""3341""
","
","818.1999999955297","<div class='center'><p>That's correct!</p><p><b>[Press the space bar to continue]</b></p></div>","32","","","","","","","","","","","","","","","","","","","","","","",""
"","audio-keyboard-response","76","470533","0.0-48.0-2.0","""event"",""trial"",""time""
""fullscreenenter"",""0"",""3341""
","
","
","""event"",""trial"",""time""
""fullscreenenter"",""0"",""3341""
","
","12101.19999999553","run_exp/static/audio/clip_20_q2.m4a","49","","","","","","","","","","","","","","","","","","","","","","",""
"","q2_err","77","476050","0.0-49.0-0.0","""event"",""trial"",""time""
""fullscreenenter"",""0"",""3341""
","
","
","""event"",""trial"",""time""
""fullscreenenter"",""0"",""3341""
","
","null","run_exp/static/audio/clip_21_wrong_q2.m4a","null","","","","","<div class='center'><p>That’s incorrect. Which pirate is the best may change during your time on the island.</p></div>","","","","","","","","","","","","","","","","","",""
"","html-keyboard-response","78","477102","0.0-49.0-1.0","""event"",""trial"",""time""
""fullscreenenter"",""0"",""3341""
","
","
","""event"",""trial"",""time""
""fullscreenenter"",""0"",""3341""
","
","1050.7000000029802","<div class='center'><p>That’s incorrect. Which pirate is the best may change during your time on the island.</p><p><b>[Press the space bar to continue]</b></p></div>","32","","","","","","","","","","","","","","","","","","","","","","",""
"","audio-keyboard-response","79","487369","0.0-49.0-2.0","""event"",""trial"",""time""
""fullscreenenter"",""0"",""3341""
","
","
","""event"",""trial"",""time""
""fullscreenenter"",""0"",""3341""
","
","10265.60000000149","run_exp/static/audio/clip_22_q3.m4a","49","","","","","","","","","","","","","","","","","","","","","","",""
"","q3_err","80","493870","0.0-50.0-0.0","""event"",""trial"",""time""
""fullscreenenter"",""0"",""3341""
","
","
","""event"",""trial"",""time""
""fullscreenenter"",""0"",""3341""
","
","null","run_exp/static/audio/clip_23_wrong_q3.m4a","null","","","","","<div class='center'><p>That’s incorrect. How good a pirate is at robbing ships will change from island to island!</p></div>","","","","","","","","","","","","","","","","","",""
"","html-keyboard-response","81","494546","0.0-50.0-1.0","""event"",""trial"",""time""
""fullscreenenter"",""0"",""3341""
","
","
","""event"",""trial"",""time""
""fullscreenenter"",""0"",""3341""
","
","674.7000000029802","<div class='center'><p>That’s incorrect. How good a pirate is at robbing ships will change from island to island!</p><p><b>[Press the space bar to continue]</b></p></div>","32","","","","","","","","","","","","","","","","","","","","","","",""
"","audio-keyboard-response","82","499384","0.0-50.0-2.0","""event"",""trial"",""time""
""fullscreenenter"",""0"",""3341""
","
","
","""event"",""trial"",""time""
""fullscreenenter"",""0"",""3341""
","
","4835.89999999851","run_exp/static/audio/clip_24_q4.m4a","49","","","","","","","","","","","","","","","","","","","","","","",""
"","correct","83","501810","0.0-51.0-0.0","""event"",""trial"",""time""
""fullscreenenter"",""0"",""3341""
","
","
","""event"",""trial"",""time""
""fullscreenenter"",""0"",""3341""
","
","null","run_exp/static/audio/clip_18_correct.m4a","null","","","","","<div class='center'><p>That's correct!</p></div>","","","","","","","","","","","","","","","","","",""
"","html-keyboard-response","84","502347","0.0-51.0-1.0","""event"",""trial"",""time""
""fullscreenenter"",""0"",""3341""
","
","
","""event"",""trial"",""time""
""fullscreenenter"",""0"",""3341""
","
","534.5","<div class='center'><p>That's correct!</p><p><b>[Press the space bar to continue]</b></p></div>","32","","","","","","","","","","","","","","","","","","","","","","",""
"","q_all_err","85","508571","0.0-52.0-0.0","""event"",""trial"",""time""
""fullscreenenter"",""0"",""3341""
","
","
","""event"",""trial"",""time""
""fullscreenenter"",""0"",""3341""
","
","null","run_exp/static/audio/clip_26_quiz_redo.m4a","null","","","","","<div class='center'><p>Oops, you missed some questions. Now that you’ve heard the correct answers. Try the quiz again! </p></div>","","","","","","","","","","","","","","","","","",""
"","html-keyboard-response","86","509041","0.0-52.0-1.0","""event"",""trial"",""time""
""fullscreenenter"",""0"",""3341""
","
","
","""event"",""trial"",""time""
""fullscreenenter"",""0"",""3341""
","
","469.29999999701977","<div class='center'><p>Oops, you missed some questions. Now that you’ve heard the correct answers. Try the quiz again! </p><p><b>[Press the space bar to continue]</b></p></div>","32","","","","","","","","","","","","","","","","","","","","","","",""
"","audio-keyboard-response","87","512428","0.0-52.0-2.0","""event"",""trial"",""time""
""fullscreenenter"",""0"",""3341""
","
","
","""event"",""trial"",""time""
""fullscreenenter"",""0"",""3341""
","
","3385.10000000149","run_exp/static/audio/clip_17_q1.m4a","49","","","","","","","","","","","","","","","","","","","","","","",""
"","correct","88","514830","0.0-53.0-0.0","""event"",""trial"",""time""
""fullscreenenter"",""0"",""3341""
","
","
","""event"",""trial"",""time""
""fullscreenenter"",""0"",""3341""
","
","null","run_exp/static/audio/clip_18_correct.m4a","null","","","","","<div class='center'><p>That's correct!</p></div>","","","","","","","","","","","","","","","","","",""
"","html-keyboard-response","89","515355","0.0-53.0-1.0","""event"",""trial"",""time""
""fullscreenenter"",""0"",""3341""
","
","
","""event"",""trial"",""time""
""fullscreenenter"",""0"",""3341""
","
","523.0999999940395","<div class='center'><p>That's correct!</p><p><b>[Press the space bar to continue]</b></p></div>","32","","","","","","","","","","","","","","","","","","","","","","",""
"","audio-keyboard-response","90","523547","0.0-53.0-2.0","""event"",""trial"",""time""
""fullscreenenter"",""0"",""3341""
","
","
","""event"",""trial"",""time""
""fullscreenenter"",""0"",""3341""
","
","8190.29999999702","run_exp/static/audio/clip_20_q2.m4a","50","","","","","","","","","","","","","","","","","","","","","","",""
"","correct","91","525952","0.0-54.0-0.0","""event"",""trial"",""time""
""fullscreenenter"",""0"",""3341""
","
","
","""event"",""trial"",""time""
""fullscreenenter"",""0"",""3341""
","
","null","run_exp/static/audio/clip_18_correct.m4a","null","","","","","<div class='center'><p>That's correct!</p></div>","","","","","","","","","","","","","","","","","",""
"","html-keyboard-response","92","526362","0.0-54.0-1.0","""event"",""trial"",""time""
""fullscreenenter"",""0"",""3341""
","
","
","""event"",""trial"",""time""
""fullscreenenter"",""0"",""3341""
","
","409.40000000596046","<div class='center'><p>That's correct!</p><p><b>[Press the space bar to continue]</b></p></div>","32","","","","","","","","","","","","","","","","","","","","","","",""
"","audio-keyboard-response","93","533179","0.0-54.0-2.0","""event"",""trial"",""time""
""fullscreenenter"",""0"",""3341""
","
","
","""event"",""trial"",""time""
""fullscreenenter"",""0"",""3341""
","
","6815.19999999553","run_exp/static/audio/clip_22_q3.m4a","50","","","","","","","","","","","","","","","","","","","","","","",""
"","correct","94","535571","0.0-55.0-0.0","""event"",""trial"",""time""
""fullscreenenter"",""0"",""3341""
","
","
","""event"",""trial"",""time""
""fullscreenenter"",""0"",""3341""
","
","null","run_exp/static/audio/clip_18_correct.m4a","null","","","","","<div class='center'><p>That's correct!</p></div>","","","","","","","","","","","","","","","","","",""
"","html-keyboard-response","95","536053","0.0-55.0-1.0","""event"",""trial"",""time""
""fullscreenenter"",""0"",""3341""
","
","
","""event"",""trial"",""time""
""fullscreenenter"",""0"",""3341""
","
","480.40000000596046","<div class='center'><p>That's correct!</p><p><b>[Press the space bar to continue]</b></p></div>","32","","","","","","","","","","","","","","","","","","","","","","",""
"","audio-keyboard-response","96","541107","0.0-55.0-2.0","""event"",""trial"",""time""
""fullscreenenter"",""0"",""3341""
","
","
","""event"",""trial"",""time""
""fullscreenenter"",""0"",""3341""
","
","5052.5","run_exp/static/audio/clip_24_q4.m4a","49","","","","","","","","","","","","","","","","","","","","","","",""
"","correct","97","543531","0.0-56.0-0.0","""event"",""trial"",""time""
""fullscreenenter"",""0"",""3341""
","
","
","""event"",""trial"",""time""
""fullscreenenter"",""0"",""3341""
","
","null","run_exp/static/audio/clip_18_correct.m4a","null","","","","","<div class='center'><p>That's correct!</p></div>","","","","","","","","","","","","","","","","","",""
"","html-keyboard-response","98","544026","0.0-56.0-1.0","""event"",""trial"",""time""
""fullscreenenter"",""0"",""3341""
","
","
","""event"",""trial"",""time""
""fullscreenenter"",""0"",""3341""
","
","492.79999999701977","<div class='center'><p>That's correct!</p><p><b>[Press the space bar to continue]</b></p></div>","32","","","","","","","","","","","","","","","","","","","","","","",""
"","q_all_corr","99","552530","0.0-57.0-0.0","""event"",""trial"",""time""
""fullscreenenter"",""0"",""3341""
","
","
","""event"",""trial"",""time""
""fullscreenenter"",""0"",""3341""
","
","null","run_exp/static/audio/clip_27_quiz_all_correct.m4a","null","","","","","<div class='center'><p>Good job! You’re now ready to move on to the real game! Remember this game will be difficult but don't get discouraged and try your best!</p></div>","","","","","","","","","","","","","","","","","",""
"","html-keyboard-response","100","553358","0.0-57.0-1.0","""event"",""trial"",""time""
""fullscreenenter"",""0"",""3341""
","
","
","""event"",""trial"",""time""
""fullscreenenter"",""0"",""3341""
","
","826.3999999985099","<div class='center'><p>Good job! You’re now ready to move on to the real game! Remember this game will be difficult but don't get discouraged and try your best!</p><p><b>[Press the space bar to continue]</b></p></div>","32","","","","","","","","","","","","","","","","","","","","","","",""
"","do_welcome","101","557374","0.0-58.0-0.0","""event"",""trial"",""time""
""fullscreenenter"",""0"",""3341""
","
","
","""event"",""trial"",""time""
""fullscreenenter"",""0"",""3341""
","
","null","","","","","","","","null","","","","","","","","","","","","","","","","",""
"","do_trial","102","562391","0.0-59.0-0.0","""event"",""trial"",""time""
""fullscreenenter"",""0"",""3341""
","
","
","""event"",""trial"",""time""
""fullscreenenter"",""0"",""3341""
","
","442.1000000014901","","","","","","","","49","1,1,0","0","city","0","probe-31","0.6","0.3","0.1","1","","","","","","","",""
"","html-keyboard-response","103","563402","0.0-59.0-1.0","""event"",""trial"",""time""
""fullscreenenter"",""0"",""3341""
","
","
","""event"",""trial"",""time""
""fullscreenenter"",""0"",""3341""
","
","null","<p></p>","null","","","","","","","","","","","","","","","","","","","","","","",""
"","do_trial","104","568780","0.0-60.0-0.0","""event"",""trial"",""time""
""fullscreenenter"",""0"",""3341""
","
","
","""event"",""trial"",""time""
""fullscreenenter"",""0"",""3341""
","
","823.2000000029802","","","","","","","","50","1,0,0","0","city","1","probe-78","0.5249928915167017","0.30401628857777435","0.11068636112777963","0","","","","","","","",""
"","html-keyboard-response","105","569783","0.0-60.0-1.0","""event"",""trial"",""time""
""fullscreenenter"",""0"",""3341""
","
","
","""event"",""trial"",""time""
""fullscreenenter"",""0"",""3341""
","
","null","<p></p>","null","","","","","","","","","","","","","","","","","","","","","","",""
"","do_trial","106","575056","0.0-61.0-0.0","""event"",""trial"",""time""
""fullscreenenter"",""0"",""3341""
","
","
","""event"",""trial"",""time""
""fullscreenenter"",""0"",""3341""
","
","701.3999999985099","","","","","","","","51","1,0,1","0","city","2","probe-110","0.6139473438263798","0.2911796236370387","0.19324695574576253","1","","","","","","","",""
"","html-keyboard-response","107","576075","0.0-61.0-1.0","""event"",""trial"",""time""
""fullscreenenter"",""0"",""3341""
","
","
","""event"",""trial"",""time""
""fullscreenenter"",""0"",""3341""
","
","null","<p></p>","null","","","","","","","","","","","","","","","","","","","","","","",""
"","do_trial","108","581179","0.0-62.0-0.0","""event"",""trial"",""time""
""fullscreenenter"",""0"",""3341""
","
","
","""event"",""trial"",""time""
""fullscreenenter"",""0"",""3341""
","
","559.3999999985099","","","","","","","","49","0,0,0","0","city","3","probe-170","0.5806139375951963","0.282465180634631","0.08106078906205083","0","","","","","","","",""
"","html-keyboard-response","109","582198","0.0-62.0-1.0","""event"",""trial"",""time""
""fullscreenenter"",""0"",""3341""
","
","
","""event"",""trial"",""time""
""fullscreenenter"",""0"",""3341""
","
","null","<p></p>","null","","","","","","","","","","","","","","","","","","","","","","",""
"","do_trial","110","588255","0.0-63.0-0.0","""event"",""trial"",""time""
""fullscreenenter"",""0"",""3341""
","
","
","""event"",""trial"",""time""
""fullscreenenter"",""0"",""3341""
","
","1506.0999999940395","","","","","","","","51","1,1,1","0","city","4","probe-101","0.57247215388344","0.3258268783400197","0.10532533947369484","1","","","","","","","",""
"","html-keyboard-response","111","589275","0.0-63.0-1.0","""event"",""trial"",""time""
""fullscreenenter"",""0"",""3341""
","
","
","""event"",""trial"",""time""
""fullscreenenter"",""0"",""3341""
","
","null","<p></p>","null","","","","","","","","","","","","","","","","","","","","","","",""
"","do_trial","112","594524","0.0-64.0-0.0","""event"",""trial"",""time""
""fullscreenenter"",""0"",""3341""
","
","
","""event"",""trial"",""time""
""fullscreenenter"",""0"",""3341""
","
","701.2000000029802","","","","","","","","50","1,1,0","0","city","5","probe-191","0.6895948528421758","0.4011484487315626","0.10738346789456861","1","","","","","","","",""
"","html-keyboard-response","113","595541","0.0-64.0-1.0","""event"",""trial"",""time""
""fullscreenenter"",""0"",""3341""
","
","
","""event"",""trial"",""time""
""fullscreenenter"",""0"",""3341""
","
","null","<p></p>","null","","","","","","","","","","","","","","","","","","","","","","",""
"","do_trial","114","600914","0.0-65.0-0.0","""event"",""trial"",""time""
""fullscreenenter"",""0"",""3341""
","
","
","""event"",""trial"",""time""
""fullscreenenter"",""0"",""3341""
","
","826.1000000014901","","","","","","","","49","1,0,0","0","city","6","probe-131","0.730798630897286","0.40215034565698465","0.14201164117072332","1","","","","","","","",""
"","html-keyboard-response","115","601931","0.0-65.0-1.0","""event"",""trial"",""time""
""fullscreenenter"",""0"",""3341""
","
","
","""event"",""trial"",""time""
""fullscreenenter"",""0"",""3341""
","
","null","<p></p>","null","","","","","","","","","","","","","","","","","","","","","","",""
"","do_trial","116","608004","0.0-66.0-0.0","""event"",""trial"",""time""
""fullscreenenter"",""0"",""3341""
","
","
","""event"",""trial"",""time""
""fullscreenenter"",""0"",""3341""
","
","1515.6999999955297","","","","","","","","51","0,0,0","0","city","7","probe-162","0.6428711897869314","0.47794945822668683","0.1522365316248845","0","","","","","","","",""
"","html-keyboard-response","117","609018","0.0-66.0-1.0","""event"",""trial"",""time""
""fullscreenenter"",""0"",""3341""
","
","
","""event"",""trial"",""time""
""fullscreenenter"",""0"",""3341""
","
","null","<p></p>","null","","","","","","","","","","","","","","","","","","","","","","",""
"","do_trial","118","615398","0.0-67.0-0.0","""event"",""trial"",""time""
""fullscreenenter"",""0"",""3341""
","
","
","""event"",""trial"",""time""
""fullscreenenter"",""0"",""3341""
","
","1828.3000000044703","","","","","","","","49","0,1,0","0","city","8","probe-81","0.47498115674632807","0.6106652742599397","0.25915286965108114","0","","","","","","","",""
"","html-keyboard-response","119","616410","0.0-67.0-1.0","""event"",""trial"",""time""
""fullscreenenter"",""0"",""3341""
","
","
","""event"",""trial"",""time""
""fullscreenenter"",""0"",""3341""
","
","null","<p></p>","null","","","","","","","","","","","","","","","","","","","","","","",""
"","do_trial","120","621974","0.0-68.0-0.0","""event"",""trial"",""time""
""fullscreenenter"",""0"",""3341""
","
","
","""event"",""trial"",""time""
""fullscreenenter"",""0"",""3341""
","
","1017.9000000059605","","","","","","","","50","0,1,0","0","city","9","probe-76","0.5670397943322146","0.44110294454577714","0.06780632596704061","1","","","","","","","",""
"","html-keyboard-response","121","622992","0.0-68.0-1.0","""event"",""trial"",""time""
""fullscreenenter"",""0"",""3341""
","
","
","""event"",""trial"",""time""
""fullscreenenter"",""0"",""3341""
","
","null","<p></p>","null","","","","","","","","","","","","","","","","","","","","","","",""
"","do_trial","122","628392","0.0-69.0-0.0","""event"",""trial"",""time""
""fullscreenenter"",""0"",""3341""
","
","
","""event"",""trial"",""time""
""fullscreenenter"",""0"",""3341""
","
","817.9000000059605","","","","","","","","49","0,1,0","0","city","10","probe-202","0.6439610941515694","0.5822754772694004","0.07927377065771102","0","","","","","","","",""
"","html-keyboard-response","123","629406","0.0-69.0-1.0","""event"",""trial"",""time""
""fullscreenenter"",""0"",""3341""
","
","
","""event"",""trial"",""time""
""fullscreenenter"",""0"",""3341""
","
","null","<p></p>","null","","","","","","","","","","","","","","","","","","","","","","",""
"","do_trial","124","634968","0.0-70.0-0.0","""event"",""trial"",""time""
""fullscreenenter"",""0"",""3341""
","
","
","""event"",""trial"",""time""
""fullscreenenter"",""0"",""3341""
","
","988.1999999955297","","","","","","","","51","1,1,0","0","city","11","probe-192","0.5621264905460658","0.4653661652697493","0.09064505369119084","0","","","","","","","",""
"","html-keyboard-response","125","635983","0.0-70.0-1.0","""event"",""trial"",""time""
""fullscreenenter"",""0"",""3341""
","
","
","""event"",""trial"",""time""
""fullscreenenter"",""0"",""3341""
","
","null","<p></p>","null","","","","","","","","","","","","","","","","","","","","","","",""
"","do_trial","126","641757","0.0-71.0-0.0","""event"",""trial"",""time""
""fullscreenenter"",""0"",""3341""
","
","
","""event"",""trial"",""time""
""fullscreenenter"",""0"",""3341""
","
","1226.2999999970198","","","","","","","","50","0,1,0","0","city","12","probe-57","0.44405058580640017","0.4734427383635317","0.09599599969814283","1","","","","","","","",""
"","html-keyboard-response","127","642769","0.0-71.0-1.0","""event"",""trial"",""time""
""fullscreenenter"",""0"",""3341""
","
","
","""event"",""trial"",""time""
""fullscreenenter"",""0"",""3341""
","
","null","<p></p>","null","","","","","","","","","","","","","","","","","","","","","","",""
"","do_trial","128","647946","0.0-72.0-0.0","""event"",""trial"",""time""
""fullscreenenter"",""0"",""3341""
","
","
","""event"",""trial"",""time""
""fullscreenenter"",""0"",""3341""
","
","630.8999999985099","","","","","","","","49","1,1,0","0","city","13","probe-224","0.5024729488142446","0.47810563860667993","0.1148033752591888","1","","","","","","","",""
"","html-keyboard-response","129","648961","0.0-72.0-1.0","""event"",""trial"",""time""
""fullscreenenter"",""0"",""3341""
","
","
","""event"",""trial"",""time""
""fullscreenenter"",""0"",""3341""
","
","null","<p></p>","null","","","","","","","","","","","","","","","","","","","","","","",""
"","do_trial","130","654554","0.0-73.0-0.0","""event"",""trial"",""time""
""fullscreenenter"",""0"",""3341""
","
","
","""event"",""trial"",""time""
""fullscreenenter"",""0"",""3341""
","
","1040.8000000044703","","","","","","","","51","0,0,0","0","city","14","probe-03","0.5777628116804111","0.6326612622038585","0.08278150744432314","0","","","","","","","",""
"","html-keyboard-response","131","655571","0.0-73.0-1.0","""event"",""trial"",""time""
""fullscreenenter"",""0"",""3341""
","
","
","""event"",""trial"",""time""
""fullscreenenter"",""0"",""3341""
","
","null","<p></p>","null","","","","","","","","","","","","","","","","","","","","","","",""
"","do_trial","132","661996","0.0-74.0-0.0","""event"",""trial"",""time""
""fullscreenenter"",""0"",""3341""
","
","
","""event"",""trial"",""time""
""fullscreenenter"",""0"",""3341""
","
","1832.8999999985099","","","","","","","","50","1,0,0","0","city","15","probe-70","0.5657683587873171","0.3423246626497536","0.06713305874039016","0","","","","","","","",""
"","html-keyboard-response","133","663007","0.0-74.0-1.0","""event"",""trial"",""time""
""fullscreenenter"",""0"",""3341""
","
","
","""event"",""trial"",""time""
""fullscreenenter"",""0"",""3341""
","
","null","<p></p>","null","","","","","","","","","","","","","","","","","","","","","","",""
"","do_trial","134","668470","0.0-75.0-0.0","""event"",""trial"",""time""
""fullscreenenter"",""0"",""3341""
","
","
","""event"",""trial"",""time""
""fullscreenenter"",""0"",""3341""
","
","892.6000000014901","","","","","","","","49","1,0,0","0","city","16","probe-103","0.6851826808461899","0.4109080203807207","0.07615871921426776","1","","","","","","","",""
"","html-keyboard-response","135","669479","0.0-75.0-1.0","""event"",""trial"",""time""
""fullscreenenter"",""0"",""3341""
","
","
","""event"",""trial"",""time""
""fullscreenenter"",""0"",""3341""
","
","null","<p></p>","null","","","","","","","","","","","","","","","","","","","","","","",""
"","do_trial","136","674780","0.0-76.0-0.0","""event"",""trial"",""time""
""fullscreenenter"",""0"",""3341""
","
","
","""event"",""trial"",""time""
""fullscreenenter"",""0"",""3341""
","
","723.2000000029802","","","","","","","","51","1,0,0","0","city","17","probe-117","0.615863644002325","0.343355695500868","0.06445514078896475","0","","","","","","","",""
"","html-keyboard-response","137","675794","0.0-76.0-1.0","""event"",""trial"",""time""
""fullscreenenter"",""0"",""3341""
","
","
","""event"",""trial"",""time""
""fullscreenenter"",""0"",""3341""
","
","null","<p></p>","null","","","","","","","","","","","","","","","","","","","","","","",""
"","do_trial","138","681100","0.0-77.0-0.0","""event"",""trial"",""time""
""fullscreenenter"",""0"",""3341""
","
","
","""event"",""trial"",""time""
""fullscreenenter"",""0"",""3341""
","
","758.2999999970198","","","","","","","","50","1,0,1","0","city","18","probe-40","0.5646963124761945","0.3751328774937931","0.21880470022720544","0","","","","","","","",""
"","html-keyboard-response","139","682118","0.0-77.0-1.0","""event"",""trial"",""time""
""fullscreenenter"",""0"",""3341""
","
","
","""event"",""trial"",""time""
""fullscreenenter"",""0"",""3341""
","
","null","<p></p>","null","","","","","","","","","","","","","","","","","","","","","","",""
"","do_trial","140","687604","0.0-78.0-0.0","""event"",""trial"",""time""
""fullscreenenter"",""0"",""3341""
","
","
","""event"",""trial"",""time""
""fullscreenenter"",""0"",""3341""
","
","936.6000000014901","","","","","","","","49","1,1,1","0","city","19","probe-199","0.5131930733214097","0.3518212218718891","0.24395919362471305","1","","","","","","","",""
"","html-keyboard-response","141","688620","0.0-78.0-1.0","""event"",""trial"",""time""
""fullscreenenter"",""0"",""3341""
","
","
","""event"",""trial"",""time""
""fullscreenenter"",""0"",""3341""
","
","null","<p></p>","null","","","","","","","","","","","","","","","","","","","","","","",""
"","do_trial","142","694581","0.0-79.0-0.0","""event"",""trial"",""time""
""fullscreenenter"",""0"",""3341""
","
","
","""event"",""trial"",""time""
""fullscreenenter"",""0"",""3341""
","
","1380.1999999955297","","","","","","","","50","1,0,0","0","city","20","probe-24","0.6933992816501379","0.27745770862486135","0.2980935534971085","0","","","","","","","",""
"","html-keyboard-response","143","695597","0.0-79.0-1.0","""event"",""trial"",""time""
""fullscreenenter"",""0"",""3341""
","
","
","""event"",""trial"",""time""
""fullscreenenter"",""0"",""3341""
","
","null","<p></p>","null","","","","","","","","","","","","","","","","","","","","","","",""
"","do_trial","144","700920","0.0-80.0-0.0","""event"",""trial"",""time""
""fullscreenenter"",""0"",""3341""
","
","
","""event"",""trial"",""time""
""fullscreenenter"",""0"",""3341""
","
","767.0999999940395","","","","","","","","51","1,1,0","0","city","21","probe-130","0.6797448084775135","0.30069067752995615","0.21327997276044705","0","","","","","","","",""
"","html-keyboard-response","145","701936","0.0-80.0-1.0","""event"",""trial"",""time""
""fullscreenenter"",""0"",""3341""
","
","
","""event"",""trial"",""time""
""fullscreenenter"",""0"",""3341""
","
","null","<p></p>","null","","","","","","","","","","","","","","","","","","","","","","",""
"","do_trial","146","707810","0.0-81.0-0.0","""event"",""trial"",""time""
""fullscreenenter"",""0"",""3341""
","
","
","""event"",""trial"",""time""
""fullscreenenter"",""0"",""3341""
","
","1317.3000000044703","","","","","","","","49","1,0,0","0","city","22","probe-86","0.5825397503283274","0.3877791930346793","0.19976323630098045","1","","","","","","","",""
"","html-keyboard-response","147","708824","0.0-81.0-1.0","""event"",""trial"",""time""
""fullscreenenter"",""0"",""3341""
","
","
","""event"",""trial"",""time""
""fullscreenenter"",""0"",""3341""
","
","null","<p></p>","null","","","","","","","","","","","","","","","","","","","","","","",""
"","do_trial","148","714000","0.0-82.0-0.0","""event"",""trial"",""time""
""fullscreenenter"",""0"",""3341""
","
","
","""event"",""trial"",""time""
""fullscreenenter"",""0"",""3341""
","
","620.7000000029802","","","","","","","","49","1,0,0","0","city","23","probe-132","0.5757962876323361","0.49433401787678705","0.11580379340287653","1","","","","","","","",""
"","html-keyboard-response","149","715019","0.0-82.0-1.0","""event"",""trial"",""time""
""fullscreenenter"",""0"",""3341""
","
","
","""event"",""trial"",""time""
""fullscreenenter"",""0"",""3341""
","
","null","<p></p>","null","","","","","","","","","","","","","","","","","","","","","","",""
"","do_trial","150","720028","0.0-83.0-0.0","""event"",""trial"",""time""
""fullscreenenter"",""0"",""3341""
","
","
","""event"",""trial"",""time""
""fullscreenenter"",""0"",""3341""
","
","461.20000000298023","","","","","","","","51","1,1,0","0","city","24","probe-11","0.6389019572779023","0.3688710524304423","0.1393757749698691","0","","","","","","","",""
"","html-keyboard-response","151","721038","0.0-83.0-1.0","""event"",""trial"",""time""
""fullscreenenter"",""0"",""3341""
","
","
","""event"",""trial"",""time""
""fullscreenenter"",""0"",""3341""
","
","null","<p></p>","null","","","","","","","","","","","","","","","","","","","","","","",""
"","do_trial","152","726833","0.0-84.0-0.0","""event"",""trial"",""time""
""fullscreenenter"",""0"",""3341""
","
","
","""event"",""trial"",""time""
""fullscreenenter"",""0"",""3341""
","
","1239.8999999985099","","","","","","","","50","0,1,0","0","city","25","probe-20","0.6227427744884917","0.49721130520387846","0.1305103451459173","1","","","","","","","",""
"","html-keyboard-response","153","727843","0.0-84.0-1.0","""event"",""trial"",""time""
""fullscreenenter"",""0"",""3341""
","
","
","""event"",""trial"",""time""
""fullscreenenter"",""0"",""3341""
","
","null","<p></p>","null","","","","","","","","","","","","","","","","","","","","","","",""
"","do_trial","154","734885","0.0-85.0-0.0","""event"",""trial"",""time""
""fullscreenenter"",""0"",""3341""
","
","
","""event"",""trial"",""time""
""fullscreenenter"",""0"",""3341""
","
","2492.5","","","","","","","","49","1,0,0","0","city","26","probe-139","0.5910573568630388","0.296946876166806","0.07283891636983757","1","","","","","","","",""
"","html-keyboard-response","155","735905","0.0-85.0-1.0","""event"",""trial"",""time""
""fullscreenenter"",""0"",""3341""
","
","
","""event"",""trial"",""time""
""fullscreenenter"",""0"",""3341""
","
","null","<p></p>","null","","","","","","","","","","","","","","","","","","","","","","",""
"","do_trial","156","741211","0.0-86.0-0.0","""event"",""trial"",""time""
""fullscreenenter"",""0"",""3341""
","
","
","""event"",""trial"",""time""
""fullscreenenter"",""0"",""3341""
","
","753.2000000029802","","","","","","","","51","0,1,0","0","city","27","probe-14","0.4934529878581895","0.3291993896943022","0.06665889268922662","0","","","","","","","",""
"","html-keyboard-response","157","742220","0.0-86.0-1.0","""event"",""trial"",""time""
""fullscreenenter"",""0"",""3341""
","
","
","""event"",""trial"",""time""
""fullscreenenter"",""0"",""3341""
","
","null","<p></p>","null","","","","","","","","","","","","","","","","","","","","","","",""
"","do_trial","158","747970","0.0-87.0-0.0","""event"",""trial"",""time""
""fullscreenenter"",""0"",""3341""
","
","
","""event"",""trial"",""time""
""fullscreenenter"",""0"",""3341""
","
","1188.2999999970198","","","","","","","","49","1,0,0","0","city","28","probe-137","0.5617786363940102","0.23602751865060448","0.1316048798326239","1","","","","","","","",""
"","html-keyboard-response","159","748991","0.0-87.0-1.0","""event"",""trial"",""time""
""fullscreenenter"",""0"",""3341""
","
","
","""event"",""trial"",""time""
""fullscreenenter"",""0"",""3341""
","
","null","<p></p>","null","","","","","","","","","","","","","","","","","","","","","","",""
"","do_trial","160","754612","0.0-88.0-0.0","""event"",""trial"",""time""
""fullscreenenter"",""0"",""3341""
","
","
","""event"",""trial"",""time""
""fullscreenenter"",""0"",""3341""
","
","1068.6000000014901","","","","","","","","50","0,0,0","0","city","29","probe-126","0.7279673158000174","0.10292788406928266","0.15237775259133338","0","","","","","","","",""
"","html-keyboard-response","161","755617","0.0-88.0-1.0","""event"",""trial"",""time""
""fullscreenenter"",""0"",""3341""
","
","
","""event"",""trial"",""time""
""fullscreenenter"",""0"",""3341""
","
","null","<p></p>","null","","","","","","","","","","","","","","","","","","","","","","",""
"","do_bye","162","757128","0.0-89.0-0.0","""event"",""trial"",""time""
""fullscreenenter"",""0"",""3341""
","
","
","""event"",""trial"",""time""
""fullscreenenter"",""0"",""3341""
","
","null","","","","","","","","null","","","","","","","","","","","","","","","","",""
"","break","163","757245","0.0-89.0-1.0","""event"",""trial"",""time""
""fullscreenenter"",""0"",""3341""
","
","
","""event"",""trial"",""time""
""fullscreenenter"",""0"",""3341""
","
","114.39999999850988","<div class='center'><p>Time to take a quick break! You have 2 minutes to rest, but you can move on sooner if you'd like.</p><p> Press the <b>space bar</b> to continue.</p></div>","32","","","","","","","","","","","","","","","","","","","","","","",""
"","do_travel","164","766256","0.0-90.0-0.0","""event"",""trial"",""time""
""fullscreenenter"",""0"",""3341""
","
","
","""event"",""trial"",""time""
""fullscreenenter"",""0"",""3341""
","
","null","","","","","","","","null","","","","","","","","","","","","","","","","",""
"","do_welcome","165","770272","0.0-90.0-1.0","""event"",""trial"",""time""
""fullscreenenter"",""0"",""3341""
","
","
","""event"",""trial"",""time""
""fullscreenenter"",""0"",""3341""
","
","null","","","","","","","","null","","","","","","","","","","","","","","","","",""
"","do_trial","166","776358","0.0-91.0-0.0","""event"",""trial"",""time""
""fullscreenenter"",""0"",""3341""
","
","
","""event"",""trial"",""time""
""fullscreenenter"",""0"",""3341""
","
","null","","","","","","","","null","1,0,0","1","mountain","30","probe-208","1","0.11938659624929226","0.10286634905342648","","","","","","","","",""
"","html-keyboard-response","167","777377","0.0-91.0-1.0","""event"",""trial"",""time""
""fullscreenenter"",""0"",""3341""
","
","
","""event"",""trial"",""time""
""fullscreenenter"",""0"",""3341""
","
","null","<p></p>","null","","","","","","","","","","","","","","","","","","","","","","",""
"","do_trial","168","782337","0.0-92.0-0.0","""event"",""trial"",""time""
""fullscreenenter"",""0"",""3341""
","
","
","""event"",""trial"",""time""
""fullscreenenter"",""0"",""3341""
","
","392.6000000014901","","","","","","","","51","1,0,0","1","mountain","31","probe-61","1","0.3152240391667017","0.08918428384009441","0","","","","","","","",""
"","html-keyboard-response","169","783348","0.0-92.0-1.0","""event"",""trial"",""time""
""fullscreenenter"",""0"",""3341""
","
","
","""event"",""trial"",""time""
""fullscreenenter"",""0"",""3341""
","
","null","<p></p>","null","","","","","","","","","","","","","","","","","","","","","","",""
"","do_trial","170","788493","0.0-93.0-0.0","""event"",""trial"",""time""
""fullscreenenter"",""0"",""3341""
","
","
","""event"",""trial"",""time""
""fullscreenenter"",""0"",""3341""
","
","595.6999999955297","","","","","","","","49","1,0,0","1","mountain","32","probe-04","1","0.3613408944389049","0.09663785100128508","1","","","","","","","",""
"","html-keyboard-response","171","789504","0.0-93.0-1.0","""event"",""trial"",""time""
""fullscreenenter"",""0"",""3341""
","
","
","""event"",""trial"",""time""
""fullscreenenter"",""0"",""3341""
","
","null","<p></p>","null","","","","","","","","","","","","","","","","","","","","","","",""
"","do_trial","172","794364","0.0-94.0-0.0","""event"",""trial"",""time""
""fullscreenenter"",""0"",""3341""
","
","
","""event"",""trial"",""time""
""fullscreenenter"",""0"",""3341""
","
","290.40000000596046","","","","","","","","50","1,0,1","1","mountain","33","probe-185","0.8590861125686337","0.31370957051534354","0.0677429383263591","0","","","","","","","",""
"","html-keyboard-response","173","795380","0.0-94.0-1.0","""event"",""trial"",""time""
""fullscreenenter"",""0"",""3341""
","
","
","""event"",""trial"",""time""
""fullscreenenter"",""0"",""3341""
","
","null","<p></p>","null","","","","","","","","","","","","","","","","","","","","","","",""
"","do_trial","174","800223","0.0-95.0-0.0","""event"",""trial"",""time""
""fullscreenenter"",""0"",""3341""
","
","
","""event"",""trial"",""time""
""fullscreenenter"",""0"",""3341""
","
","283.70000000298023","","","","","","","","49","0,1,1","1","mountain","34","probe-210","0.7459108129347207","0.300469082221885","0.10435836922694679","0","","","","","","","",""
"","html-keyboard-response","175","801237","0.0-95.0-1.0","""event"",""trial"",""time""
""fullscreenenter"",""0"",""3341""
","
","
","""event"",""trial"",""time""
""fullscreenenter"",""0"",""3341""
","
","null","<p></p>","null","","","","","","","","","","","","","","","","","","","","","","",""
"","do_trial","176","806014","0.0-96.0-0.0","""event"",""trial"",""time""
""fullscreenenter"",""0"",""3341""
","
","
","""event"",""trial"",""time""
""fullscreenenter"",""0"",""3341""
","
","234.70000000298023","","","","","","","","51","1,0,0","1","mountain","35","probe-46","0.6698776036363846","0.18182045936957433","0.053622205151689244","0","","","","","","","",""
"","html-keyboard-response","177","807028","0.0-96.0-1.0","""event"",""trial"",""time""
""fullscreenenter"",""0"",""3341""
","
","
","""event"",""trial"",""time""
""fullscreenenter"",""0"",""3341""
","
","null","<p></p>","null","","","","","","","","","","","","","","","","","","","","","","",""
"","do_trial","178","811952","0.0-97.0-0.0","""event"",""trial"",""time""
""fullscreenenter"",""0"",""3341""
","
","
","""event"",""trial"",""time""
""fullscreenenter"",""0"",""3341""
","
","366.70000000298023","","","","","","","","49","1,0,0","1","mountain","36","probe-34","0.7347609348594294","0.19201519389466076","0.2621842147440696","1","","","","","","","",""
"","html-keyboard-response","179","812968","0.0-97.0-1.0","""event"",""trial"",""time""
""fullscreenenter"",""0"",""3341""
","
","
","""event"",""trial"",""time""
""fullscreenenter"",""0"",""3341""
","
","null","<p></p>","null","","","","","","","","","","","","","","","","","","","","","","",""
"","do_trial","180","817921","0.0-98.0-0.0","""event"",""trial"",""time""
""fullscreenenter"",""0"",""3341""
","
","
","""event"",""trial"",""time""
""fullscreenenter"",""0"",""3341""
","
","370.3999999985099","","","","","","","","50","1,0,1","1","mountain","37","probe-169","0.6805208419728065","0.270714573872197","0.27906797885589885","0","","","","","","","",""
"","html-keyboard-response","181","818931","0.0-98.0-1.0","""event"",""trial"",""time""
""fullscreenenter"",""0"",""3341""
","
","
","""event"",""trial"",""time""
""fullscreenenter"",""0"",""3341""
","
","null","<p></p>","null","","","","","","","","","","","","","","","","","","","","","","",""
"","do_trial","182","824687","0.0-99.0-0.0","""event"",""trial"",""time""
""fullscreenenter"",""0"",""3341""
","
","
","""event"",""trial"",""time""
""fullscreenenter"",""0"",""3341""
","
","1197.3000000044703","","","","","","","","49","0,0,0","1","mountain","38","probe-118","0.6917447243311918","0.2042917624271927","0.0897763459564251","0","","","","","","","",""
"","html-keyboard-response","183","825703","0.0-99.0-1.0","""event"",""trial"",""time""
""fullscreenenter"",""0"",""3341""
","
","
","""event"",""trial"",""time""
""fullscreenenter"",""0"",""3341""
","
","null","<p></p>","null","","","","","","","","","","","","","","","","","","","","","","",""
"","do_trial","184","830547","0.0-100.0-0.0","""event"",""trial"",""time""
""fullscreenenter"",""0"",""3341""
","
","
","""event"",""trial"",""time""
""fullscreenenter"",""0"",""3341""
","
","294.29999999701977","","","","","","","","51","0,1,0","1","mountain","39","probe-154","0.588254448653563","0.4089774177140133","0.20710069027161787","0","","","","","","","",""
"","html-keyboard-response","185","831576","0.0-100.0-1.0","""event"",""trial"",""time""
""fullscreenenter"",""0"",""3341""
","
","
","""event"",""trial"",""time""
""fullscreenenter"",""0"",""3341""
","
","null","<p></p>","null","","","","","","","","","","","","","","","","","","","","","","",""
"","do_trial","186","836488","0.0-101.0-0.0","""event"",""trial"",""time""
""fullscreenenter"",""0"",""3341""
","
","
","""event"",""trial"",""time""
""fullscreenenter"",""0"",""3341""
","
","353.1000000014901","","","","","","","","50","1,1,0","1","mountain","40","probe-205","0.62723366896078","0.5055000503947089","0.15926188041514613","1","","","","","","","",""
"","html-keyboard-response","187","837502","0.0-101.0-1.0","""event"",""trial"",""time""
""fullscreenenter"",""0"",""3341""
","
","
","""event"",""trial"",""time""
""fullscreenenter"",""0"",""3341""
","
","null","<p></p>","null","","","","","","","","","","","","","","","","","","","","","","",""
"","do_trial","188","842501","0.0-102.0-0.0","""event"",""trial"",""time""
""fullscreenenter"",""0"",""3341""
","
","
","""event"",""trial"",""time""
""fullscreenenter"",""0"",""3341""
","
","432.20000000298023","","","","","","","","51","1,1,0","1","mountain","41","probe-123","0.6124054072720982","0.499993055023737","0.2038965085729576","0","","","","","","","",""
"","html-keyboard-response","189","843507","0.0-102.0-1.0","""event"",""trial"",""time""
""fullscreenenter"",""0"",""3341""
","
","
","""event"",""trial"",""time""
""fullscreenenter"",""0"",""3341""
","
","null","<p></p>","null","","","","","","","","","","","","","","","","","","","","","","",""
"","do_trial","190","848586","0.0-103.0-0.0","""event"",""trial"",""time""
""fullscreenenter"",""0"",""3341""
","
","
","""event"",""trial"",""time""
""fullscreenenter"",""0"",""3341""
","
","522.8999999985099","","","","","","","","49","0,1,0","1","mountain","42","probe-180","0.4575315284571787","0.5083222855921891","0.17268550234644311","0","","","","","","","",""
"","html-keyboard-response","191","849602","0.0-103.0-1.0","""event"",""trial"",""time""
""fullscreenenter"",""0"",""3341""
","
","
","""event"",""trial"",""time""
""fullscreenenter"",""0"",""3341""
","
","null","<p></p>","null","","","","","","","","","","","","","","","","","","","","","","",""
"","do_trial","192","854566","0.0-104.0-0.0","""event"",""trial"",""time""
""fullscreenenter"",""0"",""3341""
","
","
","""event"",""trial"",""time""
""fullscreenenter"",""0"",""3341""
","
","416.1000000014901","","","","","","","","50","0,0,1","1","mountain","43","probe-87","0.37925050583971665","0.5332374939558053","0.13735055606408092","0","","","","","","","",""
"","html-keyboard-response","193","855578","0.0-104.0-1.0","""event"",""trial"",""time""
""fullscreenenter"",""0"",""3341""
","
","
","""event"",""trial"",""time""
""fullscreenenter"",""0"",""3341""
","
","null","<p></p>","null","","","","","","","","","","","","","","","","","","","","","","",""
"","do_trial","194","860372","0.0-105.0-0.0","""event"",""trial"",""time""
""fullscreenenter"",""0"",""3341""
","
","
","""event"",""trial"",""time""
""fullscreenenter"",""0"",""3341""
","
","234.90000000596046","","","","","","","","51","0,0,0","1","mountain","44","probe-43","0.1960589326462393","0.55020069977857","0.13223725632057476","0","","","","","","","",""
"","html-keyboard-response","195","861387","0.0-105.0-1.0","""event"",""trial"",""time""
""fullscreenenter"",""0"",""3341""
","
","
","""event"",""trial"",""time""
""fullscreenenter"",""0"",""3341""
","
","null","<p></p>","null","","","","","","","","","","","","","","","","","","","","","","",""
"","do_trial","196","867178","0.0-106.0-0.0","""event"",""trial"",""time""
""fullscreenenter"",""0"",""3341""
","
","
","""event"",""trial"",""time""
""fullscreenenter"",""0"",""3341""
","
","1240.5","","","","","","","","49","0,1,1","1","mountain","45","probe-187","0.2870471475522873","0.7501153118599103","0.11951598806857922","0","","","","","","","",""
"","html-keyboard-response","197","868197","0.0-106.0-1.0","""event"",""trial"",""time""
""fullscreenenter"",""0"",""3341""
","
","
","""event"",""trial"",""time""
""fullscreenenter"",""0"",""3341""
","
","null","<p></p>","null","","","","","","","","","","","","","","","","","","","","","","",""
"","do_trial","198","872767","0.0-107.0-0.0","""event"",""trial"",""time""
""fullscreenenter"",""0"",""3341""
","
","
","""event"",""trial"",""time""
""fullscreenenter"",""0"",""3341""
","
","0.09999999403953552","","","","","","","","51","0,1,0","1","mountain","46","probe-30","0.2158883724297354","0.8147777424886989","0.07737594332237738","0","","","","","","","",""
"","html-keyboard-response","199","873771","0.0-107.0-1.0","""event"",""trial"",""time""
""fullscreenenter"",""0"",""3341""
","
","
","""event"",""trial"",""time""
""fullscreenenter"",""0"",""3341""
","
","null","<p></p>","null","","","","","","","","","","","","","","","","","","","","","","",""
"","do_trial","200","878611","0.0-108.0-0.0","""event"",""trial"",""time""
""fullscreenenter"",""0"",""3341""
","
","
","""event"",""trial"",""time""
""fullscreenenter"",""0"",""3341""
","
","293.59999999403954","","","","","","","","50","0,1,1","1","mountain","47","probe-12","0.2527667700910101","0.9177071703728663","0.0696739265416392","1","","","","","","","",""
"","html-keyboard-response","201","879625","0.0-108.0-1.0","""event"",""trial"",""time""
""fullscreenenter"",""0"",""3341""
","
","
","""event"",""trial"",""time""
""fullscreenenter"",""0"",""3341""
","
","null","<p></p>","null","","","","","","","","","","","","","","","","","","","","","","",""
"","do_trial","202","884619","0.0-109.0-0.0","""event"",""trial"",""time""
""fullscreenenter"",""0"",""3341""
","
","
","""event"",""trial"",""time""
""fullscreenenter"",""0"",""3341""
","
","440.20000000298023","","","","","","","","51","0,1,0","1","mountain","48","probe-26","0.18764907158879865","0.8925584905657945","0.08874217272088492","0","","","","","","","",""
"","html-keyboard-response","203","885622","0.0-109.0-1.0","""event"",""trial"",""time""
""fullscreenenter"",""0"",""3341""
","
","
","""event"",""trial"",""time""
""fullscreenenter"",""0"",""3341""
","
","null","<p></p>","null","","","","","","","","","","","","","","","","","","","","","","",""
"","do_trial","204","890490","0.0-110.0-0.0","""event"",""trial"",""time""
""fullscreenenter"",""0"",""3341""
","
","
","""event"",""trial"",""time""
""fullscreenenter"",""0"",""3341""
","
","321","","","","","","","","49","0,1,1","1","mountain","49","probe-165","0.3122558318759362","0.7804191236075978","0.1343675425542118","0","","","","","","","",""
"","html-keyboard-response","205","891503","0.0-110.0-1.0","""event"",""trial"",""time""
""fullscreenenter"",""0"",""3341""
","
","
","""event"",""trial"",""time""
""fullscreenenter"",""0"",""3341""
","
","null","<p></p>","null","","","","","","","","","","","","","","","","","","","","","","",""
"","do_trial","206","896284","0.0-111.0-0.0","""event"",""trial"",""time""
""fullscreenenter"",""0"",""3341""
","
","
","""event"",""trial"",""time""
""fullscreenenter"",""0"",""3341""
","
","221.39999999850988","","","","","","","","51","1,1,0","1","mountain","50","probe-53","0.20628960696102852","0.6941115596738487","0.26653193929423","0","","","","","","","",""
"","html-keyboard-response","207","897298","0.0-111.0-1.0","""event"",""trial"",""time""
""fullscreenenter"",""0"",""3341""
","
","
","""event"",""trial"",""time""
""fullscreenenter"",""0"",""3341""
","
","null","<p></p>","null","","","","","","","","","","","","","","","","","","","","","","",""
"","do_trial","208","902593","0.0-112.0-0.0","""event"",""trial"",""time""
""fullscreenenter"",""0"",""3341""
","
","
","""event"",""trial"",""time""
""fullscreenenter"",""0"",""3341""
","
","739.7000000029802","","","","","","","","49","0,0,1","1","mountain","51","probe-156","0.18279270030985673","0.6307894455781982","0.20635297857235002","0","","","","","","","",""
"","html-keyboard-response","209","903601","0.0-112.0-1.0","""event"",""trial"",""time""
""fullscreenenter"",""0"",""3341""
","
","
","""event"",""trial"",""time""
""fullscreenenter"",""0"",""3341""
","
","null","<p></p>","null","","","","","","","","","","","","","","","","","","","","","","",""
"","do_trial","210","908537","0.0-113.0-0.0","""event"",""trial"",""time""
""fullscreenenter"",""0"",""3341""
","
","
","""event"",""trial"",""time""
""fullscreenenter"",""0"",""3341""
","
","382.6000000014901","","","","","","","","50","0,0,0","1","mountain","52","probe-168","0.2263120335675412","0.720756400318553","0.1796027829056136","0","","","","","","","",""
"","html-keyboard-response","211","909547","0.0-113.0-1.0","""event"",""trial"",""time""
""fullscreenenter"",""0"",""3341""
","
","
","""event"",""trial"",""time""
""fullscreenenter"",""0"",""3341""
","
","null","<p></p>","null","","","","","","","","","","","","","","","","","","","","","","",""
"","do_trial","212","915124","0.0-114.0-0.0","""event"",""trial"",""time""
""fullscreenenter"",""0"",""3341""
","
","
","""event"",""trial"",""time""
""fullscreenenter"",""0"",""3341""
","
","1027.7999999970198","","","","","","","","51","0,0,0","1","mountain","53","probe-173","0.19743301838436633","0.6395317164369311","0.13106492298478578","0","","","","","","","",""
"","html-keyboard-response","213","916155","0.0-114.0-1.0","""event"",""trial"",""time""
""fullscreenenter"",""0"",""3341""
","
","
","""event"",""trial"",""time""
""fullscreenenter"",""0"",""3341""
","
","null","<p></p>","null","","","","","","","","","","","","","","","","","","","","","","",""
"","do_trial","214","921123","0.0-115.0-0.0","""event"",""trial"",""time""
""fullscreenenter"",""0"",""3341""
","
","
","""event"",""trial"",""time""
""fullscreenenter"",""0"",""3341""
","
","392","","","","","","","","49","0,1,0","1","mountain","54","probe-179","0.18097417783759767","0.6300699270298936","0.13850845427501976","0","","","","","","","",""
"","html-keyboard-response","215","922146","0.0-115.0-1.0","""event"",""trial"",""time""
""fullscreenenter"",""0"",""3341""
","
","
","""event"",""trial"",""time""
""fullscreenenter"",""0"",""3341""
","
","null","<p></p>","null","","","","","","","","","","","","","","","","","","","","","","",""
"","do_trial","216","926985","0.0-116.0-0.0","""event"",""trial"",""time""
""fullscreenenter"",""0"",""3341""
","
","
","""event"",""trial"",""time""
""fullscreenenter"",""0"",""3341""
","
","287.5","","","","","","","","50","1,1,0","1","mountain","55","probe-163","0.31342768262806664","0.6988689694432633","0.09380724355030218","1","","","","","","","",""
"","html-keyboard-response","217","927988","0.0-116.0-1.0","""event"",""trial"",""time""
""fullscreenenter"",""0"",""3341""
","
","
","""event"",""trial"",""time""
""fullscreenenter"",""0"",""3341""
","
","null","<p></p>","null","","","","","","","","","","","","","","","","","","","","","","",""
"","do_trial","218","933778","0.0-117.0-0.0","""event"",""trial"",""time""
""fullscreenenter"",""0"",""3341""
","
","
","""event"",""trial"",""time""
""fullscreenenter"",""0"",""3341""
","
","1238.6000000014901","","","","","","","","49","1,1,0","1","mountain","56","probe-39","0.28226719445140425","0.7244448099121474","0.06327868872935044","1","","","","","","","",""
"","html-keyboard-response","219","934796","0.0-117.0-1.0","""event"",""trial"",""time""
""fullscreenenter"",""0"",""3341""
","
","
","""event"",""trial"",""time""
""fullscreenenter"",""0"",""3341""
","
","null","<p></p>","null","","","","","","","","","","","","","","","","","","","","","","",""
"","do_trial","220","939654","0.0-118.0-0.0","""event"",""trial"",""time""
""fullscreenenter"",""0"",""3341""
","
","
","""event"",""trial"",""time""
""fullscreenenter"",""0"",""3341""
","
","308.1000000014901","","","","","","","","51","0,0,0","1","mountain","57","probe-108","0.2859592744476278","0.6174413619272762","0.11713448102197287","0","","","","","","","",""
"","html-keyboard-response","221","940664","0.0-118.0-1.0","""event"",""trial"",""time""
""fullscreenenter"",""0"",""3341""
","
","
","""event"",""trial"",""time""
""fullscreenenter"",""0"",""3341""
","
","null","<p></p>","null","","","","","","","","","","","","","","","","","","","","","","",""
"","do_trial","222","945640","0.0-119.0-0.0","""event"",""trial"",""time""
""fullscreenenter"",""0"",""3341""
","
","
","""event"",""trial"",""time""
""fullscreenenter"",""0"",""3341""
","
","427.59999999403954","","","","","","","","50","0,1,0","1","mountain","58","probe-06","0.39689996153063234","0.645898992448299","0.06524383062300361","1","","","","","","","",""
"","html-keyboard-response","223","946644","0.0-119.0-1.0","""event"",""trial"",""time""
""fullscreenenter"",""0"",""3341""
","
","
","""event"",""trial"",""time""
""fullscreenenter"",""0"",""3341""
","
","null","<p></p>","null","","","","","","","","","","","","","","","","","","","","","","",""
"","do_trial","224","951516","0.0-120.0-0.0","""event"",""trial"",""time""
""fullscreenenter"",""0"",""3341""
","
","
","""event"",""trial"",""time""
""fullscreenenter"",""0"",""3341""
","
","324.79999999701977","","","","","","","","51","0,1,0","1","mountain","59","probe-17","0.3172276802296678","0.5447813204705707","0.06683149207415884","0","","","","","","","",""
"","html-keyboard-response","225","952528","0.0-120.0-1.0","""event"",""trial"",""time""
""fullscreenenter"",""0"",""3341""
","
","
","""event"",""trial"",""time""
""fullscreenenter"",""0"",""3341""
","
","null","<p></p>","null","","","","","","","","","","","","","","","","","","","","","","",""
"","do_trial","226","957504","0.0-121.0-0.0","""event"",""trial"",""time""
""fullscreenenter"",""0"",""3341""
","
","
","""event"",""trial"",""time""
""fullscreenenter"",""0"",""3341""
","
","434","","","","","","","","49","0,0,0","1","mountain","60","probe-209","0.19307227816218933","0.5890285925193657","0.13784412155186057","0","","","","","","","",""
"","html-keyboard-response","227","958519","0.0-121.0-1.0","""event"",""trial"",""time""
""fullscreenenter"",""0"",""3341""
","
","
","""event"",""trial"",""time""
""fullscreenenter"",""0"",""3341""
","
","null","<p></p>","null","","","","","","","","","","","","","","","","","","","","","","",""
"","do_trial","228","963482","0.0-122.0-0.0","""event"",""trial"",""time""
""fullscreenenter"",""0"",""3341""
","
","
","""event"",""trial"",""time""
""fullscreenenter"",""0"",""3341""
","
","405.20000000298023","","","","","","","","51","0,1,0","1","mountain","61","probe-44","0.3077936444005611","0.6649398367913123","0.07691122381240145","0","","","","","","","",""
"","html-keyboard-response","229","964493","0.0-122.0-1.0","""event"",""trial"",""time""
""fullscreenenter"",""0"",""3341""
","
","
","""event"",""trial"",""time""
""fullscreenenter"",""0"",""3341""
","
","null","<p></p>","null","","","","","","","","","","","","","","","","","","","","","","",""
"","do_trial","230","969357","0.0-123.0-0.0","""event"",""trial"",""time""
""fullscreenenter"",""0"",""3341""
","
","
","""event"",""trial"",""time""
""fullscreenenter"",""0"",""3341""
","
","308.29999999701977","","","","","","","","50","1,1,1","1","mountain","62","probe-150","0.3400880480864077","0.786908943088956","0.17516794515162412","1","","","","","","","",""
"","html-keyboard-response","231","970369","0.0-123.0-1.0","""event"",""trial"",""time""
""fullscreenenter"",""0"",""3341""
","
","
","""event"",""trial"",""time""
""fullscreenenter"",""0"",""3341""
","
","null","<p></p>","null","","","","","","","","","","","","","","","","","","","","","","",""
"","do_trial","232","975626","0.0-124.0-0.0","""event"",""trial"",""time""
""fullscreenenter"",""0"",""3341""
","
","
","""event"",""trial"",""time""
""fullscreenenter"",""0"",""3341""
","
","680.6000000014901","","","","","","","","51","0,1,0","1","mountain","63","probe-186","0.5257861330552934","0.684914580478357","0.062307437816914855","0","","","","","","","",""
"","html-keyboard-response","233","976630","0.0-124.0-1.0","""event"",""trial"",""time""
""fullscreenenter"",""0"",""3341""
","
","
","""event"",""trial"",""time""
""fullscreenenter"",""0"",""3341""
","
","null","<p></p>","null","","","","","","","","","","","","","","","","","","","","","","",""
"","do_trial","234","981702","0.0-125.0-0.0","""event"",""trial"",""time""
""fullscreenenter"",""0"",""3341""
","
","
","""event"",""trial"",""time""
""fullscreenenter"",""0"",""3341""
","
","529.7999999970198","","","","","","","","49","0,1,1","1","mountain","64","probe-105","0.4138987464191272","0.7311887037771974","0.10881941987355892","0","","","","","","","",""
"","html-keyboard-response","235","982717","0.0-125.0-1.0","""event"",""trial"",""time""
""fullscreenenter"",""0"",""3341""
","
","
","""event"",""trial"",""time""
""fullscreenenter"",""0"",""3341""
","
","null","<p></p>","null","","","","","","","","","","","","","","","","","","","","","","",""
"","do_trial","236","987676","0.0-126.0-0.0","""event"",""trial"",""time""
""fullscreenenter"",""0"",""3341""
","
","
","""event"",""trial"",""time""
""fullscreenenter"",""0"",""3341""
","
","409.19999999552965","","","","","","","","50","1,1,0","1","mountain","65","probe-228","0.284544152559349","0.6354617177103193","0.1196623362525958","1","","","","","","","",""
"","html-keyboard-response","237","988696","0.0-126.0-1.0","""event"",""trial"",""time""
""fullscreenenter"",""0"",""3341""
","
","
","""event"",""trial"",""time""
""fullscreenenter"",""0"",""3341""
","
","null","<p></p>","null","","","","","","","","","","","","","","","","","","","","","","",""
"","do_trial","238","994416","0.0-127.0-0.0","""event"",""trial"",""time""
""fullscreenenter"",""0"",""3341""
","
","
","""event"",""trial"",""time""
""fullscreenenter"",""0"",""3341""
","
","1162.9000000059605","","","","","","","","49","0,1,0","1","mountain","66","probe-128","0.3375884340471279","0.5287210806809145","0.23552000823596586","0","","","","","","","",""
"","html-keyboard-response","239","995432","0.0-127.0-1.0","""event"",""trial"",""time""
""fullscreenenter"",""0"",""3341""
","
","
","""event"",""trial"",""time""
""fullscreenenter"",""0"",""3341""
","
","null","<p></p>","null","","","","","","","","","","","","","","","","","","","","","","",""
"","do_trial","240","1000477","0.0-128.0-0.0","""event"",""trial"",""time""
""fullscreenenter"",""0"",""3341""
","
","
","""event"",""trial"",""time""
""fullscreenenter"",""0"",""3341""
","
","492.79999999701977","","","","","","","","51","1,1,1","1","mountain","67","probe-35","0.4101026290641723","0.5522287877537687","0.20895363428610084","1","","","","","","","",""
"","html-keyboard-response","241","1001490","0.0-128.0-1.0","""event"",""trial"",""time""
""fullscreenenter"",""0"",""3341""
","
","
","""event"",""trial"",""time""
""fullscreenenter"",""0"",""3341""
","
","null","<p></p>","null","","","","","","","","","","","","","","","","","","","","","","",""
"","do_trial","242","1006448","0.0-129.0-0.0","""event"",""trial"",""time""
""fullscreenenter"",""0"",""3341""
","
","
","""event"",""trial"",""time""
""fullscreenenter"",""0"",""3341""
","
","395.30000000447035","","","","","","","","49","1,1,0","1","mountain","68","probe-227","0.3782429705079601","0.638975101774264","0.0739672826584619","1","","","","","","","",""
"","html-keyboard-response","243","1007466","0.0-129.0-1.0","""event"",""trial"",""time""
""fullscreenenter"",""0"",""3341""
","
","
","""event"",""trial"",""time""
""fullscreenenter"",""0"",""3341""
","
","null","<p></p>","null","","","","","","","","","","","","","","","","","","","","","","",""
"","do_trial","244","1012356","0.0-130.0-0.0","""event"",""trial"",""time""
""fullscreenenter"",""0"",""3341""
","
","
","""event"",""trial"",""time""
""fullscreenenter"",""0"",""3341""
","
","334.1000000014901","","","","","","","","50","1,1,0","1","mountain","69","probe-58","0.5238332339920677","0.5266017130051813","0.10812049484213679","1","","","","","","","",""
"","html-keyboard-response","245","1013367","0.0-130.0-1.0","""event"",""trial"",""time""
""fullscreenenter"",""0"",""3341""
","
","
","""event"",""trial"",""time""
""fullscreenenter"",""0"",""3341""
","
","null","<p></p>","null","","","","","","","","","","","","","","","","","","","","","","",""
"","do_bye","246","1014889","0.0-131.0-0.0","""event"",""trial"",""time""
""fullscreenenter"",""0"",""3341""
","
","
","""event"",""trial"",""time""
""fullscreenenter"",""0"",""3341""
","
","null","","","","","","","","null","","","","","","","","","","","","","","","","",""
"","break","247","1019122","0.0-131.0-1.0","""event"",""trial"",""time""
""fullscreenenter"",""0"",""3341""
","
","
","""event"",""trial"",""time""
""fullscreenenter"",""0"",""3341""
","
","4229.29999999702","<div class='center'><p>Time to take a quick break! You have 2 minutes to rest, but you can move on sooner if you'd like.</p><p> Press the <b>space bar</b> to continue.</p></div>","32","","","","","","","","","","","","","","","","","","","","","","",""
"","do_travel","248","1028134","0.0-132.0-0.0","""event"",""trial"",""time""
""fullscreenenter"",""0"",""3341""
","
","
","""event"",""trial"",""time""
""fullscreenenter"",""0"",""3341""
","
","null","","","","","","","","null","","","","","","","","","","","","","","","","",""
"","do_welcome","249","1032154","0.0-132.0-1.0","""event"",""trial"",""time""
""fullscreenenter"",""0"",""3341""
","
","
","""event"",""trial"",""time""
""fullscreenenter"",""0"",""3341""
","
","null","","","","","","","","null","","","","","","","","","","","","","","","","",""
"","do_trial","250","1037665","0.0-133.0-0.0","""event"",""trial"",""time""
""fullscreenenter"",""0"",""3341""
","
","
","""event"",""trial"",""time""
""fullscreenenter"",""0"",""3341""
","
","930.3000000044703","","","","","","","","51","0,1,1","2","forest","70","probe-146","0.43331841991894965","1","0.22170756641431516","1","","","","","","","",""
"","html-keyboard-response","251","1038682","0.0-133.0-1.0","""event"",""trial"",""time""
""fullscreenenter"",""0"",""3341""
","
","
","""event"",""trial"",""time""
""fullscreenenter"",""0"",""3341""
","
","null","<p></p>","null","","","","","","","","","","","","","","","","","","","","","","",""
"","do_trial","252","1043772","0.0-134.0-0.0","""event"",""trial"",""time""
""fullscreenenter"",""0"",""3341""
","
","
","""event"",""trial"",""time""
""fullscreenenter"",""0"",""3341""
","
","527.7999999970198","","","","","","","","49","0,1,1","2","forest","71","probe-45","0.35100424842707845","1","0.1737453768473458","0","","","","","","","",""
"","html-keyboard-response","253","1044788","0.0-134.0-1.0","""event"",""trial"",""time""
""fullscreenenter"",""0"",""3341""
","
","
","""event"",""trial"",""time""
""fullscreenenter"",""0"",""3341""
","
","null","<p></p>","null","","","","","","","","","","","","","","","","","","","","","","",""
"","do_trial","254","1049571","0.0-135.0-0.0","""event"",""trial"",""time""
""fullscreenenter"",""0"",""3341""
","
","
","""event"",""trial"",""time""
""fullscreenenter"",""0"",""3341""
","
","202.5","","","","","","","","50","0,1,0","2","forest","72","probe-159","0.3565198082377162","0.9229793927551799","0.17628171011087532","1","","","","","","","",""
"","html-keyboard-response","255","1050596","0.0-135.0-1.0","""event"",""trial"",""time""
""fullscreenenter"",""0"",""3341""
","
","
","""event"",""trial"",""time""
""fullscreenenter"",""0"",""3341""
","
","null","<p></p>","null","","","","","","","","","","","","","","","","","","","","","","",""
"","do_trial","256","1055458","0.0-136.0-0.0","""event"",""trial"",""time""
""fullscreenenter"",""0"",""3341""
","
","
","""event"",""trial"",""time""
""fullscreenenter"",""0"",""3341""
","
","319.19999999552965","","","","","","","","51","0,0,0","2","forest","73","probe-194","0.4442749499261565","0.7274307246663158","0.20966710461546842","0","","","","","","","",""
"","html-keyboard-response","257","1056487","0.0-136.0-1.0","""event"",""trial"",""time""
""fullscreenenter"",""0"",""3341""
","
","
","""event"",""trial"",""time""
""fullscreenenter"",""0"",""3341""
","
","null","<p></p>","null","","","","","","","","","","","","","","","","","","","","","","",""
"","do_trial","258","1061629","0.0-137.0-0.0","""event"",""trial"",""time""
""fullscreenenter"",""0"",""3341""
","
","
","""event"",""trial"",""time""
""fullscreenenter"",""0"",""3341""
","
