"success","trial_type","trial_index","time_elapsed","internal_node_id","interactions","blur_events","focus_events","fullscreenenter_events","fullscreenexit_events","rt","stimulus","key_press","subject_id","participant_id","age","gender","prompt","response","choice_outcomes","context_n","context_img_id","trial_n","probe_img_id","pR_red","pR_white","pR_black","outcome","contextArray_ind","validImageProbes","invalidImageProbes","pRew_Red","pRew_White","pRew_Black","availableForMemProbe","choice_blocks"
"true","fullscreen","0","17851","0.0-0.0","""event"",""trial"",""time""
""fullscreenenter"",""0"",""16863""
","
","
","""event"",""trial"",""time""
""fullscreenenter"",""0"",""16863""
","
","","","","","","","","","","","","","","","","","","","","","","","","","",""
"","pavlovia","1","17855","0.0-1.0","""event"",""trial"",""time""
""fullscreenenter"",""0"",""16863""
","
","
","""event"",""trial"",""time""
""fullscreenenter"",""0"",""16863""
","
","","","","","","","","","","","","","","","","","","","","","","","","","",""
"","instruc1","2","62985","0.0-2.0","""event"",""trial"",""time""
""fullscreenenter"",""0"",""16863""
","
","
","""event"",""trial"",""time""
""fullscreenenter"",""0"",""16863""
","
","null","run_exp/static/audio/clip_1_welcome.m4a","null","376","","24","female","<div class='center'><p>Welcome! This is the first part of the study. It will last ~30 minutes. In part 1 and part 2 of the study, you are the head captain of a pirate ship traveling around the world to different islands. You will play a few different games throughout these two parts. Here is an overview of them:</p><br><p>Part 1 (today)</p><p>1. Instructions, practice game, and quiz</p><p>2. Pick a pirate game on 6 different islands</p><br><p>Part 2 (tomorrow)</p><p>3. Pick a pirate game and memory game</p><p>4. Where did you see this ship? </p></div>","","","","","","","","","","","","","","","","","",""
"","html-keyboard-response","3","67077","0.0-3.0","""event"",""trial"",""time""
""fullscreenenter"",""0"",""16863""
","
","
","""event"",""trial"",""time""
""fullscreenenter"",""0"",""16863""
","
","4091","<div class='center'><p>Welcome! This is the first part of the study. It will last ~30 minutes. In part 1 and part 2 of the study, you are the head captain of a pirate ship traveling around the world to different islands. You will play a few different games throughout these two parts. Here is an overview of them:</p><br><p>Part 1 (today)</p><p>1. Instructions, practice game, and quiz</p><p>2. Pick a pirate game on 6 different islands</p><br><p>Part 2 (tomorrow)</p><p>3. Pick a pirate game and memory game</p><p>4. Where did you see this ship? </p><p><b>[Press the space bar to continue]</b></p></div>","32","","","","","","","","","","","","","","","","","","","","","","",""
"","instruc2","4","72384","0.0-4.0","""event"",""trial"",""time""
""fullscreenenter"",""0"",""16863""
","
","
","""event"",""trial"",""time""
""fullscreenenter"",""0"",""16863""
","
","null","run_exp/static/audio/clip_2_different_places.m4a","null","","","","","<div class='center'><p>Today, you’ll visit these 6 islands on your journey. You'll be able to see these islands from your ship.</p><p><img src='run_exp/static/images/contexts/all_contexts.png' height='500'></p></div>","","","","","","","","","","","","","","","","","",""
"","html-keyboard-response","5","75236","0.0-5.0","""event"",""trial"",""time""
""fullscreenenter"",""0"",""16863""
","
","
","""event"",""trial"",""time""
""fullscreenenter"",""0"",""16863""
","
","2850.6000000089407","<div class='center'><p>Today, you’ll visit these 6 islands on your journey. You'll be able to see these islands from your ship.</p><p><img src='run_exp/static/images/contexts/all_contexts.png' height='500'></p><p><b>[Press the space bar to continue]</b></p></div>","32","","","","","","","","","","","","","","","","","","","","","","",""
"","instruc3","6","84944","0.0-6.0","""event"",""trial"",""time""
""fullscreenenter"",""0"",""16863""
","
","
","""event"",""trial"",""time""
""fullscreenenter"",""0"",""16863""
","
","null","run_exp/static/audio/clip_3_goal_of_game_1.m4a","null","","","","","<div class='center'><p> The pirates on your ship will rob other ships as they leave the island.</p> These ships have just sold their goods to the islanders, so they will be filled with lots and lots of gold.</p><p><img src='run_exp/static/images/tutorial/ship_center.png' height='400'></p></div>","","","","","","","","","","","","","","","","","",""
"","html-keyboard-response","7","87683","0.0-7.0","""event"",""trial"",""time""
""fullscreenenter"",""0"",""16863""
","
","
","""event"",""trial"",""time""
""fullscreenenter"",""0"",""16863""
","
","2737.8999999910593","<div class='center'><p> The pirates on your ship will rob other ships as they leave the island.</p> These ships have just sold their goods to the islanders, so they will be filled with lots and lots of gold.</p><p><img src='run_exp/static/images/tutorial/ship_center.png' height='400'></p><p><b>[Press the space bar to continue]</b></p></div>","32","","","","","","","","","","","","","","","","","","","","","","",""
"","instruc4","8","115686","0.0-8.0","""event"",""trial"",""time""
""fullscreenenter"",""0"",""16863""
","
","
","""event"",""trial"",""time""
""fullscreenenter"",""0"",""16863""
","
","null","run_exp/static/audio/clip_4_goal_of_game_2.m4a","null","","","","","<div class='center'><p>As the head captain, you do not have to rob any ships yourself. Another pirate will be doing the robbing for you. First, you will choose a pirate to rob the next ship.</p><p><img src='run_exp/static/images/tutorial/pirates_all_crop.png' height='200'></p><p>Then, you'll see if the pirate successfully robbed the ship of their gold. If they were successful, then you'll get a stack of gold coins like this:</p><p><img src='run_exp/static/images/tutorial/reward.png' height='150'></p><p> If they were <b>not</b> successful, then you'll get no gold coins, and you'll see a big red x like this: </p><p><img src='run_exp/static/images/tutorial/reward_no.png' height='150'></p><p> How much bonus money you make is based on how many gold coins you collect.</p><div>","","","","","","","","","","","","","","","","","",""
"","html-keyboard-response","9","120087","0.0-9.0","""event"",""trial"",""time""
""fullscreenenter"",""0"",""16863""
""blur"",""10"",""173709""
""focus"",""10"",""178029""
","""event"",""trial"",""time""
""blur"",""10"",""173709""
","""event"",""trial"",""time""
""focus"",""10"",""178029""
","""event"",""trial"",""time""
""fullscreenenter"",""0"",""16863""
","
","4398.0999999940395","<div class='center'><p>As the head captain, you do not have to rob any ships yourself. Another pirate will be doing the robbing for you. First, you will choose a pirate to rob the next ship.</p><p><img src='run_exp/static/images/tutorial/pirates_all_crop.png' height='200'></p><p>Then, you'll see if the pirate successfully robbed the ship of their gold. If they were successful, then you'll get a stack of gold coins like this:</p><p><img src='run_exp/static/images/tutorial/reward.png' height='150'></p><p> If they were <b>not</b> successful, then you'll get no gold coins, and you'll see a big red x like this: </p><p><img src='run_exp/static/images/tutorial/reward_no.png' height='150'></p><p> How much bonus money you make is based on how many gold coins you collect.</p<p><b>[Press the space bar to continue]</b></p></div>","32","","","","","","","","","","","","","","","","","","","","","","",""
"","instruc5","10","182192","0.0-10.0","""event"",""trial"",""time""
""fullscreenenter"",""0"",""16863""
""blur"",""10"",""173709""
""focus"",""10"",""178029""
","""event"",""trial"",""time""
""blur"",""10"",""173709""
","""event"",""trial"",""time""
""focus"",""10"",""178029""
","""event"",""trial"",""time""
""fullscreenenter"",""0"",""16863""
","
","62103.79999999702","run_exp/static/audio/clip_5_probabilistic.m4a","49","","","","","<div class='center'><p>Even the most skilled pirate can not rob EVERY ship.</p><p> Some ships will have very strong protections against pirate attacks.</p><p> Blue beard, here, is very, very good at robbing ships, but he won't be successful every time he tries to rob one.</p><p> You can press the <b>‘1’</b> key on the keyboard to choose him.</p><p> Try choosing him 10 times to see how often he succeeds at robbing a ship. </p><p><img src='run_exp/static/images/tutorial/blue.png' height='500'></p></div>","","","","","","","","","","","","","","","","","",""
"","html-keyboard-response","11","183696","0.0-11.0","""event"",""trial"",""time""
""fullscreenenter"",""0"",""16863""
""blur"",""10"",""173709""
""focus"",""10"",""178029""
","""event"",""trial"",""time""
""blur"",""10"",""173709""
","""event"",""trial"",""time""
""focus"",""10"",""178029""
","""event"",""trial"",""time""
""fullscreenenter"",""0"",""16863""
","
","null","<div class='center'><p><img src='run_exp/static/images/tutorial/blue_win.png' height='500'></p></div>","null","","","","","","","","","","","","","","","","","","","","","","",""
"","html-keyboard-response","12","183702","0.0-12.0","""event"",""trial"",""time""
""fullscreenenter"",""0"",""16863""
""blur"",""10"",""173709""
""focus"",""10"",""178029""
","""event"",""trial"",""time""
""blur"",""10"",""173709""
","""event"",""trial"",""time""
""focus"",""10"",""178029""
","""event"",""trial"",""time""
""fullscreenenter"",""0"",""16863""
","
","4.5999999940395355","<div class='center'><img src='run_exp/static/images/tutorial/blue.png' height='500'></p></div>","49","","","","","","","","","","","","","","","","","","","","","","",""
"","html-keyboard-response","13","185204","0.0-13.0","""event"",""trial"",""time""
""fullscreenenter"",""0"",""16863""
""blur"",""10"",""173709""
""focus"",""10"",""178029""
","""event"",""trial"",""time""
""blur"",""10"",""173709""
","""event"",""trial"",""time""
""focus"",""10"",""178029""
","""event"",""trial"",""time""
""fullscreenenter"",""0"",""16863""
","
","null","<div class='center'><p><img src='run_exp/static/images/tutorial/blue_win.png' height='500'></p></div>","null","","","","","","","","","","","","","","","","","","","","","","",""
"","html-keyboard-response","14","185939","0.0-14.0","""event"",""trial"",""time""
""fullscreenenter"",""0"",""16863""
""blur"",""10"",""173709""
""focus"",""10"",""178029""
","""event"",""trial"",""time""
""blur"",""10"",""173709""
","""event"",""trial"",""time""
""focus"",""10"",""178029""
","""event"",""trial"",""time""
""fullscreenenter"",""0"",""16863""
","
","733.8999999910593","<div class='center'><img src='run_exp/static/images/tutorial/blue.png' height='500'></p></div>","49","","","","","","","","","","","","","","","","","","","","","","",""
"","html-keyboard-response","15","187446","0.0-15.0","""event"",""trial"",""time""
""fullscreenenter"",""0"",""16863""
""blur"",""10"",""173709""
""focus"",""10"",""178029""
","""event"",""trial"",""time""
""blur"",""10"",""173709""
","""event"",""trial"",""time""
""focus"",""10"",""178029""
","""event"",""trial"",""time""
""fullscreenenter"",""0"",""16863""
","
","null","<div class='center'><p><img src='run_exp/static/images/tutorial/blue_win.png' height='500'></p></div>","null","","","","","","","","","","","","","","","","","","","","","","",""
"","html-keyboard-response","16","187660","0.0-16.0","""event"",""trial"",""time""
""fullscreenenter"",""0"",""16863""
""blur"",""10"",""173709""
""focus"",""10"",""178029""
","""event"",""trial"",""time""
""blur"",""10"",""173709""
","""event"",""trial"",""time""
""focus"",""10"",""178029""
","""event"",""trial"",""time""
""fullscreenenter"",""0"",""16863""
","
","212.8999999910593","<div class='center'><img src='run_exp/static/images/tutorial/blue.png' height='500'></p></div>","49","","","","","","","","","","","","","","","","","","","","","","",""
"","html-keyboard-response","17","189172","0.0-17.0","""event"",""trial"",""time""
""fullscreenenter"",""0"",""16863""
""blur"",""10"",""173709""
""focus"",""10"",""178029""
","""event"",""trial"",""time""
""blur"",""10"",""173709""
","""event"",""trial"",""time""
""focus"",""10"",""178029""
","""event"",""trial"",""time""
""fullscreenenter"",""0"",""16863""
","
","null","<div class='center'><p><img src='run_exp/static/images/tutorial/blue_no_win.png' height='500'></p></div>","null","","","","","","","","","","","","","","","","","","","","","","",""
"","html-keyboard-response","18","190067","0.0-18.0","""event"",""trial"",""time""
""fullscreenenter"",""0"",""16863""
""blur"",""10"",""173709""
""focus"",""10"",""178029""
","""event"",""trial"",""time""
""blur"",""10"",""173709""
","""event"",""trial"",""time""
""focus"",""10"",""178029""
","""event"",""trial"",""time""
""fullscreenenter"",""0"",""16863""
","
","893.7000000029802","<div class='center'><img src='run_exp/static/images/tutorial/blue.png' height='500'></p></div>","49","","","","","","","","","","","","","","","","","","","","","","",""
"","html-keyboard-response","19","191580","0.0-19.0","""event"",""trial"",""time""
""fullscreenenter"",""0"",""16863""
""blur"",""10"",""173709""
""focus"",""10"",""178029""
","""event"",""trial"",""time""
""blur"",""10"",""173709""
","""event"",""trial"",""time""
""focus"",""10"",""178029""
","""event"",""trial"",""time""
""fullscreenenter"",""0"",""16863""
","
","null","<div class='center'><p><img src='run_exp/static/images/tutorial/blue_win.png' height='500'></p></div>","null","","","","","","","","","","","","","","","","","","","","","","",""
"","html-keyboard-response","20","192246","0.0-20.0","""event"",""trial"",""time""
""fullscreenenter"",""0"",""16863""
""blur"",""10"",""173709""
""focus"",""10"",""178029""
","""event"",""trial"",""time""
""blur"",""10"",""173709""
","""event"",""trial"",""time""
""focus"",""10"",""178029""
","""event"",""trial"",""time""
""fullscreenenter"",""0"",""16863""
","
","665","<div class='center'><img src='run_exp/static/images/tutorial/blue.png' height='500'></p></div>","49","","","","","","","","","","","","","","","","","","","","","","",""
"","html-keyboard-response","21","193757","0.0-21.0","""event"",""trial"",""time""
""fullscreenenter"",""0"",""16863""
""blur"",""10"",""173709""
""focus"",""10"",""178029""
","""event"",""trial"",""time""
""blur"",""10"",""173709""
","""event"",""trial"",""time""
""focus"",""10"",""178029""
","""event"",""trial"",""time""
""fullscreenenter"",""0"",""16863""
","
","null","<div class='center'><p><img src='run_exp/static/images/tutorial/blue_win.png' height='500'></p></div>","null","","","","","","","","","","","","","","","","","","","","","","",""
"","html-keyboard-response","22","195087","0.0-22.0","""event"",""trial"",""time""
""fullscreenenter"",""0"",""16863""
""blur"",""10"",""173709""
""focus"",""10"",""178029""
","""event"",""trial"",""time""
""blur"",""10"",""173709""
","""event"",""trial"",""time""
""focus"",""10"",""178029""
","""event"",""trial"",""time""
""fullscreenenter"",""0"",""16863""
","
","1329.9000000059605","<div class='center'><img src='run_exp/static/images/tutorial/blue.png' height='500'></p></div>","49","","","","","","","","","","","","","","","","","","","","","","",""
"","html-keyboard-response","23","196599","0.0-23.0","""event"",""trial"",""time""
""fullscreenenter"",""0"",""16863""
""blur"",""10"",""173709""
""focus"",""10"",""178029""
","""event"",""trial"",""time""
""blur"",""10"",""173709""
","""event"",""trial"",""time""
""focus"",""10"",""178029""
","""event"",""trial"",""time""
""fullscreenenter"",""0"",""16863""
","
","null","<div class='center'><p><img src='run_exp/static/images/tutorial/blue_win.png' height='500'></p></div>","null","","","","","","","","","","","","","","","","","","","","","","",""
"","html-keyboard-response","24","196890","0.0-24.0","""event"",""trial"",""time""
""fullscreenenter"",""0"",""16863""
""blur"",""10"",""173709""
""focus"",""10"",""178029""
","""event"",""trial"",""time""
""blur"",""10"",""173709""
","""event"",""trial"",""time""
""focus"",""10"",""178029""
","""event"",""trial"",""time""
""fullscreenenter"",""0"",""16863""
","
","289.90000000596046","<div class='center'><img src='run_exp/static/images/tutorial/blue.png' height='500'></p></div>","49","","","","","","","","","","","","","","","","","","","","","","",""
"","html-keyboard-response","25","198404","0.0-25.0","""event"",""trial"",""time""
""fullscreenenter"",""0"",""16863""
""blur"",""10"",""173709""
""focus"",""10"",""178029""
","""event"",""trial"",""time""
""blur"",""10"",""173709""
","""event"",""trial"",""time""
""focus"",""10"",""178029""
","""event"",""trial"",""time""
""fullscreenenter"",""0"",""16863""
","
","null","<div class='center'><p><img src='run_exp/static/images/tutorial/blue_no_win.png' height='500'></p></div>","null","","","","","","","","","","","","","","","","","","","","","","",""
"","html-keyboard-response","26","198767","0.0-26.0","""event"",""trial"",""time""
""fullscreenenter"",""0"",""16863""
""blur"",""10"",""173709""
""focus"",""10"",""178029""
","""event"",""trial"",""time""
""blur"",""10"",""173709""
","""event"",""trial"",""time""
""focus"",""10"",""178029""
","""event"",""trial"",""time""
""fullscreenenter"",""0"",""16863""
","
","362","<div class='center'><img src='run_exp/static/images/tutorial/blue.png' height='500'></p></div>","49","","","","","","","","","","","","","","","","","","","","","","",""
"","html-keyboard-response","27","200279","0.0-27.0","""event"",""trial"",""time""
""fullscreenenter"",""0"",""16863""
""blur"",""10"",""173709""
""focus"",""10"",""178029""
","""event"",""trial"",""time""
""blur"",""10"",""173709""
","""event"",""trial"",""time""
""focus"",""10"",""178029""
","""event"",""trial"",""time""
""fullscreenenter"",""0"",""16863""
","
","null","<div class='center'><p><img src='run_exp/static/images/tutorial/blue_win.png' height='500'></p></div>","null","","","","","","","","","","","","","","","","","","","","","","",""
"","html-keyboard-response","28","200887","0.0-28.0","""event"",""trial"",""time""
""fullscreenenter"",""0"",""16863""
""blur"",""10"",""173709""
""focus"",""10"",""178029""
","""event"",""trial"",""time""
""blur"",""10"",""173709""
","""event"",""trial"",""time""
""focus"",""10"",""178029""
","""event"",""trial"",""time""
""fullscreenenter"",""0"",""16863""
","
","607.2000000029802","<div class='center'><img src='run_exp/static/images/tutorial/blue.png' height='500'></p></div>","49","","","","","","","","","","","","","","","","","","","","","","",""
"","html-keyboard-response","29","202402","0.0-29.0","""event"",""trial"",""time""
""fullscreenenter"",""0"",""16863""
""blur"",""10"",""173709""
""focus"",""10"",""178029""
","""event"",""trial"",""time""
""blur"",""10"",""173709""
","""event"",""trial"",""time""
""focus"",""10"",""178029""
","""event"",""trial"",""time""
""fullscreenenter"",""0"",""16863""
","
","null","<div class='center'><p><img src='run_exp/static/images/tutorial/blue_win.png' height='500'></p></div>","null","","","","","","","","","","","","","","","","","","","","","","",""
"","instruc6","30","207899","0.0-30.0","""event"",""trial"",""time""
""fullscreenenter"",""0"",""16863""
""blur"",""10"",""173709""
""focus"",""10"",""178029""
","""event"",""trial"",""time""
""blur"",""10"",""173709""
","""event"",""trial"",""time""
""focus"",""10"",""178029""
","""event"",""trial"",""time""
""fullscreenenter"",""0"",""16863""
","
","null","run_exp/static/audio/clip_6_blue_beard_outcome.m4a","null","","","","","<div class='center'><p> See, he succeeded in robbing the ships most of the time but not every time. </p></div>","","","","","","","","","","","","","","","","","",""
"","html-keyboard-response","31","209783","0.0-31.0","""event"",""trial"",""time""
""fullscreenenter"",""0"",""16863""
""blur"",""10"",""173709""
""focus"",""10"",""178029""
","""event"",""trial"",""time""
""blur"",""10"",""173709""
","""event"",""trial"",""time""
""focus"",""10"",""178029""
","""event"",""trial"",""time""
""fullscreenenter"",""0"",""16863""
","
","1883.7000000029802","<div class='center'><p> See, he succeeded in robbing the ships most of the time but not every time. </p><p><b>[Press the space bar to continue]</b></p></div>","32","","","","","","","","","","","","","","","","","","","","","","",""
"","audio-keyboard-response","32","224590","0.0-32.0","""event"",""trial"",""time""
""fullscreenenter"",""0"",""16863""
""blur"",""10"",""173709""
""focus"",""10"",""178029""
","""event"",""trial"",""time""
""blur"",""10"",""173709""
","""event"",""trial"",""time""
""focus"",""10"",""178029""
","""event"",""trial"",""time""
""fullscreenenter"",""0"",""16863""
","
","14805.5","run_exp/static/audio/clip_7_pick_pirate.m4a","50","","","","","","","","","","","","","","","","","","","","","","",""
"","audio-keyboard-response","33","226777","0.0-33.0-0.0","""event"",""trial"",""time""
""fullscreenenter"",""0"",""16863""
""blur"",""10"",""173709""
""focus"",""10"",""178029""
","""event"",""trial"",""time""
""blur"",""10"",""173709""
","""event"",""trial"",""time""
""focus"",""10"",""178029""
","""event"",""trial"",""time""
""fullscreenenter"",""0"",""16863""
","
","2184.800000011921","run_exp/static/audio/clip_8_chosen_pirate_win.m4a","32","","","","","","","","","","","","","","","","","","","","","","",""
"","audio-keyboard-response","34","228300","0.0-33.0-1.0","""event"",""trial"",""time""
""fullscreenenter"",""0"",""16863""
""blur"",""10"",""173709""
""focus"",""10"",""178029""
","""event"",""trial"",""time""
""blur"",""10"",""173709""
","""event"",""trial"",""time""
""focus"",""10"",""178029""
","""event"",""trial"",""time""
""fullscreenenter"",""0"",""16863""
","
","1522.2999999970198","run_exp/static/audio/clip_9_pick_a_pirate_again.m4a","51","","","","","","","","","","","","","","","","","","","","","","",""
"","audio-keyboard-response","35","229795","0.0-34.0-0.0","""event"",""trial"",""time""
""fullscreenenter"",""0"",""16863""
""blur"",""10"",""173709""
""focus"",""10"",""178029""
","""event"",""trial"",""time""
""blur"",""10"",""173709""
","""event"",""trial"",""time""
""focus"",""10"",""178029""
","""event"",""trial"",""time""
""fullscreenenter"",""0"",""16863""
","
","1493","run_exp/static/audio/clip_10_chosen_pirate_loss.m4a","32","","","","","","","","","","","","","","","","","","","","","","",""
"","instruc9","36","235298","0.0-35.0-0.0","""event"",""trial"",""time""
""fullscreenenter"",""0"",""16863""
""blur"",""10"",""173709""
""focus"",""10"",""178029""
","""event"",""trial"",""time""
""blur"",""10"",""173709""
","""event"",""trial"",""time""
""focus"",""10"",""178029""
","""event"",""trial"",""time""
""fullscreenenter"",""0"",""16863""
","
","null","run_exp/static/audio/clip_11_time_out.m4a","null","","","","","<div class='center'><p>If you don’t make your choice fast enough, you’ll have to wait a few seconds before you can make another one. </p><p><img src='run_exp/static/images/miscellaneous/hurry_up.png' height='500'></p></div>","","","","","","","","","","","","","","","","","",""
"","html-keyboard-response","37","236641","0.0-35.0-1.0","""event"",""trial"",""time""
""fullscreenenter"",""0"",""16863""
""blur"",""10"",""173709""
""focus"",""10"",""178029""
""blur"",""38"",""259573""
""focus"",""38"",""266012""
","""event"",""trial"",""time""
""blur"",""10"",""173709""
""blur"",""38"",""259573""
","""event"",""trial"",""time""
""focus"",""10"",""178029""
""focus"",""38"",""266012""
","""event"",""trial"",""time""
""fullscreenenter"",""0"",""16863""
","
","1341.7999999970198","<div class='center'><p>If you don’t make your choice fast enough, you’ll have to wait a few seconds before you can make another one. </p><p><img src='run_exp/static/images/miscellaneous/hurry_up.png' height='500'></p><p><b>[Press the space bar to continue]</b></p></div>","32","","","","","","","","","","","","","","","","","","","","","","",""
"","instruc10","38","275738","0.0-35.0-2.0","""event"",""trial"",""time""
""fullscreenenter"",""0"",""16863""
""blur"",""10"",""173709""
""focus"",""10"",""178029""
""blur"",""38"",""259573""
""focus"",""38"",""266012""
","""event"",""trial"",""time""
""blur"",""10"",""173709""
""blur"",""38"",""259573""
","""event"",""trial"",""time""
""focus"",""10"",""178029""
""focus"",""38"",""266012""
","""event"",""trial"",""time""
""fullscreenenter"",""0"",""16863""
","
","null","run_exp/static/audio/clip_12_probe.m4a","null","","","","","<div class='center'><p>Once you've chosen a pirate, you’ll be shown the ship they are robbing. You will never rob the same ship twice. Ships can be told apart from one another by the image on them. These are the goods that they sell. See, this ship has a travel mug on it. </p><p> You’ll have to remember which island you saw each ship on. You will win more gold coins and hence more bonus money if you remember correctly! To help you remember, you can imagine a story. For example, here, you could imagine a mug full of water in the desert. Or, as another example, if on the forest island, your pirate robbed a ship with an apple on it, you could imagine an apple falling from a tree in the forest. </p><p><img src='run_exp/static/images/tutorial/example_probe.png' height='500'></p></div>","","","","","","","","","","","","","","","","","",""
"","html-keyboard-response","39","279375","0.0-35.0-3.0","""event"",""trial"",""time""
""fullscreenenter"",""0"",""16863""
""blur"",""10"",""173709""
""focus"",""10"",""178029""
""blur"",""38"",""259573""
""focus"",""38"",""266012""
","""event"",""trial"",""time""
""blur"",""10"",""173709""
""blur"",""38"",""259573""
","""event"",""trial"",""time""
""focus"",""10"",""178029""
""focus"",""38"",""266012""
","""event"",""trial"",""time""
""fullscreenenter"",""0"",""16863""
","
","3636","<div class='center'><p>Once you've chosen a pirate, you’ll be shown the ship they are robbing. You will never rob the same ship twice. Ships can be told apart from one another by the image on them. These are the goods that they sell. See, this ship has a travel mug on it. </p><p> You’ll have to remember which island you saw each ship on. You will win more gold coins and hence more bonus money if you remember correctly! To help you remember, you can imagine a story. For example, here, you could imagine a mug full of water in the desert. Or, as another example, if on the forest island, your pirate robbed a ship with an apple on it, you could imagine an apple falling from a tree in the forest. </p><p><img src='run_exp/static/images/tutorial/example_probe.png' height='500'></p><p><b>[Press the space bar to continue]</b></p></div>","32","","","","","","","","","","","","","","","","","","","","","","",""
"","instruc11","40","295778","0.0-35.0-4.0","""event"",""trial"",""time""
""fullscreenenter"",""0"",""16863""
""blur"",""10"",""173709""
""focus"",""10"",""178029""
""blur"",""38"",""259573""
""focus"",""38"",""266012""
","""event"",""trial"",""time""
""blur"",""10"",""173709""
""blur"",""38"",""259573""
","""event"",""trial"",""time""
""focus"",""10"",""178029""
""focus"",""38"",""266012""
","""event"",""trial"",""time""
""fullscreenenter"",""0"",""16863""
","
","null","run_exp/static/audio/clip_13_changepoint.m4a","null","","","","","<div class='center'><p>How successful a pirate is at robbing ships will depend on the island you’re on.</p><p> A pirate may have visited this island many times before and gained a lot of practice robbing ships there.</p><p>So, they’re more likely to be successful than a pirate who has never visited the island before.</p></div>","","","","","","","","","","","","","","","","","",""
"","html-keyboard-response","41","297631","0.0-35.0-5.0","""event"",""trial"",""time""
""fullscreenenter"",""0"",""16863""
""blur"",""10"",""173709""
""focus"",""10"",""178029""
""blur"",""38"",""259573""
""focus"",""38"",""266012""
","""event"",""trial"",""time""
""blur"",""10"",""173709""
""blur"",""38"",""259573""
","""event"",""trial"",""time""
""focus"",""10"",""178029""
""focus"",""38"",""266012""
","""event"",""trial"",""time""
""fullscreenenter"",""0"",""16863""
","
","1852.2000000029802","<div class='center'><p>How successful a pirate is at robbing ships will depend on the island you’re on.</p><p> A pirate may have visited this island many times before and gained a lot of practice robbing ships there.</p><p>So, they’re more likely to be successful than a pirate who has never visited the island before.</p><p><b>[Press the space bar to continue]</b></p></div>","32","","","","","","","","","","","","","","","","","","","","","","",""
"","instruc12","42","338718","0.0-35.0-6.0","""event"",""trial"",""time""
""fullscreenenter"",""0"",""16863""
""blur"",""10"",""173709""
""focus"",""10"",""178029""
""blur"",""38"",""259573""
""focus"",""38"",""266012""
","""event"",""trial"",""time""
""blur"",""10"",""173709""
""blur"",""38"",""259573""
","""event"",""trial"",""time""
""focus"",""10"",""178029""
""focus"",""38"",""266012""
","""event"",""trial"",""time""
""fullscreenenter"",""0"",""16863""
","
","null","run_exp/static/audio/clip_14_drift.m4a","null","","","","","<div class='center'><p>How successful a pirate is at robbing ships can also change over the time spent on the island. </p><p> Ships may hear from islanders about the pirates coming and will improve their protections against the attack. This may make it harder to rob them.</p><p> Ships may also become lazy and weaken the strength of their protections. This may make it easier to rob them.</p><br><p>Things are always changing on the high seas! So, try your best to pay attention!</p><p><img src='run_exp/static/images/tutorial/contingency.png' height='500'></p></div>","","","","","","","","","","","","","","","","","",""
"","html-keyboard-response","43","342243","0.0-35.0-7.0","""event"",""trial"",""time""
""fullscreenenter"",""0"",""16863""
""blur"",""10"",""173709""
""focus"",""10"",""178029""
""blur"",""38"",""259573""
""focus"",""38"",""266012""
","""event"",""trial"",""time""
""blur"",""10"",""173709""
""blur"",""38"",""259573""
","""event"",""trial"",""time""
""focus"",""10"",""178029""
""focus"",""38"",""266012""
","""event"",""trial"",""time""
""fullscreenenter"",""0"",""16863""
","
","3523.5","<div class='center'><p>How successful a pirate is at robbing ships can also change over the time spent on the island. </p><p> Ships may hear from islanders about the pirates coming and will improve their protections against the attack. This may make it harder to rob them.</p><p> Ships may also become lazy and weaken the strength of their protections. This may make it easier to rob them.</p><br><p>Things are always changing on the high seas! So, try your best to pay attention!</p><p><img src='run_exp/static/images/tutorial/contingency.png' height='500'></p><p><b>[Press the space bar to continue]</b></p></div>","32","","","","","","","","","","","","","","","","","","","","","","",""
"","instruc13","44","377438","0.0-35.0-8.0","""event"",""trial"",""time""
""fullscreenenter"",""0"",""16863""
""blur"",""10"",""173709""
""focus"",""10"",""178029""
""blur"",""38"",""259573""
""focus"",""38"",""266012""
","""event"",""trial"",""time""
""blur"",""10"",""173709""
""blur"",""38"",""259573""
","""event"",""trial"",""time""
""focus"",""10"",""178029""
""focus"",""38"",""266012""
","""event"",""trial"",""time""
""fullscreenenter"",""0"",""16863""
","
","null","run_exp/static/audio/clip_15_summary.m4a","null","","","","","<div class='center'><p>Let's go over the instructions quickly again. You have two important things to do: </p><b><p> 1. Pick the pirate who is the best at robbing ships on the current island. </p></b><b><p> 2. Remember on which island a ship was robbed.</p> </b><p>The amount of bonus money you can win depends on both.</p><p><br><p>Let’s try a practice game. The game will start by showing you the pirates. First, pick a pirate using the <b> 1, 2, 3 </b> keys on your keyboard. When you are shown a ship, try to remember which island you’re on by making up a story.</p><p>This is just a practice game, so you’re not playing for money. </p><p> Good luck! This game will be very difficult but try your best!</p></div>","","","","","","","","","","","","","","","","","",""
"","html-keyboard-response","45","378664","0.0-35.0-9.0","""event"",""trial"",""time""
""fullscreenenter"",""0"",""16863""
""blur"",""10"",""173709""
""focus"",""10"",""178029""
""blur"",""38"",""259573""
""focus"",""38"",""266012""
","""event"",""trial"",""time""
""blur"",""10"",""173709""
""blur"",""38"",""259573""
","""event"",""trial"",""time""
""focus"",""10"",""178029""
""focus"",""38"",""266012""
","""event"",""trial"",""time""
""fullscreenenter"",""0"",""16863""
","
","1225","<div class='center'><p>Let's go over the instructions quickly again. You have two important things to do: </p><b><p> 1. Pick the pirate who is the best at robbing ships on the current island. </p></b><b><p> 2. Remember on which island a ship was robbed.</p> </b><p>The amount of bonus money you can win depends on both.</p><p><br><p>Let’s try a practice game. The game will start by showing you the pirates. First, pick a pirate using the <b> 1, 2, 3 </b> keys on your keyboard. When you are shown a ship, try to remember which island you’re on by making up a story.</p><p>This is just a practice game, so you’re not playing for money. </p><p> Good luck! This game will be very difficult but try your best!</p><p><b>[Press the space bar to continue]</b></p></div>","32","","","","","","","","","","","","","","","","","","","","","","",""
"","do_welcome","46","382687","0.0-35.0-10.0","""event"",""trial"",""time""
""fullscreenenter"",""0"",""16863""
""blur"",""10"",""173709""
""focus"",""10"",""178029""
""blur"",""38"",""259573""
""focus"",""38"",""266012""
","""event"",""trial"",""time""
""blur"",""10"",""173709""
""blur"",""38"",""259573""
","""event"",""trial"",""time""
""focus"",""10"",""178029""
""focus"",""38"",""266012""
","""event"",""trial"",""time""
""fullscreenenter"",""0"",""16863""
","
","null","","","","","","","","null","","","","","","","","","","","","","","","","",""
"","do_trial","47","389728","0.0-35.0-11.0","""event"",""trial"",""time""
""fullscreenenter"",""0"",""16863""
""blur"",""10"",""173709""
""focus"",""10"",""178029""
""blur"",""38"",""259573""
""focus"",""38"",""266012""
","""event"",""trial"",""time""
""blur"",""10"",""173709""
""blur"",""38"",""259573""
","""event"",""trial"",""time""
""focus"",""10"",""178029""
""focus"",""38"",""266012""
","""event"",""trial"",""time""
""fullscreenenter"",""0"",""16863""
","
","2522.8999999910593","","","","","","","","51","1,0,0","","","","","","","","","","","","","","","",""
"","html-keyboard-response","48","390748","0.0-36.0-0.0","""event"",""trial"",""time""
""fullscreenenter"",""0"",""16863""
""blur"",""10"",""173709""
""focus"",""10"",""178029""
""blur"",""38"",""259573""
""focus"",""38"",""266012""
","""event"",""trial"",""time""
""blur"",""10"",""173709""
""blur"",""38"",""259573""
","""event"",""trial"",""time""
""focus"",""10"",""178029""
""focus"",""38"",""266012""
","""event"",""trial"",""time""
""fullscreenenter"",""0"",""16863""
","
","null","<p></p>","null","","","","","","","","","","","","","","","","","","","","","","",""
"","do_trial","49","396645","0.0-36.0-1.0","""event"",""trial"",""time""
""fullscreenenter"",""0"",""16863""
""blur"",""10"",""173709""
""focus"",""10"",""178029""
""blur"",""38"",""259573""
""focus"",""38"",""266012""
","""event"",""trial"",""time""
""blur"",""10"",""173709""
""blur"",""38"",""259573""
","""event"",""trial"",""time""
""focus"",""10"",""178029""
""focus"",""38"",""266012""
","""event"",""trial"",""time""
""fullscreenenter"",""0"",""16863""
","
","1380","","","","","","","","50","1,1,0","","","","","","","","","","","","","","","",""
"","html-keyboard-response","50","397662","0.0-37.0-0.0","""event"",""trial"",""time""
""fullscreenenter"",""0"",""16863""
""blur"",""10"",""173709""
""focus"",""10"",""178029""
""blur"",""38"",""259573""
""focus"",""38"",""266012""
","""event"",""trial"",""time""
""blur"",""10"",""173709""
""blur"",""38"",""259573""
","""event"",""trial"",""time""
""focus"",""10"",""178029""
""focus"",""38"",""266012""
","""event"",""trial"",""time""
""fullscreenenter"",""0"",""16863""
","
","null","<p></p>","null","","","","","","","","","","","","","","","","","","","","","","",""
"","do_trial","51","403184","0.0-37.0-1.0","""event"",""trial"",""time""
""fullscreenenter"",""0"",""16863""
""blur"",""10"",""173709""
""focus"",""10"",""178029""
""blur"",""38"",""259573""
""focus"",""38"",""266012""
","""event"",""trial"",""time""
""blur"",""10"",""173709""
""blur"",""38"",""259573""
","""event"",""trial"",""time""
""focus"",""10"",""178029""
""focus"",""38"",""266012""
","""event"",""trial"",""time""
""fullscreenenter"",""0"",""16863""
","
","1013.5999999940395","","","","","","","","50","1,0,1","","","","","","","","","","","","","","","",""
"","html-keyboard-response","52","404187","0.0-38.0-0.0","""event"",""trial"",""time""
""fullscreenenter"",""0"",""16863""
""blur"",""10"",""173709""
""focus"",""10"",""178029""
""blur"",""38"",""259573""
""focus"",""38"",""266012""
","""event"",""trial"",""time""
""blur"",""10"",""173709""
""blur"",""38"",""259573""
","""event"",""trial"",""time""
""focus"",""10"",""178029""
""focus"",""38"",""266012""
","""event"",""trial"",""time""
""fullscreenenter"",""0"",""16863""
","
","null","<p></p>","null","","","","","","","","","","","","","","","","","","","","","","",""
"","do_trial","53","409128","0.0-38.0-1.0","""event"",""trial"",""time""
""fullscreenenter"",""0"",""16863""
""blur"",""10"",""173709""
""focus"",""10"",""178029""
""blur"",""38"",""259573""
""focus"",""38"",""266012""
","""event"",""trial"",""time""
""blur"",""10"",""173709""
""blur"",""38"",""259573""
","""event"",""trial"",""time""
""focus"",""10"",""178029""
""focus"",""38"",""266012""
","""event"",""trial"",""time""
""fullscreenenter"",""0"",""16863""
","
","432.79999999701977","","","","","","","","49","0,1,0","","","","","","","","","","","","","","","",""
"","html-keyboard-response","54","410132","0.0-39.0-0.0","""event"",""trial"",""time""
""fullscreenenter"",""0"",""16863""
""blur"",""10"",""173709""
""focus"",""10"",""178029""
""blur"",""38"",""259573""
""focus"",""38"",""266012""
","""event"",""trial"",""time""
""blur"",""10"",""173709""
""blur"",""38"",""259573""
","""event"",""trial"",""time""
""focus"",""10"",""178029""
""focus"",""38"",""266012""
","""event"",""trial"",""time""
""fullscreenenter"",""0"",""16863""
","
","null","<p></p>","null","","","","","","","","","","","","","","","","","","","","","","",""
"","do_trial","55","415153","0.0-39.0-1.0","""event"",""trial"",""time""
""fullscreenenter"",""0"",""16863""
""blur"",""10"",""173709""
""focus"",""10"",""178029""
""blur"",""38"",""259573""
""focus"",""38"",""266012""
","""event"",""trial"",""time""
""blur"",""10"",""173709""
""blur"",""38"",""259573""
","""event"",""trial"",""time""
""focus"",""10"",""178029""
""focus"",""38"",""266012""
","""event"",""trial"",""time""
""fullscreenenter"",""0"",""16863""
","
","504.09999999403954","","","","","","","","50","1,0,0","","","","","","","","","","","","","","","",""
"","do_bye","56","416674","0.0-40.0-0.0","""event"",""trial"",""time""
""fullscreenenter"",""0"",""16863""
""blur"",""10"",""173709""
""focus"",""10"",""178029""
""blur"",""38"",""259573""
""focus"",""38"",""266012""
","""event"",""trial"",""time""
""blur"",""10"",""173709""
""blur"",""38"",""259573""
","""event"",""trial"",""time""
""focus"",""10"",""178029""
""focus"",""38"",""266012""
","""event"",""trial"",""time""
""fullscreenenter"",""0"",""16863""
","
","null","","","","","","","","null","","","","","","","","","","","","","","","","",""
"","do_travel","57","425682","0.0-40.0-1.0","""event"",""trial"",""time""
""fullscreenenter"",""0"",""16863""
""blur"",""10"",""173709""
""focus"",""10"",""178029""
""blur"",""38"",""259573""
""focus"",""38"",""266012""
","""event"",""trial"",""time""
""blur"",""10"",""173709""
""blur"",""38"",""259573""
","""event"",""trial"",""time""
""focus"",""10"",""178029""
""focus"",""38"",""266012""
","""event"",""trial"",""time""
""fullscreenenter"",""0"",""16863""
","
","null","","","","","","","","null","","","","","","","","","","","","","","","","",""
"","do_welcome","58","429692","0.0-40.0-2.0","""event"",""trial"",""time""
""fullscreenenter"",""0"",""16863""
""blur"",""10"",""173709""
""focus"",""10"",""178029""
""blur"",""38"",""259573""
""focus"",""38"",""266012""
","""event"",""trial"",""time""
""blur"",""10"",""173709""
""blur"",""38"",""259573""
","""event"",""trial"",""time""
""focus"",""10"",""178029""
""focus"",""38"",""266012""
","""event"",""trial"",""time""
""fullscreenenter"",""0"",""16863""
","
","null","","","","","","","","null","","","","","","","","","","","","","","","","",""
"","do_trial","59","434983","0.0-40.0-3.0","""event"",""trial"",""time""
""fullscreenenter"",""0"",""16863""
""blur"",""10"",""173709""
""focus"",""10"",""178029""
""blur"",""38"",""259573""
""focus"",""38"",""266012""
","""event"",""trial"",""time""
""blur"",""10"",""173709""
""blur"",""38"",""259573""
","""event"",""trial"",""time""
""focus"",""10"",""178029""
""focus"",""38"",""266012""
","""event"",""trial"",""time""
""fullscreenenter"",""0"",""16863""
","
","778.5999999940395","","","","","","","","49","1,0,0","","","","","","","","","","","","","","","",""
"","html-keyboard-response","60","435992","0.0-41.0-0.0","""event"",""trial"",""time""
""fullscreenenter"",""0"",""16863""
""blur"",""10"",""173709""
""focus"",""10"",""178029""
""blur"",""38"",""259573""
""focus"",""38"",""266012""
","""event"",""trial"",""time""
""blur"",""10"",""173709""
""blur"",""38"",""259573""
","""event"",""trial"",""time""
""focus"",""10"",""178029""
""focus"",""38"",""266012""
","""event"",""trial"",""time""
""fullscreenenter"",""0"",""16863""
","
","null","<p></p>","null","","","","","","","","","","","","","","","","","","","","","","",""
"","do_trial","61","440930","0.0-41.0-1.0","""event"",""trial"",""time""
""fullscreenenter"",""0"",""16863""
""blur"",""10"",""173709""
""focus"",""10"",""178029""
""blur"",""38"",""259573""
""focus"",""38"",""266012""
","""event"",""trial"",""time""
""blur"",""10"",""173709""
""blur"",""38"",""259573""
","""event"",""trial"",""time""
""focus"",""10"",""178029""
""focus"",""38"",""266012""
","""event"",""trial"",""time""
""fullscreenenter"",""0"",""16863""
","
","410.1000000089407","","","","","","","","50","1,0,1","","","","","","","","","","","","","","","",""
"","html-keyboard-response","62","441939","0.0-42.0-0.0","""event"",""trial"",""time""
""fullscreenenter"",""0"",""16863""
""blur"",""10"",""173709""
""focus"",""10"",""178029""
""blur"",""38"",""259573""
""focus"",""38"",""266012""
","""event"",""trial"",""time""
""blur"",""10"",""173709""
""blur"",""38"",""259573""
","""event"",""trial"",""time""
""focus"",""10"",""178029""
""focus"",""38"",""266012""
","""event"",""trial"",""time""
""fullscreenenter"",""0"",""16863""
","
","null","<p></p>","null","","","","","","","","","","","","","","","","","","","","","","",""
"","do_trial","63","446540","0.0-42.0-1.0","""event"",""trial"",""time""
""fullscreenenter"",""0"",""16863""
""blur"",""10"",""173709""
""focus"",""10"",""178029""
""blur"",""38"",""259573""
""focus"",""38"",""266012""
","""event"",""trial"",""time""
""blur"",""10"",""173709""
""blur"",""38"",""259573""
","""event"",""trial"",""time""
""focus"",""10"",""178029""
""focus"",""38"",""266012""
","""event"",""trial"",""time""
""fullscreenenter"",""0"",""16863""
","
","89.69999998807907","","","","","","","","50","1,1,0","","","","","","","","","","","","","","","",""
"","html-keyboard-response","64","447544","0.0-43.0-0.0","""event"",""trial"",""time""
""fullscreenenter"",""0"",""16863""
""blur"",""10"",""173709""
""focus"",""10"",""178029""
""blur"",""38"",""259573""
""focus"",""38"",""266012""
","""event"",""trial"",""time""
""blur"",""10"",""173709""
""blur"",""38"",""259573""
","""event"",""trial"",""time""
""focus"",""10"",""178029""
""focus"",""38"",""266012""
","""event"",""trial"",""time""
""fullscreenenter"",""0"",""16863""
","
","null","<p></p>","null","","","","","","","","","","","","","","","","","","","","","","",""
"","do_trial","65","452192","0.0-43.0-1.0","""event"",""trial"",""time""
""fullscreenenter"",""0"",""16863""
""blur"",""10"",""173709""
""focus"",""10"",""178029""
""blur"",""38"",""259573""
""focus"",""38"",""266012""
","""event"",""trial"",""time""
""blur"",""10"",""173709""
""blur"",""38"",""259573""
","""event"",""trial"",""time""
""focus"",""10"",""178029""
""focus"",""38"",""266012""
","""event"",""trial"",""time""
""fullscreenenter"",""0"",""16863""
","
","126.6000000089407","","","","","","","","51","0,0,1","","","","","","","","","","","","","","","",""
"","html-keyboard-response","66","453195","0.0-44.0-0.0","""event"",""trial"",""time""
""fullscreenenter"",""0"",""16863""
""blur"",""10"",""173709""
""focus"",""10"",""178029""
""blur"",""38"",""259573""
""focus"",""38"",""266012""
","""event"",""trial"",""time""
""blur"",""10"",""173709""
""blur"",""38"",""259573""
","""event"",""trial"",""time""
""focus"",""10"",""178029""
""focus"",""38"",""266012""
","""event"",""trial"",""time""
""fullscreenenter"",""0"",""16863""
","
","null","<p></p>","null","","","","","","","","","","","","","","","","","","","","","","",""
"","do_trial","67","457967","0.0-44.0-1.0","""event"",""trial"",""time""
""fullscreenenter"",""0"",""16863""
""blur"",""10"",""173709""
""focus"",""10"",""178029""
""blur"",""38"",""259573""
""focus"",""38"",""266012""
","""event"",""trial"",""time""
""blur"",""10"",""173709""
""blur"",""38"",""259573""
","""event"",""trial"",""time""
""focus"",""10"",""178029""
""focus"",""38"",""266012""
","""event"",""trial"",""time""
""fullscreenenter"",""0"",""16863""
","
","254.09999999403954","","","","","","","","49","1,0,1","","","","","","","","","","","","","","","",""
"","html-keyboard-response","68","461191","0.0-45.0-0.0","""event"",""trial"",""time""
""fullscreenenter"",""0"",""16863""
""blur"",""10"",""173709""
""focus"",""10"",""178029""
""blur"",""38"",""259573""
""focus"",""38"",""266012""
","""event"",""trial"",""time""
""blur"",""10"",""173709""
""blur"",""38"",""259573""
","""event"",""trial"",""time""
""focus"",""10"",""178029""
""focus"",""38"",""266012""
","""event"",""trial"",""time""
""fullscreenenter"",""0"",""16863""
","
","3222.5","<div class='center'><p><img src='run_exp/static/images/tutorial/prac_best_pirate.png'  height='500'></p></div>","51","","","","","","","","","","","","","","","","","","","","","","",""
"","html-keyboard-response","69","462744","0.0-46.0-0.0","""event"",""trial"",""time""
""fullscreenenter"",""0"",""16863""
""blur"",""10"",""173709""
""focus"",""10"",""178029""
""blur"",""38"",""259573""
""focus"",""38"",""266012""
","""event"",""trial"",""time""
""blur"",""10"",""173709""
""blur"",""38"",""259573""
","""event"",""trial"",""time""
""focus"",""10"",""178029""
""focus"",""38"",""266012""
","""event"",""trial"",""time""
""fullscreenenter"",""0"",""16863""
","
","1550.5","<div class='center'><p>That's incorrect! Red beard was the best.</p><p><b>[Press the space bar to continue]</b></p></div>","32","","","","","","","","","","","","","","","","","","","","","","",""
"","html-keyboard-response","70","465573","0.0-46.0-1.0","""event"",""trial"",""time""
""fullscreenenter"",""0"",""16863""
""blur"",""10"",""173709""
""focus"",""10"",""178029""
""blur"",""38"",""259573""
""focus"",""38"",""266012""
","""event"",""trial"",""time""
""blur"",""10"",""173709""
""blur"",""38"",""259573""
","""event"",""trial"",""time""
""focus"",""10"",""178029""
""focus"",""38"",""266012""
","""event"",""trial"",""time""
""fullscreenenter"",""0"",""16863""
","
","2828.4000000059605","<div class='center'><p><img src='run_exp/static/images/tutorial/prac_source.png'  height='500'></p></div>","50","","","","","","","","","","","","","","","","","","","","","","",""
"","html-keyboard-response","71","466599","0.0-47.0-0.0","""event"",""trial"",""time""
""fullscreenenter"",""0"",""16863""
""blur"",""10"",""173709""
""focus"",""10"",""178029""
""blur"",""38"",""259573""
""focus"",""38"",""266012""
","""event"",""trial"",""time""
""blur"",""10"",""173709""
""blur"",""38"",""259573""
","""event"",""trial"",""time""
""focus"",""10"",""178029""
""focus"",""38"",""266012""
","""event"",""trial"",""time""
""fullscreenenter"",""0"",""16863""
","
","1025.0999999940395","<div class='center'><p>That's correct! You saw this ship on the cavern island.</p><p><b>[Press the space bar to continue]</b></p></div>","32","","","","","","","","","","","","","","","","","","","","","","",""
"","quiz_beginning","72","477959","0.0-47.0-1.0","""event"",""trial"",""time""
""fullscreenenter"",""0"",""16863""
""blur"",""10"",""173709""
""focus"",""10"",""178029""
""blur"",""38"",""259573""
""focus"",""38"",""266012""
","""event"",""trial"",""time""
""blur"",""10"",""173709""
""blur"",""38"",""259573""
","""event"",""trial"",""time""
""focus"",""10"",""178029""
""focus"",""38"",""266012""
","""event"",""trial"",""time""
""fullscreenenter"",""0"",""16863""
","
","null","run_exp/static/audio/clip_16_quiz_intro.m4a","null","","","","","<div class='center'><p>Good job on the practice game! Now, you will be asked some true or false questions to make sure you really understand the rules of the game.</p><p> Press <b>'1'</b> on the keyboard for true and press <b>'2'</b> for false.</p></div>","","","","","","","","","","","","","","","","","",""
"","audio-keyboard-response","73","480823","0.0-47.0-2.0","""event"",""trial"",""time""
""fullscreenenter"",""0"",""16863""
""blur"",""10"",""173709""
""focus"",""10"",""178029""
""blur"",""38"",""259573""
""focus"",""38"",""266012""
","""event"",""trial"",""time""
""blur"",""10"",""173709""
""blur"",""38"",""259573""
","""event"",""trial"",""time""
""focus"",""10"",""178029""
""focus"",""38"",""266012""
","""event"",""trial"",""time""
""fullscreenenter"",""0"",""16863""
","
","2861.0999999940395","run_exp/static/audio/clip_17_q1.m4a","49","","","","","","","","","","","","","","","","","","","","","","",""
"","correct","74","483239","0.0-48.0-0.0","""event"",""trial"",""time""
""fullscreenenter"",""0"",""16863""
""blur"",""10"",""173709""
""focus"",""10"",""178029""
""blur"",""38"",""259573""
""focus"",""38"",""266012""
","""event"",""trial"",""time""
""blur"",""10"",""173709""
""blur"",""38"",""259573""
","""event"",""trial"",""time""
""focus"",""10"",""178029""
""focus"",""38"",""266012""
","""event"",""trial"",""time""
""fullscreenenter"",""0"",""16863""
","
","null","run_exp/static/audio/clip_18_correct.m4a","null","","","","","<div class='center'><p>That's correct!</p></div>","","","","","","","","","","","","","","","","","",""
"","html-keyboard-response","75","484029","0.0-48.0-1.0","""event"",""trial"",""time""
""fullscreenenter"",""0"",""16863""
""blur"",""10"",""173709""
""focus"",""10"",""178029""
""blur"",""38"",""259573""
""focus"",""38"",""266012""
","""event"",""trial"",""time""
""blur"",""10"",""173709""
""blur"",""38"",""259573""
","""event"",""trial"",""time""
""focus"",""10"",""178029""
""focus"",""38"",""266012""
","""event"",""trial"",""time""
""fullscreenenter"",""0"",""16863""
","
","787.7000000029802","<div class='center'><p>That's correct!</p><p><b>[Press the space bar to continue]</b></p></div>","32","","","","","","","","","","","","","","","","","","","","","","",""
"","audio-keyboard-response","76","487098","0.0-48.0-2.0","""event"",""trial"",""time""
""fullscreenenter"",""0"",""16863""
""blur"",""10"",""173709""
""focus"",""10"",""178029""
""blur"",""38"",""259573""
""focus"",""38"",""266012""
","""event"",""trial"",""time""
""blur"",""10"",""173709""
""blur"",""38"",""259573""
","""event"",""trial"",""time""
""focus"",""10"",""178029""
""focus"",""38"",""266012""
","""event"",""trial"",""time""
""fullscreenenter"",""0"",""16863""
","
","3067.7000000029802","run_exp/static/audio/clip_20_q2.m4a","50","","","","","","","","","","","","","","","","","","","","","","",""
"","correct","77","489499","0.0-49.0-0.0","""event"",""trial"",""time""
""fullscreenenter"",""0"",""16863""
""blur"",""10"",""173709""
""focus"",""10"",""178029""
""blur"",""38"",""259573""
""focus"",""38"",""266012""
","""event"",""trial"",""time""
""blur"",""10"",""173709""
""blur"",""38"",""259573""
","""event"",""trial"",""time""
""focus"",""10"",""178029""
""focus"",""38"",""266012""
","""event"",""trial"",""time""
""fullscreenenter"",""0"",""16863""
","
","null","run_exp/static/audio/clip_18_correct.m4a","null","","","","","<div class='center'><p>That's correct!</p></div>","","","","","","","","","","","","","","","","","",""
"","html-keyboard-response","78","489890","0.0-49.0-1.0","""event"",""trial"",""time""
""fullscreenenter"",""0"",""16863""
""blur"",""10"",""173709""
""focus"",""10"",""178029""
""blur"",""38"",""259573""
""focus"",""38"",""266012""
","""event"",""trial"",""time""
""blur"",""10"",""173709""
""blur"",""38"",""259573""
","""event"",""trial"",""time""
""focus"",""10"",""178029""
""focus"",""38"",""266012""
","""event"",""trial"",""time""
""fullscreenenter"",""0"",""16863""
","
","389.90000000596046","<div class='center'><p>That's correct!</p><p><b>[Press the space bar to continue]</b></p></div>","32","","","","","","","","","","","","","","","","","","","","","","",""
"","audio-keyboard-response","79","492889","0.0-49.0-2.0","""event"",""trial"",""time""
""fullscreenenter"",""0"",""16863""
""blur"",""10"",""173709""
""focus"",""10"",""178029""
""blur"",""38"",""259573""
""focus"",""38"",""266012""
","""event"",""trial"",""time""
""blur"",""10"",""173709""
""blur"",""38"",""259573""
","""event"",""trial"",""time""
""focus"",""10"",""178029""
""focus"",""38"",""266012""
","""event"",""trial"",""time""
""fullscreenenter"",""0"",""16863""
","
","2998.2000000029802","run_exp/static/audio/clip_22_q3.m4a","50","","","","","","","","","","","","","","","","","","","","","","",""
"","correct","80","495279","0.0-50.0-0.0","""event"",""trial"",""time""
""fullscreenenter"",""0"",""16863""
""blur"",""10"",""173709""
""focus"",""10"",""178029""
""blur"",""38"",""259573""
""focus"",""38"",""266012""
","""event"",""trial"",""time""
""blur"",""10"",""173709""
""blur"",""38"",""259573""
","""event"",""trial"",""time""
""focus"",""10"",""178029""
""focus"",""38"",""266012""
","""event"",""trial"",""time""
""fullscreenenter"",""0"",""16863""
","
","null","run_exp/static/audio/clip_18_correct.m4a","null","","","","","<div class='center'><p>That's correct!</p></div>","","","","","","","","","","","","","","","","","",""
"","html-keyboard-response","81","495612","0.0-50.0-1.0","""event"",""trial"",""time""
""fullscreenenter"",""0"",""16863""
""blur"",""10"",""173709""
""focus"",""10"",""178029""
""blur"",""38"",""259573""
""focus"",""38"",""266012""
","""event"",""trial"",""time""
""blur"",""10"",""173709""
""blur"",""38"",""259573""
","""event"",""trial"",""time""
""focus"",""10"",""178029""
""focus"",""38"",""266012""
","""event"",""trial"",""time""
""fullscreenenter"",""0"",""16863""
","
","332.29999999701977","<div class='center'><p>That's correct!</p><p><b>[Press the space bar to continue]</b></p></div>","32","","","","","","","","","","","","","","","","","","","","","","",""
"","audio-keyboard-response","82","497384","0.0-50.0-2.0","""event"",""trial"",""time""
""fullscreenenter"",""0"",""16863""
""blur"",""10"",""173709""
""focus"",""10"",""178029""
""blur"",""38"",""259573""
""focus"",""38"",""266012""
","""event"",""trial"",""time""
""blur"",""10"",""173709""
""blur"",""38"",""259573""
","""event"",""trial"",""time""
""focus"",""10"",""178029""
""focus"",""38"",""266012""
","""event"",""trial"",""time""
""fullscreenenter"",""0"",""16863""
","
","1770.800000011921","run_exp/static/audio/clip_24_q4.m4a","49","","","","","","","","","","","","","","","","","","","","","","",""
"","correct","83","499819","0.0-51.0-0.0","""event"",""trial"",""time""
""fullscreenenter"",""0"",""16863""
""blur"",""10"",""173709""
""focus"",""10"",""178029""
""blur"",""38"",""259573""
""focus"",""38"",""266012""
","""event"",""trial"",""time""
""blur"",""10"",""173709""
""blur"",""38"",""259573""
","""event"",""trial"",""time""
""focus"",""10"",""178029""
""focus"",""38"",""266012""
","""event"",""trial"",""time""
""fullscreenenter"",""0"",""16863""
","
","null","run_exp/static/audio/clip_18_correct.m4a","null","","","","","<div class='center'><p>That's correct!</p></div>","","","","","","","","","","","","","","","","","",""
"","html-keyboard-response","84","500197","0.0-51.0-1.0","""event"",""trial"",""time""
""fullscreenenter"",""0"",""16863""
""blur"",""10"",""173709""
""focus"",""10"",""178029""
""blur"",""38"",""259573""
""focus"",""38"",""266012""
","""event"",""trial"",""time""
""blur"",""10"",""173709""
""blur"",""38"",""259573""
","""event"",""trial"",""time""
""focus"",""10"",""178029""
""focus"",""38"",""266012""
","""event"",""trial"",""time""
""fullscreenenter"",""0"",""16863""
","
","376.09999999403954","<div class='center'><p>That's correct!</p><p><b>[Press the space bar to continue]</b></p></div>","32","","","","","","","","","","","","","","","","","","","","","","",""
"","q_all_corr","85","508679","0.0-52.0-0.0","""event"",""trial"",""time""
""fullscreenenter"",""0"",""16863""
""blur"",""10"",""173709""
""focus"",""10"",""178029""
""blur"",""38"",""259573""
""focus"",""38"",""266012""
","""event"",""trial"",""time""
""blur"",""10"",""173709""
""blur"",""38"",""259573""
","""event"",""trial"",""time""
""focus"",""10"",""178029""
""focus"",""38"",""266012""
","""event"",""trial"",""time""
""fullscreenenter"",""0"",""16863""
","
","null","run_exp/static/audio/clip_27_quiz_all_correct.m4a","null","","","","","<div class='center'><p>Good job! You’re now ready to move on to the real game! Remember this game will be difficult but don't get discouraged and try your best!</p></div>","","","","","","","","","","","","","","","","","",""
"","html-keyboard-response","86","509672","0.0-52.0-1.0","""event"",""trial"",""time""
""fullscreenenter"",""0"",""16863""
""blur"",""10"",""173709""
""focus"",""10"",""178029""
""blur"",""38"",""259573""
""focus"",""38"",""266012""
","""event"",""trial"",""time""
""blur"",""10"",""173709""
""blur"",""38"",""259573""
","""event"",""trial"",""time""
""focus"",""10"",""178029""
""focus"",""38"",""266012""
","""event"",""trial"",""time""
""fullscreenenter"",""0"",""16863""
","
","991.9000000059605","<div class='center'><p>Good job! You’re now ready to move on to the real game! Remember this game will be difficult but don't get discouraged and try your best!</p><p><b>[Press the space bar to continue]</b></p></div>","32","","","","","","","","","","","","","","","","","","","","","","",""
"","do_welcome","87","513688","0.0-53.0-0.0","""event"",""trial"",""time""
""fullscreenenter"",""0"",""16863""
""blur"",""10"",""173709""
""focus"",""10"",""178029""
""blur"",""38"",""259573""
""focus"",""38"",""266012""
","""event"",""trial"",""time""
""blur"",""10"",""173709""
""blur"",""38"",""259573""
","""event"",""trial"",""time""
""focus"",""10"",""178029""
""focus"",""38"",""266012""
","""event"",""trial"",""time""
""fullscreenenter"",""0"",""16863""
","
","null","","","","","","","","null","","","","","","","","","","","","","","","","",""
"","do_trial","88","519067","0.0-54.0-0.0","""event"",""trial"",""time""
""fullscreenenter"",""0"",""16863""
""blur"",""10"",""173709""
""focus"",""10"",""178029""
""blur"",""38"",""259573""
""focus"",""38"",""266012""
","""event"",""trial"",""time""
""blur"",""10"",""173709""
""blur"",""38"",""259573""
","""event"",""trial"",""time""
""focus"",""10"",""178029""
""focus"",""38"",""266012""
","""event"",""trial"",""time""
""fullscreenenter"",""0"",""16863""
","
","812","","","","","","","","50","1,1,0","0","forest","0","probe-200","0.6","0.3","0.1","1","","","","","","","",""
"","html-keyboard-response","89","520088","0.0-54.0-1.0","""event"",""trial"",""time""
""fullscreenenter"",""0"",""16863""
""blur"",""10"",""173709""
""focus"",""10"",""178029""
""blur"",""38"",""259573""
""focus"",""38"",""266012""
","""event"",""trial"",""time""
""blur"",""10"",""173709""
""blur"",""38"",""259573""
","""event"",""trial"",""time""
""focus"",""10"",""178029""
""focus"",""38"",""266012""
","""event"",""trial"",""time""
""fullscreenenter"",""0"",""16863""
","
","null","<p></p>","null","","","","","","","","","","","","","","","","","","","","","","",""
"","do_trial","90","524823","0.0-55.0-0.0","""event"",""trial"",""time""
""fullscreenenter"",""0"",""16863""
""blur"",""10"",""173709""
""focus"",""10"",""178029""
""blur"",""38"",""259573""
""focus"",""38"",""266012""
","""event"",""trial"",""time""
""blur"",""10"",""173709""
""blur"",""38"",""259573""
","""event"",""trial"",""time""
""focus"",""10"",""178029""
""focus"",""38"",""266012""
","""event"",""trial"",""time""
""fullscreenenter"",""0"",""16863""
","
","197.90000000596046","","","","","","","","51","0,1,0","0","forest","1","probe-14","0.6337098489048995","0.24872077653361963","0.341202507657385","0","","","","","","","",""
"","html-keyboard-response","91","525825","0.0-55.0-1.0","""event"",""trial"",""time""
""fullscreenenter"",""0"",""16863""
""blur"",""10"",""173709""
""focus"",""10"",""178029""
""blur"",""38"",""259573""
""focus"",""38"",""266012""
","""event"",""trial"",""time""
""blur"",""10"",""173709""
""blur"",""38"",""259573""
","""event"",""trial"",""time""
""focus"",""10"",""178029""
""focus"",""38"",""266012""
","""event"",""trial"",""time""
""fullscreenenter"",""0"",""16863""
","
","null","<p></p>","null","","","","","","","","","","","","","","","","","","","","","","",""
"","do_trial","92","530842","0.0-56.0-0.0","""event"",""trial"",""time""
""fullscreenenter"",""0"",""16863""
""blur"",""10"",""173709""
""focus"",""10"",""178029""
""blur"",""38"",""259573""
""focus"",""38"",""266012""
","""event"",""trial"",""time""
""blur"",""10"",""173709""
""blur"",""38"",""259573""
","""event"",""trial"",""time""
""focus"",""10"",""178029""
""focus"",""38"",""266012""
","""event"",""trial"",""time""
""fullscreenenter"",""0"",""16863""
","
","461.29999999701977","","","","","","","","49","1,0,1","0","forest","2","probe-146","0.6121024756145521","0.2583541082042176","0.25718580547053305","1","","","","","","","",""
"","html-keyboard-response","93","531851","0.0-56.0-1.0","""event"",""trial"",""time""
""fullscreenenter"",""0"",""16863""
""blur"",""10"",""173709""
""focus"",""10"",""178029""
""blur"",""38"",""259573""
""focus"",""38"",""266012""
","""event"",""trial"",""time""
""blur"",""10"",""173709""
""blur"",""38"",""259573""
","""event"",""trial"",""time""
""focus"",""10"",""178029""
""focus"",""38"",""266012""
","""event"",""trial"",""time""
""fullscreenenter"",""0"",""16863""
","
","null","<p></p>","null","","","","","","","","","","","","","","","","","","","","","","",""
"","do_trial","94","536733","0.0-57.0-0.0","""event"",""trial"",""time""
""fullscreenenter"",""0"",""16863""
""blur"",""10"",""173709""
""focus"",""10"",""178029""
""blur"",""38"",""259573""
""focus"",""38"",""266012""
","""event"",""trial"",""time""
""blur"",""10"",""173709""
""blur"",""38"",""259573""
","""event"",""trial"",""time""
""focus"",""10"",""178029""
""focus"",""38"",""266012""
","""event"",""trial"",""time""
""fullscreenenter"",""0"",""16863""
","
","341.69999998807907","","","","","","","","50","0,0,0","0","forest","3","probe-132","0.522323744462866","0.16306193185257598","0.2168864521420385","0","","","","","","","",""
"","html-keyboard-response","95","537758","0.0-57.0-1.0","""event"",""trial"",""time""
""fullscreenenter"",""0"",""16863""
""blur"",""10"",""173709""
""focus"",""10"",""178029""
""blur"",""38"",""259573""
""focus"",""38"",""266012""
","""event"",""trial"",""time""
""blur"",""10"",""173709""
""blur"",""38"",""259573""
","""event"",""trial"",""time""
""focus"",""10"",""178029""
""focus"",""38"",""266012""
","""event"",""trial"",""time""
""fullscreenenter"",""0"",""16863""
","
","null","<p></p>","null","","","","","","","","","","","","","","","","","","","","","","",""
"","do_trial","96","542734","0.0-58.0-0.0","""event"",""trial"",""time""
""fullscreenenter"",""0"",""16863""
""blur"",""10"",""173709""
""focus"",""10"",""178029""
""blur"",""38"",""259573""
""focus"",""38"",""266012""
","""event"",""trial"",""time""
""blur"",""10"",""173709""
""blur"",""38"",""259573""
","""event"",""trial"",""time""
""focus"",""10"",""178029""
""focus"",""38"",""266012""
","""event"",""trial"",""time""
""fullscreenenter"",""0"",""16863""
","
","418.70000000298023","","","","","","","","50","0,0,0","0","forest","4","probe-226","0.42429049643175754","0.34161891840044734","0.06984557800666764","0","","","","","","","",""
"","html-keyboard-response","97","543751","0.0-58.0-1.0","""event"",""trial"",""time""
""fullscreenenter"",""0"",""16863""
""blur"",""10"",""173709""
""focus"",""10"",""178029""
""blur"",""38"",""259573""
""focus"",""38"",""266012""
","""event"",""trial"",""time""
""blur"",""10"",""173709""
""blur"",""38"",""259573""
","""event"",""trial"",""time""
""focus"",""10"",""178029""
""focus"",""38"",""266012""
","""event"",""trial"",""time""
""fullscreenenter"",""0"",""16863""
","
","null","<p></p>","null","","","","","","","","","","","","","","","","","","","","","","",""
"","do_trial","98","548524","0.0-59.0-0.0","""event"",""trial"",""time""
""fullscreenenter"",""0"",""16863""
""blur"",""10"",""173709""
""focus"",""10"",""178029""
""blur"",""38"",""259573""
""focus"",""38"",""266012""
","""event"",""trial"",""time""
""blur"",""10"",""173709""
""blur"",""38"",""259573""
","""event"",""trial"",""time""
""focus"",""10"",""178029""
""focus"",""38"",""266012""
","""event"",""trial"",""time""
""fullscreenenter"",""0"",""16863""
","
","236","","","","","","","","49","0,0,0","0","forest","5","probe-103","0.512727151509087","0.2706304177425446","0.1676661366468334","0","","","","","","","",""
"","html-keyboard-response","99","549526","0.0-59.0-1.0","""event"",""trial"",""time""
""fullscreenenter"",""0"",""16863""
""blur"",""10"",""173709""
""focus"",""10"",""178029""
""blur"",""38"",""259573""
""focus"",""38"",""266012""
","""event"",""trial"",""time""
""blur"",""10"",""173709""
""blur"",""38"",""259573""
","""event"",""trial"",""time""
""focus"",""10"",""178029""
""focus"",""38"",""266012""
","""event"",""trial"",""time""
""fullscreenenter"",""0"",""16863""
","
","null","<p></p>","null","","","","","","","","","","","","","","","","","","","","","","",""
"","do_trial","100","554365","0.0-60.0-0.0","""event"",""trial"",""time""
""fullscreenenter"",""0"",""16863""
""blur"",""10"",""173709""
""focus"",""10"",""178029""
""blur"",""38"",""259573""
""focus"",""38"",""266012""
","""event"",""trial"",""time""
""blur"",""10"",""173709""
""blur"",""38"",""259573""
","""event"",""trial"",""time""
""focus"",""10"",""178029""
""focus"",""38"",""266012""
","""event"",""trial"",""time""
""fullscreenenter"",""0"",""16863""
","
","295.19999998807907","","","","","","","","50","0,0,1","0","forest","6","probe-53","0.6048101148309963","0.16095447704753782","0.11506342135690421","0","","","","","","","",""
"","html-keyboard-response","101","555368","0.0-60.0-1.0","""event"",""trial"",""time""
""fullscreenenter"",""0"",""16863""
""blur"",""10"",""173709""
""focus"",""10"",""178029""
""blur"",""38"",""259573""
""focus"",""38"",""266012""
","""event"",""trial"",""time""
""blur"",""10"",""173709""
""blur"",""38"",""259573""
","""event"",""trial"",""time""
""focus"",""10"",""178029""
""focus"",""38"",""266012""
","""event"",""trial"",""time""
""fullscreenenter"",""0"",""16863""
","
","null","<p></p>","null","","","","","","","","","","","","","","","","","","","","","","",""
"","do_trial","102","559915","0.0-61.0-0.0","""event"",""trial"",""time""
""fullscreenenter"",""0"",""16863""
""blur"",""10"",""173709""
""focus"",""10"",""178029""
""blur"",""38"",""259573""
""focus"",""38"",""266012""
","""event"",""trial"",""time""
""blur"",""10"",""173709""
""blur"",""38"",""259573""
","""event"",""trial"",""time""
""focus"",""10"",""178029""
""focus"",""38"",""266012""
","""event"",""trial"",""time""
""fullscreenenter"",""0"",""16863""
","
","0.09999999403953552","","","","","","","","51","1,0,0","0","forest","7","probe-137","0.5111949888742477","0.20966432710388358","0.13592045714358225","0","","","","","","","",""
"","html-keyboard-response","103","560919","0.0-61.0-1.0","""event"",""trial"",""time""
""fullscreenenter"",""0"",""16863""
""blur"",""10"",""173709""
""focus"",""10"",""178029""
""blur"",""38"",""259573""
""focus"",""38"",""266012""
","""event"",""trial"",""time""
""blur"",""10"",""173709""
""blur"",""38"",""259573""
","""event"",""trial"",""time""
""focus"",""10"",""178029""
""focus"",""38"",""266012""
","""event"",""trial"",""time""
""fullscreenenter"",""0"",""16863""
","
","null","<p></p>","null","","","","","","","","","","","","","","","","","","","","","","",""
"","do_trial","104","565878","0.0-62.0-0.0","""event"",""trial"",""time""
""fullscreenenter"",""0"",""16863""
""blur"",""10"",""173709""
""focus"",""10"",""178029""
""blur"",""38"",""259573""
""focus"",""38"",""266012""
","""event"",""trial"",""time""
""blur"",""10"",""173709""
""blur"",""38"",""259573""
","""event"",""trial"",""time""
""focus"",""10"",""178029""
""focus"",""38"",""266012""
","""event"",""trial"",""time""
""fullscreenenter"",""0"",""16863""
","
","416.19999998807907","","","","","","","","49","1,0,0","0","forest","8","probe-110","0.521167958260467","0.19556258473160154","0.12081961383543144","1","","","","","","","",""
"","html-keyboard-response","105","566901","0.0-62.0-1.0","""event"",""trial"",""time""
""fullscreenenter"",""0"",""16863""
""blur"",""10"",""173709""
""focus"",""10"",""178029""
""blur"",""38"",""259573""
""focus"",""38"",""266012""
","""event"",""trial"",""time""
""blur"",""10"",""173709""
""blur"",""38"",""259573""
","""event"",""trial"",""time""
""focus"",""10"",""178029""
""focus"",""38"",""266012""
","""event"",""trial"",""time""
""fullscreenenter"",""0"",""16863""
","
","null","<p></p>","null","","","","","","","","","","","","","","","","","","","","","","",""
"","do_trial","106","571914","0.0-63.0-0.0","""event"",""trial"",""time""
""fullscreenenter"",""0"",""16863""
""blur"",""10"",""173709""
""focus"",""10"",""178029""
""blur"",""38"",""259573""
""focus"",""38"",""266012""
","""event"",""trial"",""time""
""blur"",""10"",""173709""
""blur"",""38"",""259573""
","""event"",""trial"",""time""
""focus"",""10"",""178029""
""focus"",""38"",""266012""
","""event"",""trial"",""time""
""fullscreenenter"",""0"",""16863""
","
","459","","","","","","","","50","1,0,0","0","forest","9","probe-82","0.5443093309718587","0.07609609558510727","0.05035284689445744","0","","","","","","","",""
"","html-keyboard-response","107","572930","0.0-63.0-1.0","""event"",""trial"",""time""
""fullscreenenter"",""0"",""16863""
""blur"",""10"",""173709""
""focus"",""10"",""178029""
""blur"",""38"",""259573""
""focus"",""38"",""266012""
","""event"",""trial"",""time""
""blur"",""10"",""173709""
""blur"",""38"",""259573""
","""event"",""trial"",""time""
""focus"",""10"",""178029""
""focus"",""38"",""266012""
","""event"",""trial"",""time""
""fullscreenenter"",""0"",""16863""
","
","null","<p></p>","null","","","","","","","","","","","","","","","","","","","","","","",""
"","do_trial","108","577625","0.0-64.0-0.0","""event"",""trial"",""time""
""fullscreenenter"",""0"",""16863""
""blur"",""10"",""173709""
""focus"",""10"",""178029""
""blur"",""38"",""259573""
""focus"",""38"",""266012""
","""event"",""trial"",""time""
""blur"",""10"",""173709""
""blur"",""38"",""259573""
","""event"",""trial"",""time""
""focus"",""10"",""178029""
""focus"",""38"",""266012""
","""event"",""trial"",""time""
""fullscreenenter"",""0"",""16863""
","
","162.5","","","","","","","","49","0,0,0","0","forest","10","probe-20","0.5401793650749148","0.17017833141299998","0.13841004210243343","0","","","","","","","",""
"","html-keyboard-response","109","578643","0.0-64.0-1.0","""event"",""trial"",""time""
""fullscreenenter"",""0"",""16863""
""blur"",""10"",""173709""
""focus"",""10"",""178029""
""blur"",""38"",""259573""
""focus"",""38"",""266012""
","""event"",""trial"",""time""
""blur"",""10"",""173709""
""blur"",""38"",""259573""
","""event"",""trial"",""time""
""focus"",""10"",""178029""
""focus"",""38"",""266012""
","""event"",""trial"",""time""
""fullscreenenter"",""0"",""16863""
","
","null","<p></p>","null","","","","","","","","","","","","","","","","","","","","","","",""
"","do_trial","110","583403","0.0-65.0-0.0","""event"",""trial"",""time""
""fullscreenenter"",""0"",""16863""
""blur"",""10"",""173709""
""focus"",""10"",""178029""
""blur"",""38"",""259573""
""focus"",""38"",""266012""
","""event"",""trial"",""time""
""blur"",""10"",""173709""
""blur"",""38"",""259573""
","""event"",""trial"",""time""
""focus"",""10"",""178029""
""focus"",""38"",""266012""
","""event"",""trial"",""time""
""fullscreenenter"",""0"",""16863""
","
","199.90000000596046","","","","","","","","50","1,0,1","0","forest","11","probe-167","0.44606393369795044","0.05225509480517825","0.22849991310861012","0","","","","","","","",""
"","html-keyboard-response","111","584406","0.0-65.0-1.0","""event"",""trial"",""time""
""fullscreenenter"",""0"",""16863""
""blur"",""10"",""173709""
""focus"",""10"",""178029""
""blur"",""38"",""259573""
""focus"",""38"",""266012""
","""event"",""trial"",""time""
""blur"",""10"",""173709""
""blur"",""38"",""259573""
","""event"",""trial"",""time""
""focus"",""10"",""178029""
""focus"",""38"",""266012""
","""event"",""trial"",""time""
""fullscreenenter"",""0"",""16863""
","
","null","<p></p>","null","","","","","","","","","","","","","","","","","","","","","","",""
"","do_trial","112","588985","0.0-66.0-0.0","""event"",""trial"",""time""
""fullscreenenter"",""0"",""16863""
""blur"",""10"",""173709""
""focus"",""10"",""178029""
""blur"",""38"",""259573""
""focus"",""38"",""266012""
","""event"",""trial"",""time""
""blur"",""10"",""173709""
""blur"",""38"",""259573""
","""event"",""trial"",""time""
""focus"",""10"",""178029""
""focus"",""38"",""266012""
","""event"",""trial"",""time""
""fullscreenenter"",""0"",""16863""
","
","39.20000000298023","","","","","","","","49","0,0,0","0","forest","12","probe-104","0.5224078140903714","0.2140233704395606","0.08435448215992798","0","","","","","","","",""
"","html-keyboard-response","113","590003","0.0-66.0-1.0","""event"",""trial"",""time""
""fullscreenenter"",""0"",""16863""
""blur"",""10"",""173709""
""focus"",""10"",""178029""
""blur"",""38"",""259573""
""focus"",""38"",""266012""
","""event"",""trial"",""time""
""blur"",""10"",""173709""
""blur"",""38"",""259573""
","""event"",""trial"",""time""
""focus"",""10"",""178029""
""focus"",""38"",""266012""
","""event"",""trial"",""time""
""fullscreenenter"",""0"",""16863""
","
","null","<p></p>","null","","","","","","","","","","","","","","","","","","","","","","",""
"","do_trial","114","594783","0.0-67.0-0.0","""event"",""trial"",""time""
""fullscreenenter"",""0"",""16863""
""blur"",""10"",""173709""
""focus"",""10"",""178029""
""blur"",""38"",""259573""
""focus"",""38"",""266012""
","""event"",""trial"",""time""
""blur"",""10"",""173709""
""blur"",""38"",""259573""
","""event"",""trial"",""time""
""focus"",""10"",""178029""
""focus"",""38"",""266012""
","""event"",""trial"",""time""
""fullscreenenter"",""0"",""16863""
","
","234","","","","","","","","51","1,1,1","0","forest","13","probe-30","0.5895558382670972","0.23328674534331456","0.11150478843598896","1","","","","","","","",""
"","html-keyboard-response","115","595785","0.0-67.0-1.0","""event"",""trial"",""time""
""fullscreenenter"",""0"",""16863""
""blur"",""10"",""173709""
""focus"",""10"",""178029""
""blur"",""38"",""259573""
""focus"",""38"",""266012""
","""event"",""trial"",""time""
""blur"",""10"",""173709""
""blur"",""38"",""259573""
","""event"",""trial"",""time""
""focus"",""10"",""178029""
""focus"",""38"",""266012""
","""event"",""trial"",""time""
""fullscreenenter"",""0"",""16863""
","
","null","<p></p>","null","","","","","","","","","","","","","","","","","","","","","","",""
"","do_trial","116","600581","0.0-68.0-0.0","""event"",""trial"",""time""
""fullscreenenter"",""0"",""16863""
""blur"",""10"",""173709""
""focus"",""10"",""178029""
""blur"",""38"",""259573""
""focus"",""38"",""266012""
","""event"",""trial"",""time""
""blur"",""10"",""173709""
""blur"",""38"",""259573""
","""event"",""trial"",""time""
""focus"",""10"",""178029""
""focus"",""38"",""266012""
","""event"",""trial"",""time""
""fullscreenenter"",""0"",""16863""
","
","258.90000000596046","","","","","","","","50","1,0,0","0","forest","14","probe-135","0.6690475696721557","0.36610241182976644","0.11757570302978239","0","","","","","","","",""
"","html-keyboard-response","117","601584","0.0-68.0-1.0","""event"",""trial"",""time""
""fullscreenenter"",""0"",""16863""
""blur"",""10"",""173709""
""focus"",""10"",""178029""
""blur"",""38"",""259573""
""focus"",""38"",""266012""
","""event"",""trial"",""time""
""blur"",""10"",""173709""
""blur"",""38"",""259573""
","""event"",""trial"",""time""
""focus"",""10"",""178029""
""focus"",""38"",""266012""
","""event"",""trial"",""time""
""fullscreenenter"",""0"",""16863""
","
","null","<p></p>","null","","","","","","","","","","","","","","","","","","","","","","",""
"","do_trial","118","606366","0.0-69.0-0.0","""event"",""trial"",""time""
""fullscreenenter"",""0"",""16863""
""blur"",""10"",""173709""
""focus"",""10"",""178029""
""blur"",""38"",""259573""
""focus"",""38"",""266012""
","""event"",""trial"",""time""
""blur"",""10"",""173709""
""blur"",""38"",""259573""
","""event"",""trial"",""time""
""focus"",""10"",""178029""
""focus"",""38"",""266012""
","""event"",""trial"",""time""
""fullscreenenter"",""0"",""16863""
","
","242.70000000298023","","","","","","","","51","1,1,0","0","forest","15","probe-60","0.7192644403361905","0.4024977008190571","0.18527060377326912","0","","","","","","","",""
"","html-keyboard-response","119","607369","0.0-69.0-1.0","""event"",""trial"",""time""
""fullscreenenter"",""0"",""16863""
""blur"",""10"",""173709""
""focus"",""10"",""178029""
""blur"",""38"",""259573""
""focus"",""38"",""266012""
","""event"",""trial"",""time""
""blur"",""10"",""173709""
""blur"",""38"",""259573""
","""event"",""trial"",""time""
""focus"",""10"",""178029""
""focus"",""38"",""266012""
","""event"",""trial"",""time""
""fullscreenenter"",""0"",""16863""
","
","null","<p></p>","null","","","","","","","","","","","","","","","","","","","","","","",""
"","do_trial","120","612182","0.0-70.0-0.0","""event"",""trial"",""time""
""fullscreenenter"",""0"",""16863""
""blur"",""10"",""173709""
""focus"",""10"",""178029""
""blur"",""38"",""259573""
""focus"",""38"",""266012""
","""event"",""trial"",""time""
""blur"",""10"",""173709""
""blur"",""38"",""259573""
","""event"",""trial"",""time""
""focus"",""10"",""178029""
""focus"",""38"",""266012""
","""event"",""trial"",""time""
""fullscreenenter"",""0"",""16863""
","
","260.3999999910593","","","","","","","","49","0,0,0","0","forest","16","probe-39","0.6875113491917705","0.44483116538038653","0.13514234205760428","0","","","","","","","",""
"","html-keyboard-response","121","613204","0.0-70.0-1.0","""event"",""trial"",""time""
""fullscreenenter"",""0"",""16863""
""blur"",""10"",""173709""
""focus"",""10"",""178029""
""blur"",""38"",""259573""
""focus"",""38"",""266012""
","""event"",""trial"",""time""
""blur"",""10"",""173709""
""blur"",""38"",""259573""
","""event"",""trial"",""time""
""focus"",""10"",""178029""
""focus"",""38"",""266012""
","""event"",""trial"",""time""
""fullscreenenter"",""0"",""16863""
","
","null","<p></p>","null","","","","","","","","","","","","","","","","","","","","","","",""
"","do_trial","122","617911","0.0-71.0-0.0","""event"",""trial"",""time""
""fullscreenenter"",""0"",""16863""
""blur"",""10"",""173709""
""focus"",""10"",""178029""
""blur"",""38"",""259573""
""focus"",""38"",""266012""
","""event"",""trial"",""time""
""blur"",""10"",""173709""
""blur"",""38"",""259573""
","""event"",""trial"",""time""
""focus"",""10"",""178029""
""focus"",""38"",""266012""
","""event"",""trial"",""time""
""fullscreenenter"",""0"",""16863""
","
","161.80000001192093","","","","","","","","50","0,0,0","0","forest","17","probe-222","0.7094700717300259","0.5302587447953855","0.0592771214235551","0","","","","","","","",""
"","html-keyboard-response","123","618924","0.0-71.0-1.0","""event"",""trial"",""time""
""fullscreenenter"",""0"",""16863""
""blur"",""10"",""173709""
""focus"",""10"",""178029""
""blur"",""38"",""259573""
""focus"",""38"",""266012""
","""event"",""trial"",""time""
""blur"",""10"",""173709""
""blur"",""38"",""259573""
","""event"",""trial"",""time""
""focus"",""10"",""178029""
""focus"",""38"",""266012""
","""event"",""trial"",""time""
""fullscreenenter"",""0"",""16863""
","
","null","<p></p>","null","","","","","","","","","","","","","","","","","","","","","","",""
"","do_trial","124","623918","0.0-72.0-0.0","""event"",""trial"",""time""
""fullscreenenter"",""0"",""16863""
""blur"",""10"",""173709""
""focus"",""10"",""178029""
""blur"",""38"",""259573""
""focus"",""38"",""266012""
","""event"",""trial"",""time""
""blur"",""10"",""173709""
""blur"",""38"",""259573""
","""event"",""trial"",""time""
""focus"",""10"",""178029""
""focus"",""38"",""266012""
","""event"",""trial"",""time""
""fullscreenenter"",""0"",""16863""
","
","451.20000000298023","","","","","","","","49","1,1,0","0","forest","18","probe-07","0.5952632261015984","0.4537875380047288","0.055194346414511965","1","","","","","","","",""
"","html-keyboard-response","125","624934","0.0-72.0-1.0","""event"",""trial"",""time""
""fullscreenenter"",""0"",""16863""
""blur"",""10"",""173709""
""focus"",""10"",""178029""
""blur"",""38"",""259573""
""focus"",""38"",""266012""
","""event"",""trial"",""time""
""blur"",""10"",""173709""
""blur"",""38"",""259573""
","""event"",""trial"",""time""
""focus"",""10"",""178029""
""focus"",""38"",""266012""
","""event"",""trial"",""time""
""fullscreenenter"",""0"",""16863""
","
","null","<p></p>","null","","","","","","","","","","","","","","","","","","","","","","",""
"","do_trial","126","629914","0.0-73.0-0.0","""event"",""trial"",""time""
""fullscreenenter"",""0"",""16863""
""blur"",""10"",""173709""
""focus"",""10"",""178029""
""blur"",""38"",""259573""
""focus"",""38"",""266012""
","""event"",""trial"",""time""
""blur"",""10"",""173709""
""blur"",""38"",""259573""
","""event"",""trial"",""time""
""focus"",""10"",""178029""
""focus"",""38"",""266012""
","""event"",""trial"",""time""
""fullscreenenter"",""0"",""16863""
","
","430.3999999910593","","","","","","","","50","1,1,0","0","forest","19","probe-158","0.6758469602125949","0.3941895759104135","0.08676431838040008","1","","","","","","","",""
"","html-keyboard-response","127","630921","0.0-73.0-1.0","""event"",""trial"",""time""
""fullscreenenter"",""0"",""16863""
""blur"",""10"",""173709""
""focus"",""10"",""178029""
""blur"",""38"",""259573""
""focus"",""38"",""266012""
","""event"",""trial"",""time""
""blur"",""10"",""173709""
""blur"",""38"",""259573""
","""event"",""trial"",""time""
""focus"",""10"",""178029""
""focus"",""38"",""266012""
","""event"",""trial"",""time""
""fullscreenenter"",""0"",""16863""
","
","null","<p></p>","null","","","","","","","","","","","","","","","","","","","","","","",""
"","do_trial","128","635696","0.0-74.0-0.0","""event"",""trial"",""time""
""fullscreenenter"",""0"",""16863""
""blur"",""10"",""173709""
""focus"",""10"",""178029""
""blur"",""38"",""259573""
""focus"",""38"",""266012""
","""event"",""trial"",""time""
""blur"",""10"",""173709""
""blur"",""38"",""259573""
","""event"",""trial"",""time""
""focus"",""10"",""178029""
""focus"",""38"",""266012""
","""event"",""trial"",""time""
""fullscreenenter"",""0"",""16863""
","
","233.59999999403954","","","","","","","","49","0,0,0","0","forest","20","probe-134","0.6072313722127516","0.392461609133774","0.11658461141184988","0","","","","","","","",""
"","html-keyboard-response","129","636699","0.0-74.0-1.0","""event"",""trial"",""time""
""fullscreenenter"",""0"",""16863""
""blur"",""10"",""173709""
""focus"",""10"",""178029""
""blur"",""38"",""259573""
""focus"",""38"",""266012""
","""event"",""trial"",""time""
""blur"",""10"",""173709""
""blur"",""38"",""259573""
","""event"",""trial"",""time""
""focus"",""10"",""178029""
""focus"",""38"",""266012""
","""event"",""trial"",""time""
""fullscreenenter"",""0"",""16863""
","
","null","<p></p>","null","","","","","","","","","","","","","","","","","","","","","","",""
"","do_trial","130","641409","0.0-75.0-0.0","""event"",""trial"",""time""
""fullscreenenter"",""0"",""16863""
""blur"",""10"",""173709""
""focus"",""10"",""178029""
""blur"",""38"",""259573""
""focus"",""38"",""266012""
","""event"",""trial"",""time""
""blur"",""10"",""173709""
""blur"",""38"",""259573""
","""event"",""trial"",""time""
""focus"",""10"",""178029""
""focus"",""38"",""266012""
","""event"",""trial"",""time""
""fullscreenenter"",""0"",""16863""
","
","163.8999999910593","","","","","","","","51","0,0,0","0","forest","21","probe-182","0.581914370018187","0.24520405331143175","0.10131405457338588","0","","","","","","","",""
"","html-keyboard-response","131","642426","0.0-75.0-1.0","""event"",""trial"",""time""
""fullscreenenter"",""0"",""16863""
""blur"",""10"",""173709""
""focus"",""10"",""178029""
""blur"",""38"",""259573""
""focus"",""38"",""266012""
","""event"",""trial"",""time""
""blur"",""10"",""173709""
""blur"",""38"",""259573""
","""event"",""trial"",""time""
""focus"",""10"",""178029""
""focus"",""38"",""266012""
","""event"",""trial"",""time""
""fullscreenenter"",""0"",""16863""
","
","null","<p></p>","null","","","","","","","","","","","","","","","","","","","","","","",""
"","do_trial","132","647309","0.0-76.0-0.0","""event"",""trial"",""time""
""fullscreenenter"",""0"",""16863""
""blur"",""10"",""173709""
""focus"",""10"",""178029""
""blur"",""38"",""259573""
""focus"",""38"",""266012""
","""event"",""trial"",""time""
""blur"",""10"",""173709""
""blur"",""38"",""259573""
","""event"",""trial"",""time""
""focus"",""10"",""178029""
""focus"",""38"",""266012""
","""event"",""trial"",""time""
""fullscreenenter"",""0"",""16863""
","
","318.5","","","","","","","","50","1,0,0","0","forest","22","probe-218","0.652515480124803","0.18062730885339393","0.10490038126019145","0","","","","","","","",""
"","html-keyboard-response","133","648312","0.0-76.0-1.0","""event"",""trial"",""time""
""fullscreenenter"",""0"",""16863""
""blur"",""10"",""173709""
""focus"",""10"",""178029""
""blur"",""38"",""259573""
""focus"",""38"",""266012""
","""event"",""trial"",""time""
""blur"",""10"",""173709""
""blur"",""38"",""259573""
","""event"",""trial"",""time""
""focus"",""10"",""178029""
""focus"",""38"",""266012""
","""event"",""trial"",""time""
""fullscreenenter"",""0"",""16863""
","
","null","<p></p>","null","","","","","","","","","","","","","","","","","","","","","","",""
"","do_trial","134","652894","0.0-77.0-0.0","""event"",""trial"",""time""
""fullscreenenter"",""0"",""16863""
""blur"",""10"",""173709""
""focus"",""10"",""178029""
""blur"",""38"",""259573""
""focus"",""38"",""266012""
","""event"",""trial"",""time""
""blur"",""10"",""173709""
""blur"",""38"",""259573""
","""event"",""trial"",""time""
""focus"",""10"",""178029""
""focus"",""38"",""266012""
","""event"",""trial"",""time""
""fullscreenenter"",""0"",""16863""
","
","0.20000000298023224","","","","","","","","49","0,0,0","0","forest","23","probe-88","0.6329886958982681","0.21476667570120625","0.057257720013014435","0","","","","","","","",""
"","html-keyboard-response","135","653904","0.0-77.0-1.0","""event"",""trial"",""time""
""fullscreenenter"",""0"",""16863""
""blur"",""10"",""173709""
""focus"",""10"",""178029""
""blur"",""38"",""259573""
""focus"",""38"",""266012""
","""event"",""trial"",""time""
""blur"",""10"",""173709""
""blur"",""38"",""259573""
","""event"",""trial"",""time""
""focus"",""10"",""178029""
""focus"",""38"",""266012""
","""event"",""trial"",""time""
""fullscreenenter"",""0"",""16863""
","
","null","<p></p>","null","","","","","","","","","","","","","","","","","","","","","","",""
"","do_trial","136","658735","0.0-78.0-0.0","""event"",""trial"",""time""
""fullscreenenter"",""0"",""16863""
""blur"",""10"",""173709""
""focus"",""10"",""178029""
""blur"",""38"",""259573""
""focus"",""38"",""266012""
","""event"",""trial"",""time""
""blur"",""10"",""173709""
""blur"",""38"",""259573""
","""event"",""trial"",""time""
""focus"",""10"",""178029""
""focus"",""38"",""266012""
","""event"",""trial"",""time""
""fullscreenenter"",""0"",""16863""
","
","292.90000000596046","","","","","","","","51","1,1,0","0","forest","24","probe-31","0.5081353946214061","0.19772278675981747","0.05465351440792098","0","","","","","","","",""
"","html-keyboard-response","137","659759","0.0-78.0-1.0","""event"",""trial"",""time""
""fullscreenenter"",""0"",""16863""
""blur"",""10"",""173709""
""focus"",""10"",""178029""
""blur"",""38"",""259573""
""focus"",""38"",""266012""
","""event"",""trial"",""time""
""blur"",""10"",""173709""
""blur"",""38"",""259573""
","""event"",""trial"",""time""
""focus"",""10"",""178029""
""focus"",""38"",""266012""
","""event"",""trial"",""time""
""fullscreenenter"",""0"",""16863""
","
","null","<p></p>","null","","","","","","","","","","","","","","","","","","","","","","",""
"","do_trial","138","664429","0.0-79.0-0.0","""event"",""trial"",""time""
""fullscreenenter"",""0"",""16863""
""blur"",""10"",""173709""
""focus"",""10"",""178029""
""blur"",""38"",""259573""
""focus"",""38"",""266012""
","""event"",""trial"",""time""
""blur"",""10"",""173709""
""blur"",""38"",""259573""
","""event"",""trial"",""time""
""focus"",""10"",""178029""
""focus"",""38"",""266012""
","""event"",""trial"",""time""
""fullscreenenter"",""0"",""16863""
","
","119.6000000089407","","","","","","","","50","0,0,0","0","forest","25","probe-37","0.6534880423061311","0.18967546414432815","0.10723590058015411","0","","","","","","","",""
"","html-keyboard-response","139","665441","0.0-79.0-1.0","""event"",""trial"",""time""
""fullscreenenter"",""0"",""16863""
""blur"",""10"",""173709""
""focus"",""10"",""178029""
""blur"",""38"",""259573""
""focus"",""38"",""266012""
","""event"",""trial"",""time""
""blur"",""10"",""173709""
""blur"",""38"",""259573""
","""event"",""trial"",""time""
""focus"",""10"",""178029""
""focus"",""38"",""266012""
","""event"",""trial"",""time""
""fullscreenenter"",""0"",""16863""
","
","null","<p></p>","null","","","","","","","","","","","","","","","","","","","","","","",""
"","do_trial","140","670026","0.0-80.0-0.0","""event"",""trial"",""time""
""fullscreenenter"",""0"",""16863""
""blur"",""10"",""173709""
""focus"",""10"",""178029""
""blur"",""38"",""259573""
""focus"",""38"",""266012""
","""event"",""trial"",""time""
""blur"",""10"",""173709""
""blur"",""38"",""259573""
","""event"",""trial"",""time""
""focus"",""10"",""178029""
""focus"",""38"",""266012""
","""event"",""trial"",""time""
""fullscreenenter"",""0"",""16863""
","
","42","","","","","","","","49","0,0,0","0","forest","26","probe-05","0.6905802879857633","0.14597085583131003","0.12852889258923594","0","","","","","","","",""
"","html-keyboard-response","141","671029","0.0-80.0-1.0","""event"",""trial"",""time""
""fullscreenenter"",""0"",""16863""
""blur"",""10"",""173709""
""focus"",""10"",""178029""
""blur"",""38"",""259573""
""focus"",""38"",""266012""
","""event"",""trial"",""time""
""blur"",""10"",""173709""
""blur"",""38"",""259573""
","""event"",""trial"",""time""
""focus"",""10"",""178029""
""focus"",""38"",""266012""
","""event"",""trial"",""time""
""fullscreenenter"",""0"",""16863""
","
","null","<p></p>","null","","","","","","","","","","","","","","","","","","","","","","",""
"","do_trial","142","677606","0.0-81.0-0.0","""event"",""trial"",""time""
""fullscreenenter"",""0"",""16863""
""blur"",""10"",""173709""
""focus"",""10"",""178029""
""blur"",""38"",""259573""
""focus"",""38"",""266012""
","""event"",""trial"",""time""
""blur"",""10"",""173709""
""blur"",""38"",""259573""
","""event"",""trial"",""time""
""focus"",""10"",""178029""
""focus"",""38"",""266012""
","""event"",""trial"",""time""
""fullscreenenter"",""0"",""16863""
","
","2040.5999999940395","","","","","","","","50","0,0,0","0","forest","27","probe-180","0.6961133151872296","0.3318378712571417","0.1854374173116579","0","","","","","","","",""
"","html-keyboard-response","143","678609","0.0-81.0-1.0","""event"",""trial"",""time""
""fullscreenenter"",""0"",""16863""
""blur"",""10"",""173709""
""focus"",""10"",""178029""
""blur"",""38"",""259573""
""focus"",""38"",""266012""
","""event"",""trial"",""time""
""blur"",""10"",""173709""
""blur"",""38"",""259573""
","""event"",""trial"",""time""
""focus"",""10"",""178029""
""focus"",""38"",""266012""
","""event"",""trial"",""time""
""fullscreenenter"",""0"",""16863""
","
","null","<p></p>","null","","","","","","","","","","","","","","","","","","","","","","",""
"","do_trial","144","684460","0.0-82.0-0.0","""event"",""trial"",""time""
""fullscreenenter"",""0"",""16863""
""blur"",""10"",""173709""
""focus"",""10"",""178029""
""blur"",""38"",""259573""
""focus"",""38"",""266012""
","""event"",""trial"",""time""
""blur"",""10"",""173709""
""blur"",""38"",""259573""
","""event"",""trial"",""time""
""focus"",""10"",""178029""
""focus"",""38"",""266012""
","""event"",""trial"",""time""
""fullscreenenter"",""0"",""16863""
","
","1308.7000000029802","","","","","","","","50","0,0,0","0","forest","28","probe-92","0.7633497488561808","0.35591430338045504","0.17619200351799877","0","","","","","","","",""
"","html-keyboard-response","145","685467","0.0-82.0-1.0","""event"",""trial"",""time""
""fullscreenenter"",""0"",""16863""
""blur"",""10"",""173709""
""focus"",""10"",""178029""
""blur"",""38"",""259573""
""focus"",""38"",""266012""
","""event"",""trial"",""time""
""blur"",""10"",""173709""
""blur"",""38"",""259573""
","""event"",""trial"",""time""
""focus"",""10"",""178029""
""focus"",""38"",""266012""
","""event"",""trial"",""time""
""fullscreenenter"",""0"",""16863""
","
","null","<p></p>","null","","","","","","","","","","","","","","","","","","","","","","",""
"","do_trial","146","692483","0.0-83.0-0.0","""event"",""trial"",""time""
""fullscreenenter"",""0"",""16863""
""blur"",""10"",""173709""
""focus"",""10"",""178029""
""blur"",""38"",""259573""
""focus"",""38"",""266012""
","""event"",""trial"",""time""
""blur"",""10"",""173709""
""blur"",""38"",""259573""
","""event"",""trial"",""time""
""focus"",""10"",""178029""
""focus"",""38"",""266012""
","""event"",""trial"",""time""
""fullscreenenter"",""0"",""16863""
","
","2465.5","","","","","","","","51","1,0,0","0","forest","29","probe-43","0.7485518653518737","0.2943996583489201","0.0843234168811313","0","","","","","","","",""
"","html-keyboard-response","147","693487","0.0-83.0-1.0","""event"",""trial"",""time""
""fullscreenenter"",""0"",""16863""
""blur"",""10"",""173709""
""focus"",""10"",""178029""
""blur"",""38"",""259573""
""focus"",""38"",""266012""
","""event"",""trial"",""time""
""blur"",""10"",""173709""
""blur"",""38"",""259573""
","""event"",""trial"",""time""
""focus"",""10"",""178029""
""focus"",""38"",""266012""
","""event"",""trial"",""time""
""fullscreenenter"",""0"",""16863""
","
","null","<p></p>","null","","","","","","","","","","","","","","","","","","","","","","",""
"","do_bye","148","694993","0.0-84.0-0.0","""event"",""trial"",""time""
""fullscreenenter"",""0"",""16863""
""blur"",""10"",""173709""
""focus"",""10"",""178029""
""blur"",""38"",""259573""
""focus"",""38"",""266012""
","""event"",""trial"",""time""
""blur"",""10"",""173709""
""blur"",""38"",""259573""
","""event"",""trial"",""time""
""focus"",""10"",""178029""
""focus"",""38"",""266012""
","""event"",""trial"",""time""
""fullscreenenter"",""0"",""16863""
","
","null","","","","","","","","null","","","","","","","","","","","","","","","","",""
"","break","149","698131","0.0-84.0-1.0","""event"",""trial"",""time""
""fullscreenenter"",""0"",""16863""
""blur"",""10"",""173709""
""focus"",""10"",""178029""
""blur"",""38"",""259573""
""focus"",""38"",""266012""
","""event"",""trial"",""time""
""blur"",""10"",""173709""
""blur"",""38"",""259573""
","""event"",""trial"",""time""
""focus"",""10"",""178029""
""focus"",""38"",""266012""
","""event"",""trial"",""time""
""fullscreenenter"",""0"",""16863""
","
","3136.7999999970198","<div class='center'><p>Time to take a quick break! You have 2 minutes to rest, but you can move on sooner if you'd like.</p><p> Press the <b>space bar</b> to continue.</p></div>","32","","","","","","","","","","","","","","","","","","","","","","",""
"","do_travel","150","707147","0.0-85.0-0.0","""event"",""trial"",""time""
""fullscreenenter"",""0"",""16863""
""blur"",""10"",""173709""
""focus"",""10"",""178029""
""blur"",""38"",""259573""
""focus"",""38"",""266012""
","""event"",""trial"",""time""
""blur"",""10"",""173709""
""blur"",""38"",""259573""
","""event"",""trial"",""time""
""focus"",""10"",""178029""
""focus"",""38"",""266012""
","""event"",""trial"",""time""
""fullscreenenter"",""0"",""16863""
","
","null","","","","","","","","null","","","","","","","","","","","","","","","","",""
