"success","trial_type","trial_index","time_elapsed","internal_node_id","interactions","blur_events","focus_events","fullscreenenter_events","fullscreenexit_events"
"true","fullscreen","0","2488","0.0-0.0","""event"",""trial"",""time""
""fullscreenenter"",""0"",""1541""
","
","
","""event"",""trial"",""time""
""fullscreenenter"",""0"",""1541""
","
"
"","pavlovia","1","2489","0.0-1.0","""event"",""trial"",""time""
""fullscreenenter"",""0"",""1541""
""blur"",""2"",""39930""
""focus"",""2"",""47209""
""blur"",""2"",""68185""
""focus"",""2"",""74781""
""blur"",""2"",""85560""
""focus"",""2"",""107071""
""blur"",""2"",""152471""
""focus"",""2"",""161287""
""blur"",""2"",""163012""
","""event"",""trial"",""time""
""blur"",""2"",""39930""
""blur"",""2"",""68185""
""blur"",""2"",""85560""
""blur"",""2"",""152471""
""blur"",""2"",""163012""
","""event"",""trial"",""time""
""focus"",""2"",""47209""
""focus"",""2"",""74781""
""focus"",""2"",""107071""
""focus"",""2"",""161287""
","""event"",""trial"",""time""
""fullscreenenter"",""0"",""1541""
","
"
