"success","trial_type","trial_index","time_elapsed","internal_node_id","rt","stimulus","key_press","subject_id","response","choice_outcomes","context_n","context_img_id","trial_n","probe_img_id","pR_red","pR_white","pR_black","outcome","is_valid","image_to_show","probed_trial","probed_context","correct","context_id"
"true","fullscreen","0","23739","0.0-0.0","","","","","","","","","","","","","","","","","","","",""
"","pavlovia","1","23746","0.0-1.0","","","","","","","","","","","","","","","","","","","",""
"","html-keyboard-response","2","52659","0.0-2.0","28911.60000038147","<div class='center'><p>Welcome! This experiment will last ~1 hour. In this experiment, you are the head captain of a pirate ship traveling around the world to different places. You will complete several different tasks during this experiment. Here is an overview of these tasks:</p><br><p>1. Tutorial and quiz</p><p>2. Pick a pirate game in 6 different places</p><p>3. Pick a pirate game and memory game</p><p>4. Final questions and payment</p><br><p>If you complete the entire experiment, you will receive $15 and a possible bonus payment.</p><p><b>[Press the space bar to begin the tutorial]</b></p></div>","32","6132602d6583fc011bd63af5","","","","","","","","","","","","","","","",""
"","html-keyboard-response","3","68598","0.0-3.0","15925","<div class='center'><p>You are the head captain of a pirate ship.</p><p> Your pirates rob other ships as they leave the marketplace port.</p> These ships have just sold all their goods at the marketplace, so they have lots and lots of gold on them.</p><p><img src='run_exp/static/images/ship_center.png' height='400'></p><p><b>[Press the space bar to continue]</b></p></div>","32","","","","","","","","","","","","","","","","",""
"","html-keyboard-response","4","86700","0.0-4.0","18099.900000095367","<div class='center'><p>As the head captain, you do not have to rob any ships yourself.</p><p>You get to choose which pirate you want to rob the next ship. </p><p>If they are successful at robbing the ship, then you will get gold coins.</p><p> If they are not successful, then you will get no gold coins.</p><p> The more coins you collect, the more bonus money you will win. So, choose your pirate wisely.</p><p><img src='run_exp/static/images/goal.png' height='400'></p><p><b>[Press the space bar to continue]</b></p><div>","32","","","","","","","","","","","","","","","","",""
"","html-keyboard-response","5","106025","0.0-5.0","19324.199999809265","<div class='center'><p>Even the most skilled pirate will not be able to rob EVERY ship.</p><p> Some ships will have very strong defenses against attacks.</p><p> For example, blue beard, here,  is very good at robbing ships.</p><p> You can press the <b>‘1’</b> button on the keyboard to choose him.</p><p> Try choosing him 10 times to see how often he is successful at robbing ships. </p><p><img src='run_exp/static/images/blue.png' height='500'></p></div>","49","","","","","","","","","","","","","","","","",""
"","html-keyboard-response","6","107529","0.0-6.0","null","<br><br><br><br><p><img src='run_exp/static/images/blue_win.png' height='500'></p>","null","","","","","","","","","","","","","","","","",""
"","html-keyboard-response","7","108960","0.0-7.0","1429.2999997138977","<br><br><br><br><p><img src='run_exp/static/images/blue.png' height='500'></p>","49","","","","","","","","","","","","","","","","",""
"","html-keyboard-response","8","110472","0.0-8.0","null","<br><br><br><br><p><img src='run_exp/static/images/blue_win.png' height='500'></p>","null","","","","","","","","","","","","","","","","",""
"","html-keyboard-response","9","111041","0.0-9.0","567.4000000953674","<br><br><br><br><p><img src='run_exp/static/images/blue.png' height='500'></p>","49","","","","","","","","","","","","","","","","",""
"","html-keyboard-response","10","112552","0.0-10.0","null","<br><br><br><br><p><img src='run_exp/static/images/blue_win.png' height='500'></p>","null","","","","","","","","","","","","","","","","",""
"","html-keyboard-response","11","112889","0.0-11.0","334.90000009536743","<br><br><br><br><p><img src='run_exp/static/images/blue.png' height='500'></p>","49","","","","","","","","","","","","","","","","",""
"","html-keyboard-response","12","114404","0.0-12.0","null","<br><br><br><br><p><img src='run_exp/static/images/blue_no_win.png' height='500'></p>","null","","","","","","","","","","","","","","","","",""
"","html-keyboard-response","13","114684","0.0-13.0","279","<br><br><br><br><p><img src='run_exp/static/images/blue.png' height='500'></p>","49","","","","","","","","","","","","","","","","",""
"","html-keyboard-response","14","116194","0.0-14.0","null","<br><br><br><br><p><img src='run_exp/static/images/blue_win.png' height='500'></p>","null","","","","","","","","","","","","","","","","",""
"","html-keyboard-response","15","116496","0.0-15.0","301.5","<br><br><br><br><p><img src='run_exp/static/images/blue.png' height='500'></p>","49","","","","","","","","","","","","","","","","",""
"","html-keyboard-response","16","118002","0.0-16.0","null","<br><br><br><br><p><img src='run_exp/static/images/blue_win.png' height='500'></p>","null","","","","","","","","","","","","","","","","",""
"","html-keyboard-response","17","118291","0.0-17.0","287.30000019073486","<br><br><br><br><p><img src='run_exp/static/images/blue.png' height='500'></p>","49","","","","","","","","","","","","","","","","",""
"","html-keyboard-response","18","119802","0.0-18.0","null","<br><br><br><br><p><img src='run_exp/static/images/blue_win.png' height='500'></p>","null","","","","","","","","","","","","","","","","",""
"","html-keyboard-response","19","119840","0.0-19.0","36.90000009536743","<br><br><br><br><p><img src='run_exp/static/images/blue.png' height='500'></p>","49","","","","","","","","","","","","","","","","",""
"","html-keyboard-response","20","121347","0.0-20.0","null","<br><br><br><br><p><img src='run_exp/static/images/blue_no_win.png' height='500'></p>","null","","","","","","","","","","","","","","","","",""
"","html-keyboard-response","21","121636","0.0-21.0","288.09999990463257","<br><br><br><br><p><img src='run_exp/static/images/blue.png' height='500'></p>","49","","","","","","","","","","","","","","","","",""
"","html-keyboard-response","22","123175","0.0-22.0","null","<br><br><br><br><p><img src='run_exp/static/images/blue_win.png' height='500'></p>","null","","","","","","","","","","","","","","","","",""
"","html-keyboard-response","23","123472","0.0-23.0","296","<br><br><br><br><p><img src='run_exp/static/images/blue.png' height='500'></p>","49","","","","","","","","","","","","","","","","",""
"","html-keyboard-response","24","124980","0.0-24.0","null","<br><br><br><br><p><img src='run_exp/static/images/blue_win.png' height='500'></p>","null","","","","","","","","","","","","","","","","",""
"","html-keyboard-response","25","127443","0.0-25.0","2461.4000000953674","<div class='center'><p> See, he was successful at robbing the ships most of the time but not every time. </p><p><b>[Press the space bar to continue]</b></p></div>","32","","","","","","","","","","","","","","","","",""
"","html-keyboard-response","26","139400","0.0-26.0","11954.699999809265","<div class='center'><p>In the game, you will get to choose which of three pirates you want to rob the next ship. <p>Press the <b>‘1’</b> button on your keyboard to pick the pirate with the red beard.</p><p> Press <b>‘2’</b> to pick the pirate with the white beard.</p><p> Press <b>‘3’</b> to pick the pirate with the black beard.</p><p>Try picking a pirate now!</p><p><img src='run_exp/static/images/all_pirates.png' height='500'></p></div>","50","","","","","","","","","","","","","","","","",""
"","html-keyboard-response","27","141611","0.0-27.0-0.0","2208.0999999046326","<div class='center'><p>This pirate was successful at robbing the ship!</p><p><img src='run_exp/static/images/white_win.png' height='500'></p><p><b>[Press the space bar to continue]</b></p></div>","32","","","","","","","","","","","","","","","","",""
"","html-keyboard-response","28","143386","0.0-27.0-1.0","1774","<div class='center'><p>Now try choosing another</p><p><img src='run_exp/static/images/all_pirates.png' height='500'></p></div>","51","","","","","","","","","","","","","","","","",""
"","html-keyboard-response","29","145007","0.0-28.0-0.0","1619.5","<div class='center'><p>This pirate was not successful at robbing the ship!</p><p><img src='run_exp/static/images/black_no_win.png' height='500'></p><p><b>[Press the space bar to continue]</b></p></div>","32","","","","","","","","","","","","","","","","",""
"","html-keyboard-response","30","148827","0.0-29.0-0.0","3819.4000000953674","<div class='center'><p>You’ll stop at these 6 places on your journey.</p><p><img src='run_exp/static/images/all_contexts.png' height='500'></p><p><b>[Press the space bar to continue]</b></p></div>","32","","","","","","","","","","","","","","","","",""
"","html-keyboard-response","31","155245","0.0-29.0-1.0","6416.699999809265","<div class='center'><p>How good a pirate is at robbing ships will depend on the current place.</p><p> Some pirates will have been to the place before, and will have more experience robbing ships there.</p><p>So, they will be more successful at stealing gold and bringing it back to you.</p><p><b>[Press the space bar to continue]</b></p></div>","32","","","","","","","","","","","","","","","","",""
"","html-keyboard-response","32","165433","0.0-29.0-2.0","10186.800000190735","<div class='center'><p>How successful a pirate is at robbing ships can also change in a place.<p> Ships may hear about the pirates coming and will improve their defenses. This may make it more difficult to rob them.</p><p> Ships may also grow lazy and lower their defenses. This may make it easier to rob them.</p><br><p>Things are always changing on the high seas! So, try your best to pay attention!</p><p><img src='run_exp/static/images/contingency.png' height='500'></p><p><b>[Press the space bar to continue]</b></p></div>","32","","","","","","","","","","","","","","","","",""
"","html-keyboard-response","33","217235","0.0-29.0-3.0","51800.5","<div class='center'><p>Once you choose a pirate to rob a ship, you’ll be shown the ship they are robbing.</p><p>The ship will have a picture of the item they sold at the marketplace.</p><p> Try your best to remember the ship and where you saw the ship.</p><p> You’ll have to remember this for later, and remembering this correctly will help you win more bonus money!</p><p>You can remember the ship by remembering the item they sold at the marketplace</p><p>A helpful strategy is to try to come up with a story of the chosen pirate and ship’s item interacting with the scene.</p><p> For example, a ship might have sold travel mugs and you could imagine red beard walking through the city with a travel mug. </p><p>Or imagine an apple falling from a tree into white beard's hands in the forest.</p><p><img src='run_exp/static/images/example_probe.png' height='500'></p><p><b>[Press the space bar to continue]</b></p></div>","32","","","","","","","","","","","","","","","","",""
"","html-keyboard-response","34","223626","0.0-29.0-4.0","6389.200000286102","<div class='center'><p>If you don’t make your choice fast enough, you’ll have to wait a few seconds before you can make another one. </p><p>You can’t win more gold. You just have to sit and wait.</p><p><img src='run_exp/static/images/hurry_up.png' height='500'></p><p><b>[Press the space bar to continue]</b></p></div>","32","","","","","","","","","","","","","","","","",""
"","html-keyboard-response","35","334535","0.0-29.0-5.0","110908.59999990463","<div class='center'><p>Again, you have two important things to do: </p><b><p> 1. Pick the pirate who you think will be most successful at robbing the next ship.</p></b><b><p> 2. Remember where a pirate robbed a ship.</p> </b><p>Both are important in determining how much bonus money you’ll win.</p><br><p>Let’s try a practice game. The game will start by showing you the pirates. First pick a pirate using the <b> 1, 2, 3 </b> buttons on your keyboard. When you are shown a ship, try to remember the place you’re in by making up a story.</p><p> You only have 3 seconds to pick a pirate, so please make a choice quickly! If you are too slow, you’ll have to wait a bit during the time out.</p><p> Don’t feel rushed, but please do try to make a choice every time.</p><p>How good a pirate is at robbing a ship will change depending on the place they are in and how good the defenses are of the ship.</p> <p>This is just a practice game, so you’re not playing for money. </p><p>You’ll receive a bag which may or may not contain gold coins.</p><p> In the real game, though, you’ll be able to see whether or not you received the gold coins.</p><p> Good luck, remember press <b>'1'</b> to choose red beard, <b>'2'</b> to choose white beard, and <b>'3'</b> to choose black beard</p><p><b>[Press the space bar to begin the practice game]</b></p></div>","32","","","","","","","","","","","","","","","","",""
"","do_trial_prac","36","341145","0.0-29.0-6.0","2099.199999809265","","","","51","","","","","","","","","","","","","","",""
"","do_trial_prac","37","347167","0.0-29.0-7.0","null","","","","null","","","","","","","","","","","","","","",""
"","do_trial_prac","38","352834","0.0-29.0-8.0","1157.8999996185303","","","","50","","","","","","","","","","","","","","",""
"","do_trial_prac","39","358648","0.0-29.0-9.0","1308.1000003814697","","","","49","","","","","","","","","","","","","","",""
"","do_trial_prac","40","364545","0.0-29.0-10.0","1381.7999997138977","","","","50","","","","","","","","","","","","","","",""
"","html-keyboard-response","41","371817","0.0-29.0-11.0","7270.799999713898","<div class='center'><p>Great job on the practice game!</p><p> Now, you will be asked you some true or false questions to make sure you really understand the rules of the game.</p><p> Press <b>'1'</b> on the keyboard for true and press <b>'2'</b> for false.</p><p><b>[Press the space bar to begin the quiz]</b></p></div>","32","","","","","","","","","","","","","","","","",""
"","html-keyboard-response","42","374404","0.0-29.0-12.0","2586.300000190735","<div class='center'><p>You win bonus money by making choices as fast as possible.</p><p>Press 1 for true and press  2 for false.</p></div>","50","","","","","","","","","","","","","","","","",""
"","html-keyboard-response","43","377424","0.0-30.0-0.0","3018.3999996185303","<br><br><br><br><p>That's correct!</p> <p><b>[press the space bar to continue with the quiz]</b></p>","32","","","","","","","","","","","","","","","","",""
"","html-keyboard-response","44","383308","0.0-30.0-1.0","5882.400000095367","<div class='center'><p>You press the <b>‘3’</b> button on the keyboard to choose the red bearded pirate? </p><p>Press 1 for true and press  2 for false.</p></div>","50","","","","","","","","","","","","","","","","",""
"","html-keyboard-response","45","384841","0.0-31.0-0.0","1532","<br><br><br><br><p>That's correct!</p> <p><b>[press the space bar to continue with the quiz]</b></p>","32","","","","","","","","","","","","","","","","",""
"","html-keyboard-response","46","387945","0.0-31.0-1.0","3103.6000003814697","<div class='center'><p>A pirate will always be equally successful at robbing ships in each place</p><p>Press 1 for true and press  2 for false.</p></div>","50","","","","","","","","","","","","","","","","",""
"","html-keyboard-response","47","389019","0.0-32.0-0.0","1072.2000002861023","<br><br><br><br><p>That's correct!</p> <p><b>[press the space bar to continue with the quiz]</b></p>","32","","","","","","","","","","","","","","","","",""
"","html-keyboard-response","48","392319","0.0-32.0-1.0","3299","<div class='center'><p>You should remember the place where a pirate robbed a ship.</p><p>Press 1 for true and press  2 for false.</p></div>","49","","","","","","","","","","","","","","","","",""
"","html-keyboard-response","49","393665","0.0-33.0-0.0","1330.9000000953674","<br><br><br><br><p>That's correct!</p> <p><b>[press the space bar to continue with the quiz]</b></p>","32","","","","","","","","","","","","","","","","",""
"","html-keyboard-response","50","404679","0.0-34.0-0.0","11011.599999904633","<br><br><br><br><p>Good job! You’re now ready to move on to the real game!</p> <p><br>[press the space bar to begin!]</br></p>","32","","","","","","","","","","","","","","","","",""
"","do_welcome","51","406199","0.0-35.0-0.0","null","","","","null","","","","","","","","","","","","","","",""
"","do_trial","52","413543","0.0-36.0-0.0","1779.1999998092651","","","","51","1,0,0","0","city","0","probe-145","1","0.4","0.1","0","","","","","",""
"","do_trial","53","421647","0.0-37.0-0.0","2551.7999997138977","","","","50","1,0,0","0","city","1","probe-162","1","0.37296809274837556","0.11282204908002996","0","","","","","",""
"","do_trial","54","428135","0.0-38.0-0.0","939.5999999046326","","","","49","1,0,0","0","city","2","probe-138","1","0.3563696719052271","0.17881372452206676","1","","","","","",""
"","do_trial","55","434204","0.0-39.0-0.0","null","","","","null","1,1,0","0","city","3","probe-201","1","0.4470511523058657","0.12324554787012985","","","","","","",""
"","do_trial","56","441007","0.0-40.0-0.0","1252.0999999046326","","","","49","1,1,0","0","city","4","probe-158","0.9249338400893912","0.49688773190340557","0.10394497313869534","1","","","","","",""
"","do_trial","57","447801","0.0-41.0-0.0","1245.7000002861023","","","","49","1,0,0","0","city","5","probe-15","0.943803780011707","0.40432848795181286","0.09102441900974281","1","","","","","",""
"","do_trial","58","454333","0.0-42.0-0.0","960.6999998092651","","","","49","1,1,0","0","city","6","probe-23","0.8163601586034137","0.4651362956325643","0.18283477344118054","1","","","","","",""
"","do_trial","59","460865","0.0-43.0-0.0","976.0999999046326","","","","49","1,0,0","0","city","7","probe-146","0.755873586826079","0.4879965341885309","0.11184846111152004","1","","","","","",""
"","do_trial","60","467210","0.0-44.0-0.0","781.6000003814697","","","","49","0,1,0","0","city","8","probe-31","0.6775291685843986","0.43613877155371344","0.08486454098485592","0","","","","","",""
"","do_trial","61","473170","0.0-45.0-0.0","397.7000002861023","","","","51","1,0,0","0","city","9","probe-184","0.6631958923242414","0.42313760336956924","0.17612796179285087","0","","","","","",""
"","do_trial","62","479041","0.0-46.0-0.0","297.30000019073486","","","","50","1,0,0","0","city","10","probe-100","0.5926340262269159","0.4913375762918797","0.11252182501874439","0","","","","","",""
"","do_trial","63","485004","0.0-47.0-0.0","386.59999990463257","","","","49","0,0,0","0","city","11","probe-14","0.30841185767113055","0.7323367613953419","0.11489007806997995","0","","","","","",""
"","do_trial","64","491735","0.0-48.0-0.0","1177.2000002861023","","","","51","0,0,0","0","city","12","probe-143","0.16203398379688466","0.7498286586379521","0.21105111108551913","0","","","","","",""
"","do_trial","65","499080","0.0-49.0-0.0","1779.3000001907349","","","","51","0,0,0","0","city","13","probe-52","0.1348696305024403","0.8049158206785952","0.28491446911191537","0","","","","","",""
"","do_trial","66","505108","0.0-50.0-0.0","455.09999990463257","","","","49","0,1,0","0","city","14","probe-230","0.09138207116166551","0.7399665087827028","0.4791329396598356","0","","","","","",""
"","do_trial","67","511114","0.0-51.0-0.0","450.19999980926514","","","","49","0,1,0","0","city","15","probe-62","0.15030372394359712","0.8438753087623339","0.33386895300913993","0","","","","","",""
"","do_trial","68","517228","0.0-52.0-0.0","557","","","","49","0,1,1","0","city","16","probe-08","0.14339604123197452","0.7092374719170659","0.3242799575863963","0","","","","","",""
"","do_trial","69","523295","0.0-53.0-0.0","null","","","","null","0,1,0","0","city","17","probe-39","0.1273641732795361","0.9293742802065823","0.37031132834968256","","","","","","",""
"","do_trial","70","529220","0.0-54.0-0.0","349.7000002861023","","","","50","0,1,1","0","city","18","probe-194","0.08243721583993736","0.8403780396231844","0.4983971080224345","1","","","","","",""
"","do_trial","71","535188","0.0-55.0-0.0","410.40000009536743","","","","50","0,1,0","0","city","19","probe-90","0.08342754983260654","0.9366029553653674","0.3449259778257461","1","","","","","",""
"","do_trial","72","541683","0.0-56.0-0.0","939.1000003814697","","","","50","0,1,0","0","city","20","probe-217","0.12457344432655897","0.7896872330487139","0.27777834580356564","1","","","","","",""
"","do_trial","73","547761","0.0-57.0-0.0","515.5","","","","50","0,1,0","0","city","21","probe-102","0.14652956299322945","0.924332715358229","0.17962910043473307","1","","","","","",""
"","do_trial","74","554367","0.0-58.0-0.0","1055.5","","","","50","0,0,0","0","city","22","probe-148","0.20176105064462274","0.8836466610950657","0.19579378833106778","0","","","","","",""
"","do_trial","75","560337","0.0-59.0-0.0","405.90000009536743","","","","50","0,1,0","0","city","23","probe-209","0.21226118919124232","0.9247529754543717","0.266507566595041","1","","","","","",""
"","do_trial","76","567351","0.0-60.0-0.0","1464.0999999046326","","","","50","0,1,1","0","city","24","probe-191","0.16545867154742896","0.7926124830521866","0.3432091220344332","1","","","","","",""
"","do_trial","77","574737","0.0-61.0-0.0","1822.6000003814697","","","","50","0,1,0","0","city","25","probe-03","0.09445567381016398","0.825860776088671","0.4529759642104704","1","","","","","",""
"","do_trial","78","580675","0.0-62.0-0.0","372.5","","","","50","1,1,0","0","city","26","probe-187","0.20188139606047414","0.7797342746911532","0.45541088197259316","1","","","","","",""
"","do_trial","79","588123","0.0-63.0-0.0","1890","","","","50","1,1,1","0","city","27","probe-171","0.1532915196041482","0.8823771508497446","0.3501118755520862","1","","","","","",""
"","do_trial","80","594220","0.0-64.0-0.0","545.1000003814697","","","","50","0,1,1","0","city","28","probe-212","0.1299409372005451","0.73355722159783","0.35532992164813043","1","","","","","",""
"","do_trial","81","601301","0.0-65.0-0.0","1519.5","","","","50","0,0,1","0","city","29","probe-141","0.197225755996805","0.7095357504727441","0.29682057881962826","0","","","","","",""
"","do_trial","82","607932","0.0-66.0-0.0","1068.2999997138977","","","","50","0,0,1","0","city","30","probe-49","0.10646165321061571","0.7288258297508525","0.47151994035500766","0","","","","","",""
"","do_trial","83","613894","0.0-67.0-0.0","400.59999990463257","","","","49","0,0,1","0","city","31","probe-24","0.07632879208324989","0.7534552491318711","0.4997429229030219","0","","","","","",""
"","do_trial","84","620074","0.0-68.0-0.0","618.9000000953674","","","","49","1,1,0","0","city","32","probe-175","0.10244343354996041","0.7137076226121768","0.4931696631196623","1","","","","","",""
"","do_trial","85","626145","0.0-69.0-0.0","504.40000009536743","","","","49","0,1,1","0","city","33","probe-37","0.1627859788847546","0.7106995039247674","0.500284834327872","0","","","","","",""
"","do_trial","86","632002","0.0-70.0-0.0","295.8999996185303","","","","49","1,1,0","0","city","34","probe-207","0.051006830653847646","0.7928193329277001","0.4909744314884617","1","","","","","",""
"","do_trial","87","639964","0.0-71.0-0.0","2401.5","","","","49","1,1,1","0","city","35","probe-125","0.17102534852611867","0.9178706360375988","0.3727225158273915","1","","","","","",""
"","do_trial","88","646240","0.0-72.0-0.0","719.1999998092651","","","","49","0,1,0","0","city","36","probe-189","0.08549947301549086","0.8417884441233617","0.31159861703809344","0","","","","","",""
"","do_trial","89","652304","0.0-73.0-0.0","null","","","","null","0,1,0","0","city","37","probe-164","0.07386087395504648","0.8773028166919032","0.3209191897924197","","","","","","",""
"","do_trial","90","658306","0.0-74.0-0.0","433.40000009536743","","","","49","0,1,0","0","city","38","probe-26","0.17479333586172868","0.8418008439448167","0.32037515559702373","0","","","","","",""
"","do_trial","91","664263","0.0-75.0-0.0","398.09999990463257","","","","50","1,1,0","0","city","39","probe-221","0.15034878469613144","0.7849998493243502","0.3947666402655545","1","","","","","",""
"","do_bye","92","665772","0.0-76.0-0.0","null","","","","null","","","","","","","","","","","","","","",""
"","do_travel","93","671781","0.0-77.0-0.0","null","","","","null","","","","","","","","","","","","","","",""
"","do_welcome","94","673292","0.0-77.0-1.0","null","","","","null","","","","","","","","","","","","","","",""
"","do_trial","95","680085","0.0-78.0-0.0","1236.8999996185303","","","","51","0,1,1","1","highway","40","probe-70","0.08387237285345982","1","0.34898539594996436","1","","","","","",""
"","do_trial","96","686237","0.0-79.0-0.0","580.5","","","","51","0,1,1","1","highway","41","probe-99","0.17632315709495414","1","0.3817152002937772","1","","","","","",""
"","do_trial","97","692137","0.0-80.0-0.0","330.80000019073486","","","","51","0,1,1","1","highway","42","probe-150","0.2569189443699064","1","0.43636366889786565","1","","","","","",""
"","do_trial","98","697999","0.0-81.0-0.0","301.40000009536743","","","","51","0,1,1","1","highway","43","probe-126","0.23523896027415692","1","0.47304439140685633","1","","","","","",""
"","do_trial","99","703916","0.0-82.0-0.0","347.59999990463257","","","","51","0,1,0","1","highway","44","probe-177","0.15814413311844827","0.8840323986437383","0.3425390116016408","0","","","","","",""
"","do_trial","100","710058","0.0-83.0-0.0","584.7000002861023","","","","50","0,0,1","1","highway","45","probe-199","0.10742149470828398","0.7383615760968681","0.32661503030243744","0","","","","","",""
"","do_trial","101","716108","0.0-84.0-0.0","493.40000009536743","","","","49","0,1,0","1","highway","46","probe-154","0.10760063774617713","0.6518030875293651","0.44187434279227367","0","","","","","",""
"","do_trial","102","722082","0.0-85.0-0.0","408.69999980926514","","","","51","0,1,0","1","highway","47","probe-137","0.29732305977333834","0.7011235702976513","0.3734795881457187","0","","","","","",""
"","do_trial","103","729307","0.0-86.0-0.0","1671.8999996185303","","","","50","0,1,1","1","highway","48","probe-111","0.06995937530783776","0.7642691436844631","0.2613617467979595","1","","","","","",""
"","do_trial","104","735682","0.0-87.0-0.0","816.2999997138977","","","","50","0,1,1","1","highway","49","probe-224","0.1361470687307418","0.7755020874540628","0.4572366575169488","1","","","","","",""
"","do_trial","105","742150","0.0-88.0-0.0","909.7000002861023","","","","50","0,1,1","1","highway","50","probe-140","0.3589298171918819","0.4497754285489711","0.6745238488833644","1","","","","","",""
"","do_trial","106","748149","0.0-89.0-0.0","425.2999997138977","","","","50","0,1,1","1","highway","51","probe-183","0.31715752051845886","0.2717919316796344","0.6560363341808321","1","","","","","",""
"","do_trial","107","754003","0.0-90.0-0.0","286","","","","50","1,1,1","1","highway","52","probe-107","0.39806841200806553","0.28799003467950707","0.7285755062961573","1","","","","","",""
"","do_trial","108","760651","0.0-91.0-0.0","1074.9000000953674","","","","50","0,0,1","1","highway","53","probe-165","0.328531286674776","0.20364671364780687","0.803135553328745","0","","","","","",""
"","do_trial","109","766635","0.0-92.0-0.0","425.2999997138977","","","","50","0,0,0","1","highway","54","probe-115","0.2731050808051993","0.24469055174734913","0.6719037718938731","0","","","","","",""
"","do_trial","110","773389","0.0-93.0-0.0","1193.4000000953674","","","","51","0,0,1","1","highway","55","probe-151","0.3880215007426208","0.12110656142985793","0.5921463913834333","1","","","","","",""
"","do_trial","111","779853","0.0-94.0-0.0","912.5","","","","51","0,0,0","1","highway","56","probe-77","0.38814622879183897","0.163067637964367","0.6071967566009109","0","","","","","",""
"","do_trial","112","785702","0.0-95.0-0.0","292.19999980926514","","","","51","0,1,1","1","highway","57","probe-79","0.4261837180218025","0.1999269703343689","0.7561823196514743","1","","","","","",""
"","do_trial","113","791962","0.0-96.0-0.0","699.2000002861023","","","","51","1,1,0","1","highway","58","probe-60","0.44768175768926444","0.17058507007399898","0.7928145077513139","0","","","","","",""
"","do_trial","114","798348","0.0-97.0-0.0","827.5999999046326","","","","51","0,1,0","1","highway","59","probe-228","0.3851393743752477","0.1664586432209064","0.7842758612082337","0","","","","","",""
"","do_trial","115","804415","0.0-98.0-0.0","null","","","","null","1,0,1","1","highway","60","probe-147","0.39847080672355284","0.24458700795334382","0.810273220249899","","","","","","",""
"","do_trial","116","810432","0.0-99.0-0.0","451.1000003814697","","","","51","0,0,0","1","highway","61","probe-110","0.33354981175512327","0.1904123312556702","0.7482528246277904","0","","","","","",""
"","do_trial","117","816470","0.0-100.0-0.0","472.2000002861023","","","","50","1,1,1","1","highway","62","probe-87","0.4314898023313454","0.21818962898813327","0.9014872402145286","1","","","","","",""
"","do_trial","118","823283","0.0-101.0-0.0","1250.5","","","","50","1,0,0","1","highway","63","probe-153","0.3692855602578058","0.16129753208940303","0.78454898528824","0","","","","","",""
"","do_trial","119","828844","0.0-102.0-0.0","0.20000028610229492","","","","50","0,0,0","1","highway","64","probe-186","0.3410867827249269","0.08401406755854002","0.815087156200146","0","","","","","",""
"","do_trial","120","835321","0.0-103.0-0.0","911.1999998092651","","","","50","0,0,1","1","highway","65","probe-218","0.40451749458819314","0.15594660970241245","0.787646553232764","0","","","","","",""
"","do_trial","121","841506","0.0-104.0-0.0","616.0999999046326","","","","51","0,0,0","1","highway","66","probe-88","0.3532177893940774","0.20275380303074805","0.6411790685297933","0","","","","","",""
"","do_trial","122","848543","0.0-105.0-0.0","1476.5","","","","50","1,0,1","1","highway","67","probe-59","0.34282213147161117","0.2254369042451205","0.7987484921592859","0","","","","","",""
"","do_trial","123","854371","0.0-106.0-0.0","267.30000019073486","","","","49","1,1,1","1","highway","68","probe-219","0.2118580752321021","0.09696368908987629","0.7833521485237174","1","","","","","",""
"","do_trial","124","861446","0.0-107.0-0.0","1525.3999996185303","","","","49","0,0,1","1","highway","69","probe-195","0.2776896209752184","0.09866738081250206","0.8174634213752348","0","","","","","",""
"","do_trial","125","868044","0.0-108.0-0.0","1040.9000000953674","","","","50","0,1,1","1","highway","70","probe-222","0.41668296851145437","0.08108507697796101","0.9294263870290469","1","","","","","",""
"","do_trial","126","874095","0.0-109.0-0.0","489.2000002861023","","","","50","0,0,1","1","highway","71","probe-168","0.3644470522667778","0.08429130959413944","0.8396670750183024","0","","","","","",""
"","do_trial","127","879730","0.0-110.0-0.0","68.80000019073486","","","","51","0,0,1","1","highway","72","probe-142","0.4207053915331796","0.08291928390971942","0.9370350113649777","1","","","","","",""
"","do_trial","128","886565","0.0-111.0-0.0","1271.0999999046326","","","","50","0,0,1","1","highway","73","probe-178","0.4807499789581895","0.11761483201850909","0.8917822649324813","0","","","","","",""
"","do_trial","129","892733","0.0-112.0-0.0","597.8000001907349","","","","51","0,1,1","1","highway","74","probe-63","0.5563260292506035","0.13510233359964352","0.8480085734601227","1","","","","","",""
"","do_trial","130","899310","0.0-113.0-0.0","1022.8000001907349","","","","51","0,0,1","1","highway","75","probe-47","0.2860742289328177","0.23211784136918126","0.800850615326586","1","","","","","",""
"","do_trial","131","905413","0.0-114.0-0.0","525.0999999046326","","","","51","0,0,1","1","highway","76","probe-235","0.44957035003964796","0.22928707754697258","0.8876481935889955","1","","","","","",""
"","do_trial","132","911490","0.0-115.0-0.0","null","","","","null","1,0,1","1","highway","77","probe-169","0.5168549905212536","0.08387407165732629","0.9374393403468858","","","","","","",""
"","do_trial","133","917375","0.0-116.0-0.0","316.5","","","","51","1,0,1","1","highway","78","probe-237","0.3620946616836645","0.10260735873402174","0.8751596401313292","1","","","","","",""
"","do_trial","134","923501","0.0-117.0-0.0","553","","","","51","0,0,1","1","highway","79","probe-98","0.2600984077081368","0.05201583230606033","0.9475400777256505","1","","","","","",""
"","do_bye","135","925006","0.0-118.0-0.0","null","","","","null","","","","","","","","","","","","","","",""
"","do_travel","136","931012","0.0-119.0-0.0","null","","","","null","","","","","","","","","","","","","","",""
"","do_welcome","137","932532","0.0-119.0-1.0","null","","","","null","","","","","","","","","","","","","","",""
"","do_trial","138","940295","0.0-120.0-0.0","2208.5999999046326","","","","49","0,0,1","2","countryside","80","probe-19","0.2776349894760334","0.08983322915632343","1","0","","","","","",""
"","do_trial","139","945848","0.0-121.0-0.0","0.3000001907348633","","","","50","0,0,1","2","countryside","81","probe-196","0.2663023708161448","0.1864117891716868","1","0","","","","","",""
"","do_trial","140","952042","0.0-122.0-0.0","634.1999998092651","","","","51","0,0,1","2","countryside","82","probe-134","0.3567766296547293","0.1942679484386808","1","1","","","","","",""
"","do_trial","141","957931","0.0-123.0-0.0","321.1000003814697","","","","51","0,0,1","2","countryside","83","probe-78","0.41823054812233135","0.13772036707839866","1","1","","","","","",""
"","do_trial","142","963825","0.0-124.0-0.0","340.19999980926514","","","","51","0,1,1","2","countryside","84","probe-72","0.5049141339188382","0.20321675836391032","0.8035173407877717","1","","","","","",""
"","do_trial","143","969721","0.0-125.0-0.0","325.8999996185303","","","","51","0,0,1","2","countryside","85","probe-232","0.34931406311384394","0.15579822507243515","0.7153992128136996","1","","","","","",""
"","do_trial","144","975700","0.0-126.0-0.0","417","","","","51","0,1,1","2","countryside","86","probe-120","0.3925506692900113","0.1009385050063795","0.6853390830981603","1","","","","","",""
"","do_trial","145","982022","0.0-127.0-0.0","754.0999999046326","","","","51","1,1,0","2","countryside","87","probe-231","0.4326242708502469","0.11250385293731363","0.7528003722973512","0","","","","","",""
"","do_trial","146","988085","0.0-128.0-0.0","498.40000009536743","","","","51","0,0,1","2","countryside","88","probe-42","0.39319333957187647","0.17132906735314843","0.7140442217694007","1","","","","","",""
"","do_trial","147","994597","0.0-129.0-0.0","966.6999998092651","","","","51","0,0,1","2","countryside","89","probe-181","0.3891255642632937","0.19758772197896535","0.8950234399529091","1","","","","","",""
"","do_trial","148","1002281","0.0-130.0-0.0","2132","","","","51","1,1,1","2","countryside","90","probe-76","0.5148529322404973","0.11986011800374861","0.7354052181783881","1","","","","","",""
"","do_trial","149","1008677","0.0-131.0-0.0","825.4000000953674","","","","51","0,0,0","2","countryside","91","probe-192","0.4932502634004902","0.1301197235222872","0.5075831112339001","0","","","","","",""
"","do_trial","150","1014955","0.0-132.0-0.0","706.5","","","","51","1,0,0","2","countryside","92","probe-55","0.6510685115517839","0.14935367732653393","0.3202104123600039","0","","","","","",""
"","do_trial","151","1020836","0.0-133.0-0.0","314.2999997138977","","","","50","0,0,1","2","countryside","93","probe-163","0.7293156547999878","0.11104680378242163","0.3727232703363584","0","","","","","",""
"","do_trial","152","1026457","0.0-134.0-0.0","72.19999980926514","","","","51","1,0,0","2","countryside","94","probe-53","0.7482656407789838","0.05008834222817452","0.18096490928256947","0","","","","","",""
"","do_trial","153","1032226","0.0-135.0-0.0","204.5","","","","49","1,0,0","2","countryside","95","probe-11","0.8067918999397716","0.11413066484490461","0.43494027039785893","1","","","","","",""
"","do_trial","154","1039568","0.0-136.0-0.0","1789.5999999046326","","","","49","0,1,0","2","countryside","96","probe-35","0.8389034432637007","0.2588556465600571","0.4158784322589111","0","","","","","",""
"","do_trial","155","1045865","0.0-137.0-0.0","738","","","","49","1,0,1","2","countryside","97","probe-65","0.8817820840463266","0.243823927731467","0.35319990062652723","1","","","","","",""
"","do_trial","156","1052107","0.0-138.0-0.0","671.4000000953674","","","","49","1,1,0","2","countryside","98","probe-240","0.9423587046805147","0.25457020712492884","0.31884795142172945","1","","","","","",""
"","do_trial","157","1058775","0.0-139.0-0.0","1103.2999997138977","","","","49","1,0,1","2","countryside","99","probe-128","0.8394126185899714","0.13337303437666273","0.3460042247265628","1","","","","","",""
"","do_trial","158","1065146","0.0-140.0-0.0","815.4000000953674","","","","49","1,0,1","2","countryside","100","probe-28","0.715879036742617","0.14036043133886714","0.3050990307870413","1","","","","","",""
"","do_trial","159","1071283","0.0-141.0-0.0","587.6999998092651","","","","49","1,0,1","2","countryside","101","probe-106","0.7782359977252058","0.11073453006570765","0.32198319182277796","1","","","","","",""
"","do_trial","160","1077359","0.0-142.0-0.0","null","","","","null","1,0,0","2","countryside","102","probe-213","0.7742241239630346","0.06697673985236917","0.16868511703276132","","","","","","",""
"","do_trial","161","1083289","0.0-143.0-0.0","357.09999990463257","","","","49","0,0,0","2","countryside","103","probe-233","0.8193662658401171","0.07872674715194303","0.16423591993136494","0","","","","","",""
"","do_trial","162","1090654","0.0-144.0-0.0","1805.4000000953674","","","","49","1,0,1","2","countryside","104","probe-131","0.695954802520309","0.13014535475739716","0.25337911670255914","1","","","","","",""
"","do_trial","163","1097730","0.0-145.0-0.0","1510.0999999046326","","","","49","0,0,1","2","countryside","105","probe-82","0.7351339480529165","0.13937188358191546","0.3887344462751026","0","","","","","",""
"","do_trial","164","1103660","0.0-146.0-0.0","373","","","","49","1,0,1","2","countryside","106","probe-07","0.7856952741747582","0.22323067528581095","0.5419726032119458","1","","","","","",""
"","do_trial","165","1109541","0.0-147.0-0.0","316","","","","49","0,0,1","2","countryside","107","probe-208","0.9231734536501028","0.2192326683599868","0.5845300067857769","0","","","","","",""
"","do_trial","166","1117460","0.0-148.0-0.0","2340.5999999046326","","","","49","1,0,0","2","countryside","108","probe-58","0.8792943467933926","0.2537601587410332","0.4966595554300624","1","","","","","",""
"","do_trial","167","1124630","0.0-149.0-0.0","1606.9000000953674","","","","49","1,0,0","2","countryside","109","probe-124","0.6814613043819939","0.18163659051460967","0.5000727623698437","1","","","","","",""
"","do_trial","168","1131181","0.0-150.0-0.0","980.5","","","","49","1,0,1","2","countryside","110","probe-190","0.7959994461708942","0.14836211586024653","0.6451270941353979","1","","","","","",""
"","do_trial","169","1137003","0.0-151.0-0.0","272.80000019073486","","","","49","1,0,0","2","countryside","111","probe-238","0.7131683143149781","0.1590616173240179","0.4337836162339454","1","","","","","",""
"","do_trial","170","1142942","0.0-152.0-0.0","375.59999990463257","","","","49","1,0,0","2","countryside","112","probe-69","0.78050437691245","0.14766825503380132","0.4006418977952893","1","","","","","",""
"","do_trial","171","1149549","0.0-153.0-0.0","1052.2000002861023","","","","49","1,0,0","2","countryside","113","probe-45","0.7597387779099657","0.06243126507452803","0.35661920933633945","1","","","","","",""
"","do_trial","172","1157218","0.0-154.0-0.0","2118.5","","","","49","1,0,0","2","countryside","114","probe-16","0.7950576760985879","0.07843799415616548","0.3779072203539333","1","","","","","",""
"","do_trial","173","1162837","0.0-155.0-0.0","65.5","","","","49","1,0,0","2","countryside","115","probe-30","0.8045068092453486","0.15508769553919818","0.3551124031206517","1","","","","","",""
"","do_trial","174","1168555","0.0-156.0-0.0","159.90000009536743","","","","49","1,0,1","2","countryside","116","probe-94","0.8302237625976854","0.12033675686236281","0.3099222620561515","1","","","","","",""
"","do_trial","175","1175941","0.0-157.0-0.0","1830.0999999046326","","","","49","0,1,0","2","countryside","117","probe-01","0.8346957023096249","0.225450957120346","0.37908832035634443","0","","","","","",""
"","do_trial","176","1182002","0.0-158.0-0.0","506.59999990463257","","","","49","1,0,0","2","countryside","118","probe-193","0.8906542392341251","0.2924549216758336","0.27629038616858254","1","","","","","",""
"","do_trial","177","1188931","0.0-159.0-0.0","1382","","","","49","1,0,1","2","countryside","119","probe-225","0.6932084274252565","0.21550409195621098","0.49847835767014104","1","","","","","",""
"","do_bye","178","1190447","0.0-160.0-0.0","null","","","","null","","","","","","","","","","","","","","",""
"","do_travel","179","1196456","0.0-161.0-0.0","null","","","","null","","","","","","","","","","","","","","",""
"","do_welcome","180","1197976","0.0-161.0-1.0","null","","","","null","","","","","","","","","","","","","","",""
"","do_trial","181","1205357","0.0-162.0-0.0","1825.0999999046326","","","","51","1,1,1","3","coast","120","probe-36","1","0.26974428662909483","0.4300422194817905","1","","","","","",""
"","do_trial","182","1211823","0.0-163.0-0.0","901.0999999046326","","","","51","1,0,1","3","coast","121","probe-06","1","0.2503641536455564","0.4936322714047715","1","","","","","",""
"","do_trial","183","1217775","0.0-164.0-0.0","382.7000002861023","","","","51","1,0,1","3","coast","122","probe-223","1","0.06648114107369608","0.4817580820496076","1","","","","","",""
"","do_trial","184","1224177","0.0-165.0-0.0","837.4000000953674","","","","51","1,0,1","3","coast","123","probe-56","1","0.1720195929474596","0.5133971742726919","1","","","","","",""
"","do_trial","185","1230271","0.0-166.0-0.0","527.4000000953674","","","","51","1,1,1","3","coast","124","probe-97","0.8626160372405256","0.1374335667219887","0.448010775816541","1","","","","","",""
"","do_trial","186","1236301","0.0-167.0-0.0","456","","","","51","1,0,0","3","coast","125","probe-176","0.7475800047107629","0.14659867571247623","0.4851534712510548","0","","","","","",""
"","do_trial","187","1242419","0.0-168.0-0.0","557.0999999046326","","","","51","1,0,0","3","coast","126","probe-80","0.7443344252752704","0.28955898833123384","0.4908408478122708","0","","","","","",""
"","do_trial","188","1248346","0.0-169.0-0.0","367.5","","","","50","0,0,1","3","coast","127","probe-48","0.6727184211143734","0.2520810770841099","0.2978691786757935","0","","","","","",""
"","do_trial","189","1254413","0.0-170.0-0.0","508.59999990463257","","","","51","1,0,1","3","coast","128","probe-166","0.9019484416530422","0.2141101261276177","0.4708716703035914","1","","","","","",""
"","do_trial","190","1260518","0.0-171.0-0.0","535.5999999046326","","","","51","1,0,0","3","coast","129","probe-09","0.8624788248536966","0.09756201927361552","0.47378246613438424","0","","","","","",""
"","do_trial","191","1268015","0.0-172.0-0.0","1933.9000000953674","","","","51","1,0,0","3","coast","130","probe-83","0.5870450679440145","0.07209224459443707","0.4798896907534626","0","","","","","",""
"","do_trial","192","1274084","0.0-173.0-0.0","516.7000002861023","","","","51","0,1,0","3","coast","131","probe-234","0.3827119728373065","0.10282546678536285","0.6354891388929625","0","","","","","",""
"","do_trial","193","1279652","0.0-174.0-0.0","0.09999990463256836","","","","51","1,0,1","3","coast","132","probe-215","0.3910297703304157","0.09396873853151606","0.8439305990053394","1","","","","","",""
"","do_trial","194","1285719","0.0-175.0-0.0","null","","","","null","0,0,1","3","coast","133","probe-66","0.4695915895675759","0.07515420223061309","0.815361776914732","","","","","","",""
"","do_trial","195","1291768","0.0-176.0-0.0","487","","","","51","0,0,1","3","coast","134","probe-13","0.5838469503008396","0.1106920051821112","0.6987888923416772","1","","","","","",""
"","do_trial","196","1298146","0.0-177.0-0.0","816.9000000953674","","","","51","0,1,1","3","coast","135","probe-89","0.4603033878872115","0.07865587123411617","0.8096388892814088","1","","","","","",""
"","do_trial","197","1304342","0.0-178.0-0.0","646.9000000953674","","","","51","1,0,1","3","coast","136","probe-67","0.47631549645806004","0.10369094968914545","0.846156348791196","1","","","","","",""
"","do_trial","198","1310198","0.0-179.0-0.0","294.40000009536743","","","","51","1,0,1","3","coast","137","probe-22","0.3838612342641845","0.07869082031449363","0.8305024416475444","1","","","","","",""
"","do_trial","199","1316044","0.0-180.0-0.0","280.69999980926514","","","","51","0,0,1","3","coast","138","probe-32","0.33835609015930573","0.0875418998285801","0.8886810358334364","1","","","","","",""
"","do_trial","200","1322267","0.0-181.0-0.0","668.5","","","","51","0,0,1","3","coast","139","probe-64","0.35312789244115583","0.06209525948153116","0.8938605847946961","1","","","","","",""
"","do_trial","201","1328999","0.0-182.0-0.0","1161.9000000953674","","","","51","0,0,1","3","coast","140","probe-05","0.44646567852280733","0.26919969186786225","0.876024977555315","1","","","","","",""
"","do_trial","202","1335214","0.0-183.0-0.0","657.7000002861023","","","","51","0,0,1","3","coast","141","probe-91","0.5824261469698674","0.22123491344571133","0.8676781871173768","1","","","","","",""
"","do_trial","203","1341250","0.0-184.0-0.0","463.5","","","","51","0,1,1","3","coast","142","probe-121","0.5156411615126555","0.2863112714640589","0.8787765480062905","1","","","","","",""
"","do_trial","204","1347314","0.0-185.0-0.0","null","","","","null","1,0,1","3","coast","143","probe-54","0.5803560020342361","0.2954643533958831","0.8885063506628482","","","","","","",""
"","do_trial","205","1353253","0.0-186.0-0.0","371.7000002861023","","","","51","1,0,0","3","coast","144","probe-203","0.6784865959378644","0.11637785051722324","0.8498931900915241","0","","","","","",""
"","do_trial","206","1359300","0.0-187.0-0.0","470.59999990463257","","","","51","0,0,1","3","coast","145","probe-21","0.4498741452159866","0.05758119395766705","0.9173144254104751","1","","","","","",""
"","do_trial","207","1365582","0.0-188.0-0.0","719.3999996185303","","","","51","0,0,1","3","coast","146","probe-29","0.4160620527545392","0.11431965972681325","0.864673408168198","1","","","","","",""
"","do_trial","208","1372499","0.0-189.0-0.0","1341.9000000953674","","","","51","1,0,1","3","coast","147","probe-133","0.3686739549394568","0.12395327798958768","0.7814814729163072","1","","","","","",""
"","do_trial","209","1378556","0.0-190.0-0.0","null","","","","null","0,0,1","3","coast","148","probe-167","0.34324130904959754","0.08579193768351281","0.8114333387219056","","","","","","",""
"","do_trial","210","1384929","0.0-191.0-0.0","815.6000003814697","","","","51","0,0,1","3","coast","149","probe-170","0.47624714216755115","0.09797830058691227","0.848581465846016","1","","","","","",""
"","do_trial","211","1391340","0.0-192.0-0.0","854.0999999046326","","","","51","0,0,1","3","coast","150","probe-144","0.43189041729582245","0.17955490816053277","0.8458894813337274","1","","","","","",""
"","do_trial","212","1397631","0.0-193.0-0.0","724.6999998092651","","","","51","0,0,0","3","coast","151","probe-108","0.4065834041332224","0.12396918415795485","0.7382757807281977","0","","","","","",""
"","do_trial","213","1403964","0.0-194.0-0.0","774.9000000953674","","","","51","1,0,1","3","coast","152","probe-136","0.33108011041417934","0.05977846370338699","0.7190834541677293","1","","","","","",""
"","do_trial","214","1410653","0.0-195.0-0.0","1130.9000000953674","","","","51","0,0,0","3","coast","153","probe-239","0.5109190826567154","0.1762078404867569","0.8644529514037594","0","","","","","",""
"","do_trial","215","1416516","0.0-196.0-0.0","297.7999997138977","","","","50","1,0,1","3","coast","154","probe-216","0.5837240047459135","0.15337591147602603","0.8389673223520623","0","","","","","",""
"","do_trial","216","1422611","0.0-197.0-0.0","540.4000000953674","","","","49","0,0,1","3","coast","155","probe-211","0.47302257714490004","0.17572686232985088","0.8065742194415421","0","","","","","",""
"","do_trial","217","1429262","0.0-198.0-0.0","1090.8000001907349","","","","50","0,0,1","3","coast","156","probe-96","0.34192179111069165","0.07637351211609876","0.8390712593753108","0","","","","","",""
"","do_trial","218","1435991","0.0-199.0-0.0","1180.2000002861023","","","","50","0,0,1","3","coast","157","probe-117","0.34190108411131415","0.07375411166555496","0.8983613724477266","0","","","","","",""
"","do_trial","219","1442617","0.0-200.0-0.0","1061","","","","50","1,0,0","3","coast","158","probe-173","0.2063376587847045","0.06584872890997291","0.8523623906093958","0","","","","","",""
"","do_trial","220","1448465","0.0-201.0-0.0","290.2000002861023","","","","50","0,0,1","3","coast","159","probe-46","0.20095836135251152","0.07963980687305008","0.7627952728182887","0","","","","","",""
"","do_bye","221","1449983","0.0-202.0-0.0","null","","","","null","","","","","","","","","","","","","","",""
"","do_travel","222","1455985","0.0-203.0-0.0","null","","","","null","","","","","","","","","","","","","","",""
"","do_welcome","223","1457500","0.0-203.0-1.0","null","","","","null","","","","","","","","","","","","","","",""
"","do_trial","224","1464552","0.0-204.0-0.0","1483.4000000953674","","","","49","1,1,1","4","forest","160","probe-84","0.16040229954337265","0.180394093365995","1","1","","","","","",""
"","do_trial","225","1471092","0.0-205.0-0.0","968.6999998092651","","","","49","0,0,1","4","forest","161","probe-02","0.10347638833410003","0.1634422579552156","1","0","","","","","",""
"","do_trial","226","1476925","0.0-206.0-0.0","275.59999990463257","","","","49","0,0,1","4","forest","162","probe-156","0.14176357271887455","0.201480154082229","1","0","","","","","",""
"","do_trial","227","1482575","0.0-207.0-0.0","72.40000009536743","","","","50","0,0,1","4","forest","163","probe-174","0.2502583503943239","0.12108627343979722","1","0","","","","","",""
"","do_trial","228","1488838","0.0-208.0-0.0","692.7000002861023","","","","51","0,0,0","4","forest","164","probe-51","0.2595894213435424","0.0741327880721343","0.9253074505538355","0","","","","","",""
"","do_trial","229","1494930","0.0-209.0-0.0","520.5999999046326","","","","50","0,0,0","4","forest","165","probe-204","0.27850150402248747","0.1090309569333439","0.7709200857541114","0","","","","","",""
"","do_trial","230","1501177","0.0-210.0-0.0","666.0999999046326","","","","50","0,0,1","4","forest","166","probe-123","0.36722576258645545","0.08434137278265592","0.7273892000333037","0","","","","","",""
"","do_trial","231","1507143","0.0-211.0-0.0","416.40000009536743","","","","49","0,0,1","4","forest","167","probe-41","0.3230562709656975","0.13294758321829292","0.8143073454271353","0","","","","","",""
"","do_trial","232","1513469","0.0-212.0-0.0","775.7000002861023","","","","49","0,0,0","4","forest","168","probe-40","0.2673490462976959","0.16935645377521333","0.7715990403186294","0","","","","","",""
"","do_trial","233","1520323","0.0-213.0-0.0","1277.8999996185303","","","","49","0,0,0","4","forest","169","probe-205","0.353888278669084","0.22354479491227408","0.7627358932738545","0","","","","","",""
"","do_trial","234","1527238","0.0-214.0-0.0","1350.5","","","","51","0,0,1","4","forest","170","probe-101","0.6012586422429701","0.2618908325558404","0.6542670111928268","1","","","","","",""
"","do_trial","235","1533307","0.0-215.0-0.0","496","","","","51","1,0,1","4","forest","171","probe-38","0.521232919022952","0.43927287962764894","0.3684527716129074","1","","","","","",""
"","do_trial","236","1541477","0.0-216.0-0.0","2621.199999809265","","","","51","0,0,1","4","forest","172","probe-159","0.6973143711983854","0.40281833538054157","0.3014720875680938","1","","","","","",""
"","do_trial","237","1547554","0.0-217.0-0.0","null","","","","null","1,1,1","4","forest","173","probe-214","0.7404134251538598","0.5189176833129538","0.23485068118328037","","","","","","",""
"","do_trial","238","1554048","0.0-218.0-0.0","914.5999999046326","","","","49","1,0,0","4","forest","174","probe-86","0.7738443006244948","0.5476851355634563","0.10595545844903356","1","","","","","",""
"","do_trial","239","1560361","0.0-219.0-0.0","735.9000000953674","","","","49","0,1,0","4","forest","175","probe-25","0.8621778717699118","0.4544813755349831","0.18386095809602068","0","","","","","",""
"","do_trial","240","1567339","0.0-220.0-0.0","1411.2000002861023","","","","49","0,0,0","4","forest","176","probe-95","0.8014009741046317","0.4560853897009086","0.18139912053803206","0","","","","","",""
"","do_trial","241","1575009","0.0-221.0-0.0","2109.6000003814697","","","","49","0,0,0","4","forest","177","probe-57","0.8071429194711339","0.4239694998508027","0.2349667981925663","0","","","","","",""
"","do_trial","242","1581220","0.0-222.0-0.0","650.3000001907349","","","","49","1,1,0","4","forest","178","probe-93","0.9187001990265123","0.3790498273689529","0.11847232797223768","1","","","","","",""
"","do_trial","243","1587193","0.0-223.0-0.0","399.09999990463257","","","","49","1,0,0","4","forest","179","probe-139","0.9110586035659743","0.29687109003308576","0.11997468282182469","1","","","","","",""
"","do_trial","244","1593283","0.0-224.0-0.0","null","","","","null","1,1,1","4","forest","180","probe-130","0.8775847025110838","0.3966222323991328","0.18965638164084728","","","","","","",""
"","do_trial","245","1599280","0.0-225.0-0.0","433.2000002861023","","","","49","1,1,0","4","forest","181","probe-227","0.8832898184247511","0.4996343098519672","0.14281716370390932","1","","","","","",""
"","do_trial","246","1607280","0.0-226.0-0.0","2431.2999997138977","","","","49","1,1,0","4","forest","182","probe-155","0.7601920577908967","0.5462275634480108","0.25465771963783285","1","","","","","",""
"","do_trial","247","1613565","0.0-227.0-0.0","711.8000001907349","","","","49","1,0,1","4","forest","183","probe-43","0.7571887625919668","0.5135494711068336","0.32012802832009135","1","","","","","",""
"","do_trial","248","1620187","0.0-228.0-0.0","1053.6999998092651","","","","49","1,1,1","4","forest","184","probe-74","0.8436055211135066","0.6824355869578076","0.14040201659946028","1","","","","","",""
"","do_trial","249","1627355","0.0-229.0-0.0","1591.5999999046326","","","","49","1,0,1","4","forest","185","probe-17","0.878269668410523","0.5601754304309002","0.10312366309651388","1","","","","","",""
"","do_trial","250","1633567","0.0-230.0-0.0","644.5999999046326","","","","49","1,1,0","4","forest","186","probe-75","0.8507761297075749","0.42170956743144417","0.09378055863713837","1","","","","","",""
"","do_trial","251","1639580","0.0-231.0-0.0","450.6000003814697","","","","49","1,0,0","4","forest","187","probe-210","0.9096984735644914","0.5433556126040513","0.21313971730237838","1","","","","","",""
"","do_trial","252","1645906","0.0-232.0-0.0","743.0999999046326","","","","49","1,1,0","4","forest","188","probe-71","0.880805753598885","0.4181625194517511","0.11152490282045151","1","","","","","",""
"","do_trial","253","1651469","0.0-233.0-0.0","0.2999997138977051","","","","49","1,0,0","4","forest","189","probe-152","0.8931597278200869","0.38878651287239757","0.11953667897495329","1","","","","","",""
"","do_trial","254","1657721","0.0-234.0-0.0","685.4000000953674","","","","49","0,1,0","4","forest","190","probe-118","0.8350725599147836","0.5540534953552444","0.08275308935738693","0","","","","","",""
"","do_trial","255","1664256","0.0-235.0-0.0","960.8000001907349","","","","49","0,0,0","4","forest","191","probe-105","0.8061796620866017","0.434874990408456","0.12519741582910685","0","","","","","",""
"","do_trial","256","1671185","0.0-236.0-0.0","1358.5","","","","49","1,1,1","4","forest","192","probe-149","0.7009629138369737","0.3303417361596076","0.1410585404481155","1","","","","","",""
"","do_trial","257","1677156","0.0-237.0-0.0","400.09999990463257","","","","49","0,0,1","4","forest","193","probe-206","0.6058881165173989","0.3823708467205406","0.13037202052130278","0","","","","","",""
"","do_trial","258","1684493","0.0-238.0-0.0","1757.3000001907349","","","","49","1,1,0","4","forest","194","probe-198","0.8281827934074211","0.42643812868336833","0.11693017579266783","1","","","","","",""
"","do_trial","259","1690061","0.0-239.0-0.0","0.20000028610229492","","","","49","1,1,0","4","forest","195","probe-68","0.8948545203996203","0.633314758279229","0.2548300287225726","1","","","","","",""
"","do_trial","260","1696672","0.0-240.0-0.0","1033.3000001907349","","","","49","1,1,0","4","forest","196","probe-119","0.9401673409578242","0.5693417421892316","0.06434465202871366","1","","","","","",""
"","do_trial","261","1702753","0.0-241.0-0.0","null","","","","null","1,0,0","4","forest","197","probe-202","0.9304251764842694","0.5593242683762538","0.05623558321779294","","","","","","",""
"","do_trial","262","1709763","0.0-242.0-0.0","1439.8999996185303","","","","49","1,0,0","4","forest","198","probe-33","0.821624097116008","0.4396209815199146","0.18621269242343894","1","","","","","",""
"","do_trial","263","1716262","0.0-243.0-0.0","924.3999996185303","","","","49","0,1,0","4","forest","199","probe-85","0.7632364672192182","0.5098074390620407","0.06922160321188978","0","","","","","",""
"","do_bye","264","1717779","0.0-244.0-0.0","null","","","","null","","","","","","","","","","","","","","",""
"","do_travel","265","1723794","0.0-245.0-0.0","null","","","","null","","","","","","","","","","","","","","",""
"","do_welcome","266","1725313","0.0-245.0-1.0","null","","","","null","","","","","","","","","","","","","","",""
"","do_trial","267","1732239","0.0-246.0-0.0","1359.4000000953674","","","","50","1,1,0","5","mountain","200","probe-44","1","0.5314487765940568","0.17090783191464148","1","","","","","",""
"","do_trial","268","1738332","0.0-247.0-0.0","535.5","","","","50","1,0,0","5","mountain","201","probe-160","1","0.5685777634316445","0.054208015904513775","0","","","","","",""
"","do_trial","269","1744214","0.0-248.0-0.0","331.30000019073486","","","","50","1,1,0","5","mountain","202","probe-132","1","0.5212743574532785","0.11460078324312434","1","","","","","",""
"","do_trial","270","1751227","0.0-249.0-0.0","1456","","","","50","1,0,0","5","mountain","203","probe-61","1","0.4965712033544638","0.12640833076478802","0","","","","","",""
"","do_trial","271","1757273","0.0-250.0-0.0","493.40000009536743","","","","50","1,0,0","5","mountain","204","probe-182","0.906150000758486","0.3812983342048836","0.12203386590673518","0","","","","","",""
"","do_trial","272","1765557","0.0-251.0-0.0","2728.300000190735","","","","49","1,0,1","5","mountain","205","probe-229","0.9066347515895712","0.48626873831251294","0.1828762652508534","1","","","","","",""
"","do_trial","273","1771714","0.0-252.0-0.0","597.1000003814697","","","","49","1,0,0","5","mountain","206","probe-226","0.9495247418192466","0.390384291627147","0.20898792562937019","1","","","","","",""
"","do_trial","274","1778266","0.0-253.0-0.0","988.5","","","","49","1,0,0","5","mountain","207","probe-73","0.8942257120890696","0.43001395118510927","0.17321471143976433","1","","","","","",""
"","do_trial","275","1783867","0.0-254.0-0.0","42.700000286102295","","","","49","1,0,0","5","mountain","208","probe-135","0.7650284543065786","0.31205486199924115","0.13210753798621064","1","","","","","",""
"","do_trial","276","1790927","0.0-255.0-0.0","1498.1999998092651","","","","49","1,0,0","5","mountain","209","probe-113","0.8851767566099005","0.22551911090302412","0.20984659778716905","1","","","","","",""
"","do_trial","277","1797898","0.0-256.0-0.0","1427.2000002861023","","","","49","1,0,1","5","mountain","210","probe-116","0.6677454063899886","0.2823418437968181","0.4175182110966628","1","","","","","",""
"","do_trial","278","1804104","0.0-257.0-0.0","639.6999998092651","","","","49","0,0,0","5","mountain","211","probe-127","0.504380951394893","0.2970250491669077","0.5234544622893069","0","","","","","",""
"","do_trial","279","1810098","0.0-258.0-0.0","432.19999980926514","","","","49","0,1,1","5","mountain","212","probe-18","0.2710540575640093","0.41439523064468975","0.6173495761687462","0","","","","","",""
"","do_trial","280","1815981","0.0-259.0-0.0","330.19999980926514","","","","49","0,1,0","5","mountain","213","probe-188","0.19751916844406603","0.352872120122923","0.8267615410506666","0","","","","","",""
"","do_trial","281","1821826","0.0-260.0-0.0","290.80000019073486","","","","50","0,0,0","5","mountain","214","probe-172","0.1834528643224256","0.2831998551687268","0.8729859681018466","0","","","","","",""
"","do_trial","282","1827730","0.0-261.0-0.0","340","","","","51","0,0,1","5","mountain","215","probe-122","0.10595072094349035","0.222867456021255","0.7360095485087575","1","","","","","",""
"","do_trial","283","1834041","0.0-262.0-0.0","743","","","","51","0,0,1","5","mountain","216","probe-220","0.2060370530250959","0.4358385648614651","0.8406839425162774","1","","","","","",""
"","do_trial","284","1840113","0.0-263.0-0.0","521.5","","","","51","0,0,1","5","mountain","217","probe-20","0.22317222249783197","0.3884311406441242","0.8262197421700294","1","","","","","",""
"","do_trial","285","1846188","0.0-264.0-0.0","null","","","","null","1,1,1","5","mountain","218","probe-109","0.23439413772528003","0.3736635549092624","0.788495684957952","","","","","","",""
"","do_trial","286","1852014","0.0-265.0-0.0","262","","","","51","0,1,1","5","mountain","219","probe-129","0.2110873663706234","0.3678762263203262","0.7233524717559517","1","","","","","",""
"","do_trial","287","1857881","0.0-266.0-0.0","294","","","","51","0,1,1","5","mountain","220","probe-12","0.14727550017018404","0.485051526866854","0.707815660250954","1","","","","","",""
"","do_trial","288","1863888","0.0-267.0-0.0","436.2999997138977","","","","51","0,1,1","5","mountain","221","probe-92","0.15263585933362747","0.5064271667327581","0.7490562290449859","1","","","","","",""
"","do_trial","289","1869951","0.0-268.0-0.0","503.59999990463257","","","","51","1,0,1","5","mountain","222","probe-104","0.23267436406214728","0.459614650032897","0.7150635884242418","1","","","","","",""
"","do_trial","290","1875950","0.0-269.0-0.0","431.09999990463257","","","","51","0,0,1","5","mountain","223","probe-197","0.06994822544530614","0.31186928227455496","0.8374122986474845","1","","","","","",""
"","do_trial","291","1883586","0.0-270.0-0.0","2072.5999999046326","","","","51","0,1,1","5","mountain","224","probe-103","0.07120000790087234","0.421250449493842","0.7932211131966562","1","","","","","",""
"","do_trial","292","1890186","0.0-271.0-0.0","1032.0999999046326","","","","51","0,0,0","5","mountain","225","probe-04","0.14427598439891964","0.4546266095906244","0.6679478786430729","0","","","","","",""
"","do_trial","293","1896363","0.0-272.0-0.0","615.5","","","","51","0,1,1","5","mountain","226","probe-114","0.12813909472336577","0.4928138809073053","0.8053395983132988","1","","","","","",""
"","do_trial","294","1902892","0.0-273.0-0.0","980","","","","51","0,0,0","5","mountain","227","probe-112","0.14878129155127368","0.49784862835171917","0.7748081076748633","0","","","","","",""
"","do_trial","295","1909846","0.0-274.0-0.0","1394","","","","51","0,0,1","5","mountain","228","probe-157","0.20387491037471783","0.3959063466909472","0.7571173551444198","1","","","","","",""
"","do_trial","296","1915928","0.0-275.0-0.0","528.9000000953674","","","","51","0,1,1","5","mountain","229","probe-185","0.27774985582441036","0.37409475101614964","0.9032991023449566","1","","","","","",""
"","do_trial","297","1921984","0.0-276.0-0.0","null","","","","null","0,0,1","5","mountain","230","probe-161","0.06734463638170234","0.30859844582644985","0.845521305210695","","","","","","",""
"","do_trial","298","1927845","0.0-277.0-0.0","300.6000003814697","","","","51","0,1,0","5","mountain","231","probe-34","0.10593042904140233","0.45948283721139405","0.7535354622504042","0","","","","","",""
"","do_trial","299","1933402","0.0-278.0-0.0","0","","","","51","0,0,0","5","mountain","232","probe-27","0.1481647999023521","0.37899640662561146","0.7615545523420497","0","","","","","",""
"","do_trial","300","1940115","0.0-279.0-0.0","1150.2999997138977","","","","51","0,1,0","5","mountain","233","probe-81","0.13998967372905316","0.348905930728","0.7756576671001691","0","","","","","",""
"","do_trial","301","1946277","0.0-280.0-0.0","613.9000000953674","","","","51","0,0,0","5","mountain","234","probe-200","0.15230235271446055","0.47354526786579193","0.8022759249169659","0","","","","","",""
"","do_trial","302","1952694","0.0-281.0-0.0","850.1999998092651","","","","50","0,0,1","5","mountain","235","probe-10","0.14742585014319648","0.3543006009714654","0.7680980175994578","0","","","","","",""
"","do_trial","303","1958910","0.0-282.0-0.0","664.1000003814697","","","","49","0,0,0","5","mountain","236","probe-179","0.10979307055626013","0.39567629950973726","0.7734213731270486","0","","","","","",""
"","do_trial","304","1964911","0.0-283.0-0.0","435.90000009536743","","","","49","0,1,1","5","mountain","237","probe-50","0.1743755988105987","0.3591307847430004","0.7975085154059411","0","","","","","",""
"","do_trial","305","1971275","0.0-284.0-0.0","805.0999999046326","","","","49","0,0,1","5","mountain","238","probe-180","0.19144090212976067","0.27332795413086924","0.7269656909127972","0","","","","","",""
"","do_trial","306","1977424","0.0-285.0-0.0","574.8000001907349","","","","50","0,1,1","5","mountain","239","probe-236","0.1786852676083256","0.385086791892682","0.7350846885620304","1","","","","","",""
"","do_bye","307","1978937","0.0-286.0-0.0","null","","","","null","","","","","","","","","","","","","","",""
"","html-keyboard-response","308","1989216","0.0-286.0-1.0","10277.699999809265","<div class='center'><p>You may take a break now!</p><p> Stretch for a little bit. Get a glass of water.</p><p> You have two minutes to rest. Then, the game will automatically move on.</p><p>If you’d like to get started on the second half of the experiment sooner, then press the <b>space bar</b></p></div>","32","","","","","","","","","","","","","","","","",""
"","html-keyboard-response","309","2033381","0.0-286.0-2.0","44164.09999990463","<div class='center'><p>You’ve arrived at the final destination of your journey! Unfortunately, it’s very foggy out, so you won’t be able to see it in the distance like in previous places you've visited.</p><p>You’ll still be deciding which pirates you want to rob ships. However, because of the fog you also won’t be able to see the ship in the distance. </p><p><b>[Press the space bar to continue]</b></p></div>","32","","","","","","","","","","","","","","","","",""
"","html-keyboard-response","310","2050762","0.0-286.0-3.0","17378.800000190735","<div class='center'><p> Sometimes you’ll be asked if you’ve seen a ship before (see the example below). You will use the 5, 6, 7, 8 buttons on your keyboard to respond. </p><p> If you definitely did not see the ship, pick the the big red thumbs down by pressing <b>5</b>.</p><p> If you don’t think you saw it but aren’t sure, then pick the small red thumbs down by pressing <b>6</b>.</p><p> If you think you might have seen it, then pick the small green thumbs up by pressing <b>7</b>.</p><p> If you definitely did see this ship before, then pick the big thumb green thumbs up by pressing <b>8</b>.</p><p> If you recall correctly, then you’ll get a gold coin!</p><p><b>[Press the space bar to begin the next phase of the experiment]</b></p><p><img src='run_exp/static/images/example_recog_trial.png' height='500'></p></div>","32","","","","","","","","","","","","","","","","",""
"","do_welcome","311","2052267","0.0-286.0-4.0","null","","","","null","","","","","","","","","","","","","","",""
"","do_trial","312","2058329","0.0-287.0-0.0","null","","","","null","0,0,1","6","blank","240","null","0.2654124481767175","0.30688475512441415","1","","","","","","",""
"","do_recog","313","2063082","0.0-288.0-0.0","3245.4000000953674","","","","54","","","","241","probe-254","","","","","0","[object Object]","null","null","1",""
"","do_trial","314","2068314","0.0-289.0-0.0","1657.5999999046326","","","","49","1,0,1","6","blank","242","null","0.23069399870929602","0.24165782260782934","0.9387510784314923","1","","","","","",""
"","do_recog","315","2072507","0.0-290.0-0.0","2672.800000190735","","","","55","","","","243","probe-177","","","","","1","[object Object]","44","1","1",""
"","do_trial","316","2076611","0.0-291.0-0.0","533.5","","","","49","1,1,1","6","blank","244","null","0.2557361070399126","0.2277945091669633","0.9400717842884774","1","","","","","",""
"","do_recog","317","2080780","0.0-292.0-0.0","2647.2999997138977","","","","56","","","","245","probe-97","","","","","1","[object Object]","124","3","1",""
"","do_trial","318","2085807","0.0-293.0-0.0","1450.5","","","","49","0,1,1","6","blank","246","null","0.2139765480571993","0.40800871650450193","0.9128328814881528","0","","","","","",""
"","do_recog","319","2089062","0.0-294.0-0.0","1743","","","","56","","","","247","probe-02","","","","","1","[object Object]","161","4","1",""
"","do_trial","320","2094333","0.0-295.0-0.0","1713.5","","","","51","0,1,1","6","blank","248","null","0.15650549373126166","0.4739656189518363","0.9369610385646163","1","","","","","",""
"","do_trial","321","2098511","0.0-296.0-0.0","611.9000000953674","","","","51","0,0,0","6","blank","249","null","0.11639593831076289","0.4447846034692542","0.9166404405528","0","","","","","",""
"","do_trial","322","2102295","0.0-297.0-0.0","236.7999997138977","","","","51","0,1,1","6","blank","250","null","0.16385066904778547","0.41635583145873467","0.8870554442248414","1","","","","","",""
"","do_trial","323","2106348","0.0-298.0-0.0","503.30000019073486","","","","51","0,0,1","6","blank","251","null","0.20609815150650998","0.3818230909537112","0.8017729349864489","1","","","","","",""
"","do_trial","324","2110270","0.0-299.0-0.0","347.09999990463257","","","","51","1,0,0","6","blank","252","null","0.15122127142378966","0.3744551633452281","0.7054281908855667","0","","","","","",""
"","do_recog","325","2113545","0.0-300.0-0.0","1764.7999997138977","","","","56","","","","253","probe-84","","","","","1","[object Object]","160","4","1",""
"","do_trial","326","2117549","0.0-301.0-0.0","431","","","","51","0,0,1","6","blank","254","null","0.09174879567772973","0.3780046908849222","0.7759420732951361","1","","","","","",""
"","do_recog","327","2121074","0.0-302.0-0.0","2012.8999996185303","","","","53","","","","255","probe-181","","","","","1","[object Object]","89","2","0",""
"","do_trial","328","2124995","0.0-303.0-0.0","360.19999980926514","","","","51","0,0,1","6","blank","256","null","0.06613933240167671","0.5028538964865035","0.662963316952072","1","","","","","",""
"","do_recog","329","2128347","0.0-304.0-0.0","1842.6999998092651","","","","53","","","","257","probe-259","","","","","0","[object Object]","null","null","1",""
"","do_trial","330","2132348","0.0-305.0-0.0","455.5","","","","51","0,0,0","6","blank","258","null","0.07468085675184634","0.45303342345236064","0.47646678741427784","0","","","","","",""
"","do_recog","331","2135750","0.0-306.0-0.0","1890.9000000953674","","","","53","","","","259","probe-252","","","","","0","[object Object]","null","null","1",""
"","do_trial","332","2139758","0.0-307.0-0.0","451.19999980926514","","","","50","0,1,1","6","blank","260","null","0.07470944680166026","0.628813442545994","0.44228019915457484","1","","","","","",""
"","do_trial","333","2144209","0.0-308.0-0.0","882.7999997138977","","","","50","0,0,0","6","blank","261","null","0.09873711800343919","0.6630036451347564","0.5669624948991892","0","","","","","",""
"","do_recog","334","2147586","0.0-309.0-0.0","1862.3000001907349","","","","56","","","","262","probe-156","","","","","1","[object Object]","162","4","1",""
"","do_trial","335","2152591","0.0-310.0-0.0","1452","","","","50","0,1,1","6","blank","263","null","0.16319260530948218","0.6023811098461737","0.4528280449920864","1","","","","","",""
"","do_recog","336","2156653","0.0-311.0-0.0","2538.800000190735","","","","56","","","","264","probe-06","","","","","1","[object Object]","121","3","1",""
"","do_trial","337","2161107","0.0-312.0-0.0","882.4000000953674","","","","50","0,1,1","6","blank","265","null","0.16608443798106215","0.7355055815674162","0.4180315697457862","1","","","","","",""
"","do_trial","338","2165099","0.0-313.0-0.0","441.09999990463257","","","","50","0,1,0","6","blank","266","null","0.14075217596736492","0.7803409644091095","0.3543464809433693","1","","","","","",""
"","do_recog","339","2168804","0.0-314.0-0.0","2192.9000000953674","","","","53","","","","267","probe-126","","","","","1","[object Object]","43","1","0",""
"","do_trial","340","2172977","0.0-315.0-0.0","603.8000001907349","","","","50","1,1,0","6","blank","268","null","0.3237134373752379","0.7609910915198055","0.40671305822978976","1","","","","","",""
"","do_recog","341","2175518","0.0-316.0-0.0","1029.7999997138977","","","","54","","","","269","probe-113","","","","","1","[object Object]","209","5","0",""
"","do_trial","342","2179398","0.0-317.0-0.0","304.7000002861023","","","","50","1,1,1","6","blank","270","null","0.29346298634660806","0.8681060254010114","0.3327310144149076","1","","","","","",""
"","do_recog","343","2183162","0.0-318.0-0.0","2248.199999809265","","","","55","","","","271","probe-40","","","","","1","[object Object]","168","4","1",""
"","do_trial","344","2187918","0.0-319.0-0.0","1179.3000001907349","","","","50","0,1,0","6","blank","272","null","0.2944045231465538","0.8284692211593779","0.3403873662275322","1","","","","","",""
"","do_recog","345","2190732","0.0-320.0-0.0","1291.9000000953674","","","","56","","","","273","probe-229","","","","","1","[object Object]","205","5","1",""
"","do_trial","346","2194607","0.0-321.0-0.0","301.40000009536743","","","","50","0,1,0","6","blank","274","null","0.11171076996629406","0.7880902535487887","0.2689968752467019","1","","","","","",""
"","do_recog","347","2197547","0.0-322.0-0.0","1424.2000002861023","","","","56","","","","275","probe-154","","","","","1","[object Object]","46","1","1",""
"","do_trial","348","2201504","0.0-323.0-0.0","396.5","","","","51","0,1,0","6","blank","276","null","0.06478276266055127","0.8061441217642762","0.14788586198563602","0","","","","","",""
"","do_trial","349","2205675","0.0-324.0-0.0","593","","","","50","0,1,0","6","blank","277","null","0.16829531305428397","0.8045460299948086","0.37997303050274706","1","","","","","",""
"","do_trial","350","2209755","0.0-325.0-0.0","504.09999990463257","","","","50","1,0,0","6","blank","278","null","0.2198820011396564","0.7557552132185934","0.28283437478547035","0","","","","","",""
"","do_trial","351","2213715","0.0-326.0-0.0","392.1000003814697","","","","50","0,0,0","6","blank","279","null","0.2113270485259384","0.8336958522998967","0.30475849776898556","0","","","","","",""
"","do_recog","352","2216920","0.0-327.0-0.0","1681.9000000953674","","","","54","","","","280","probe-78","","","","","1","[object Object]","83","2","0",""
"","do_trial","353","2220772","0.0-328.0-0.0","299.80000019073486","","","","50","0,1,0","6","blank","281","null","0.145558571554941","0.7531406320278142","0.4608841577947072","1","","","","","",""
"","do_recog","354","2223806","0.0-329.0-0.0","1518.9000000953674","","","","56","","","","282","probe-176","","","","","1","[object Object]","125","3","1",""
"","do_trial","355","2227665","0.0-330.0-0.0","301.7999997138977","","","","50","0,1,0","6","blank","283","null","0.22675342737150941","0.9076345998184592","0.4716989144461725","1","","","","","",""
"","do_recog","356","2230969","0.0-331.0-0.0","1790.5","","","","56","","","","284","probe-226","","","","","1","[object Object]","206","5","1",""
"","do_trial","357","2234910","0.0-332.0-0.0","384.90000009536743","","","","50","0,0,0","6","blank","285","null","0.25522262738457635","0.814507908613637","0.40259404773782803","0","","","","","",""
"","do_trial","358","2238938","0.0-333.0-0.0","459.69999980926514","","","","51","1,0,1","6","blank","286","null","0.22926071774081103","0.7462339942245285","0.40844133897906126","1","","","","","",""
"","do_trial","359","2243779","0.0-334.0-0.0","1263.5","","","","51","1,0,0","6","blank","287","null","0.20429464155408858","0.5907540444007305","0.445673145206868","0","","","","","",""
"","do_trial","360","2247335","0.0-335.0-0.0","0.09999990463256836","","","","49","0,1,0","6","blank","288","null","0.1292347426264044","1","0.48392391281845365","0","","","","","",""
"","do_trial","361","2251243","0.0-336.0-0.0","332.59999990463257","","","","49","0,1,1","6","blank","289","null","0.05112601382426032","0.9228046805864234","0.4347289996500347","0","","","","","",""
"","do_trial","362","2254848","0.0-337.0-0.0","33.90000009536743","","","","51","0,1,0","6","blank","290","null","0.11218942596109122","0.894803435725556","0.4356150291845031","0","","","","","",""
"","do_recog","363","2257694","0.0-338.0-0.0","1329.6000003814697","","","","56","","","","291","probe-224","","","","","1","[object Object]","49","1","1",""
"","do_trial","364","2263759","0.0-339.0-0.0","null","","","","null","0,0,0","6","blank","292","null","0.22072201530909902","0.8213215430635492","0.3993771081279215","","","","","","",""
"","do_trial","365","2268062","0.0-340.0-0.0","740.3999996185303","","","","50","0,1,1","6","blank","293","null","0.17677838686454897","0.8218405092796427","0.42583800443503445","1","","","","","",""
"","do_trial","366","2272108","0.0-341.0-0.0","482.5","","","","50","0,1,0","6","blank","294","null","0.055854400667385014","0.9271418489092246","0.4881785513339084","1","","","","","",""
"","do_recog","367","2275000","0.0-342.0-0.0","1385.1999998092651","","","","56","","","","295","probe-99","","","","","1","[object Object]","41","1","1",""
"","do_trial","368","2279179","0.0-343.0-0.0","625","","","","50","0,0,0","6","blank","296","null","0.14175961647286758","0.9435314931362416","0.47992896179513467","0","","","","","",""
"","do_recog","369","2281738","0.0-344.0-0.0","1039.0999999046326","","","","56","","","","297","probe-205","","","","","1","[object Object]","169","4","1",""
"","do_trial","370","2285826","0.0-345.0-0.0","517.5999999046326","","","","49","0,1,1","6","blank","298","null","0.20069514789081366","0.6751347834668456","0.40543068694635714","0","","","","","",""
"","do_recog","371","2289422","0.0-346.0-0.0","2081.7000002861023","","","","54","","","","299","probe-123","","","","","1","[object Object]","166","4","0",""
"","do_trial","372","2294968","0.0-347.0-0.0","1985.4000000953674","","","","50","0,0,1","6","blank","300","null","0.21751662578171665","0.6583965581965033","0.292886487744625","0","","","","","",""
"","do_recog","373","2298351","0.0-348.0-0.0","1867.5","","","","54","","","","301","probe-243","","","","","0","[object Object]","null","null","1",""
"","do_trial","374","2302480","0.0-349.0-0.0","553.8000001907349","","","","50","0,1,0","6","blank","302","null","0.11852712083618665","0.7191901052565072","0.23194475353689314","1","","","","","",""
"","do_recog","375","2305547","0.0-350.0-0.0","1553.9000000953674","","","","55","","","","303","probe-232","","","","","1","[object Object]","85","2","1",""
"","do_trial","376","2309552","0.0-351.0-0.0","439.40000009536743","","","","50","0,1,1","6","blank","304","null","0.22800259197461423","0.7244055729276341","0.2893689693052709","1","","","","","",""
"","do_recog","377","2312519","0.0-352.0-0.0","1445.9000000953674","","","","56","","","","305","probe-111","","","","","1","[object Object]","48","1","1",""
"","do_trial","378","2316894","0.0-353.0-0.0","809.5999999046326","","","","50","1,1,1","6","blank","306","null","0.31741805296809766","0.7808248557119256","0.33885171897464816","1","","","","","",""
"","do_trial","379","2320954","0.0-354.0-0.0","507.40000009536743","","","","50","0,1,0","6","blank","307","null","0.4936990832964351","0.7500001815678289","0.28910238977258","1","","","","","",""
"","do_recog","380","2324005","0.0-355.0-0.0","1528.9000000953674","","","","56","","","","308","probe-135","","","","","1","[object Object]","208","5","1",""
"","do_trial","381","2328617","0.0-356.0-0.0","1053.4000000953674","","","","50","0,1,0","6","blank","309","null","0.6683928419762293","0.5715494342926494","0.28095768492332324","1","","","","","",""
"","do_recog","382","2331712","0.0-357.0-0.0","1573.1000003814697","","","","56","","","","310","probe-120","","","","","1","[object Object]","86","2","1",""
"","do_trial","383","2335709","0.0-358.0-0.0","430.2000002861023","","","","50","1,0,0","6","blank","311","null","0.7720828716571242","0.5375390350012866","0.07207859345705439","0","","","","","",""
"","do_recog","384","2338937","0.0-359.0-0.0","1720.4000000953674","","","","56","","","","312","probe-132","","","","","1","[object Object]","202","5","1",""
"","do_trial","385","2343061","0.0-360.0-0.0","567.9000000953674","","","","50","1,0,0","6","blank","313","null","0.7629397882422616","0.28410298258542777","0.055390548767312316","0","","","","","",""
"","do_recog","386","2345269","0.0-361.0-0.0","692.7999997138977","","","","56","","","","314","probe-72","","","","","1","[object Object]","84","2","1",""
"","do_trial","387","2349426","0.0-362.0-0.0","589.1999998092651","","","","50","1,0,0","6","blank","315","null","0.7788512930764604","0.286731853498695","0.057191571948621595","0","","","","","",""
"","do_trial","388","2354494","0.0-363.0-0.0","1492.3999996185303","","","","50","1,0,0","6","blank","316","null","0.8058348198702936","0.3709180059889247","0.07847162510640758","0","","","","","",""
"","do_trial","389","2358375","0.0-364.0-0.0","307.5","","","","50","1,0,0","6","blank","317","null","0.7786993810973648","0.5711842838722637","0.08498364189814854","0","","","","","",""
"","do_trial","390","2362553","0.0-365.0-0.0","628.6999998092651","","","","50","0,1,1","6","blank","318","null","0.7680044461999405","0.48858227538943544","0.2512595800767211","1","","","","","",""
"","do_recog","391","2365326","0.0-366.0-0.0","1256","","","","56","","","","319","probe-41","","","","","1","[object Object]","167","4","1",""
"","do_trial","392","2369980","0.0-367.0-0.0","1096.1999998092651","","","","51","1,0,0","6","blank","320","null","0.8736656423573902","0.37413283107025475","0.1701633728592567","0","","","","","",""
"","do_trial","393","2373792","0.0-368.0-0.0","258","","","","49","0,0,0","6","blank","321","null","0.7387899266966496","0.36906269133608605","0.16637483437659717","0","","","","","",""
"","do_trial","394","2377609","0.0-369.0-0.0","270.30000019073486","","","","49","1,1,0","6","blank","322","null","0.7879118545593278","0.43405348885795314","0.05801892914491445","1","","","","","",""
"","do_trial","395","2381501","0.0-370.0-0.0","339.5","","","","49","1,0,0","6","blank","323","null","0.7496743764474785","0.5444090981469497","0.157051329373642","1","","","","","",""
"","do_trial","396","2385879","0.0-371.0-0.0","824.5","","","","49","1,0,0","6","blank","324","null","0.856591510829773","0.6380508421973411","0.09444697981075253","1","","","","","",""
"","do_trial","397","2390514","0.0-372.0-0.0","1071.9000000953674","","","","49","1,1,0","6","blank","325","null","0.848764541124524","0.5287262712760272","0.10307624184824679","1","","","","","",""
"","do_trial","398","2394078","0.0-373.0-0.0","0.2999997138977051","","","","49","0,1,0","6","blank","326","null","0.7624358466589088","0.6178146176622684","0.10109802436853249","0","","","","","",""
"","do_recog","399","2396867","0.0-374.0-0.0","1275.7999997138977","","","","56","","","","327","probe-70","","","","","1","[object Object]","40","1","1",""
"","do_trial","400","2401086","0.0-375.0-0.0","666.6999998092651","","","","49","1,0,0","6","blank","328","null","0.6613921535410688","0.4942627466515879","0.16494950129303854","1","","","","","",""
"","do_recog","401","2403633","0.0-376.0-0.0","1024.2999997138977","","","","56","","","","329","probe-56","","","","","1","[object Object]","123","3","1",""
"","do_trial","402","2408434","0.0-377.0-0.0","1233.6000003814697","","","","50","0,0,0","6","blank","330","null","0.6622090292689495","0.5008186808669806","0.180613669985642","0","","","","","",""
"","do_recog","403","2410797","0.0-378.0-0.0","845.5","","","","56","","","","331","probe-09","","","","","1","[object Object]","129","3","1",""
"","do_trial","404","2414744","0.0-379.0-0.0","396.90000009536743","","","","49","1,0,0","6","blank","332","null","0.6516112410817109","0.4588626085624938","0.0644435451220904","1","","","","","",""
"","do_recog","405","2417457","0.0-380.0-0.0","1203.5999999046326","","","","56","","","","333","probe-42","","","","","1","[object Object]","88","2","1",""
"","do_trial","406","2421552","0.0-381.0-0.0","522.3000001907349","","","","49","1,1,0","6","blank","334","null","1","0.4490661769804038","0.1466638819243565","1","","","","","",""
"","do_trial","407","2425561","0.0-382.0-0.0","432","","","","49","1,0,0","6","blank","335","null","0.8409498419296659","0.3911178968698258","0.14171290625176672","1","","","","","",""
"","do_recog","408","2428344","0.0-383.0-0.0","1262.7999997138977","","","","56","","","","336","probe-44","","","","","1","[object Object]","200","5","1",""
"","do_trial","409","2433041","0.0-384.0-0.0","1127.8000001907349","","","","49","1,0,1","6","blank","337","null","0.9023927192788116","0.34582968607071296","0.11050949619199281","1","","","","","",""
"","do_recog","410","2435733","0.0-385.0-0.0","1182.2000002861023","","","","56","","","","338","probe-137","","","","","1","[object Object]","47","1","1",""
"","do_trial","411","2439888","0.0-386.0-0.0","595.5","","","","49","1,1,0","6","blank","339","null","0.8087374605115089","0.36990739201633493","0.13108335759843712","1","","","","","",""
"","do_trial","412","2444670","0.0-387.0-0.0","1230.6999998092651","","","","49","1,0,0","6","blank","340","null","0.8927250595693726","0.4711195124745434","0.1359544102452566","1","","","","","",""
"","do_recog","413","2446847","0.0-388.0-0.0","668.4000000953674","","","","56","","","","341","probe-36","","","","","1","[object Object]","120","3","1",""
"","do_trial","414","2451524","0.0-389.0-0.0","1128.2000002861023","","","","49","1,0,0","6","blank","342","null","0.8786727501147981","0.3396572520537883","0.12898299512034087","1","","","","","",""
"","do_trial","415","2455888","0.0-390.0-0.0","811.8000001907349","","","","49","0,0,0","6","blank","343","null","0.9151683701339932","0.36367882079613106","0.11610904221169145","0","","","","","",""
"","do_trial","416","2460867","0.0-391.0-0.0","1419.1999998092651","","","","49","1,0,0","6","blank","344","null","0.7923067232103995","0.33651564362256425","0.14630885200303273","1","","","","","",""
"","do_recog","417","2463390","0.0-392.0-0.0","1005.6999998092651","","","","56","","","","345","probe-73","","","","","1","[object Object]","207","5","1",""
"","do_trial","418","2467474","0.0-393.0-0.0","519.0999999046326","","","","49","1,1,0","6","blank","346","null","0.7954444969033021","0.36574576752456334","0.2522430378329687","1","","","","","",""
"","do_recog","419","2469738","0.0-394.0-0.0","742.4000000953674","","","","56","","","","347","probe-19","","","","","1","[object Object]","80","2","1",""
"","do_trial","420","2474226","0.0-395.0-0.0","923","","","","49","0,0,0","6","blank","348","null","0.8468182992192683","0.35373087892298744","0.3074768704857567","0","","","","","",""
"","do_recog","421","2476389","0.0-396.0-0.0","650.5","","","","56","","","","349","probe-150","","","","","1","[object Object]","42","1","1",""
"","do_trial","422","2480491","0.0-397.0-0.0","541.5","","","","49","1,0,1","6","blank","350","null","0.6316529438645219","0.4369597059348788","0.48015846309456395","1","","","","","",""
"","do_recog","423","2482877","0.0-398.0-0.0","867.5","","","","56","","","","351","probe-196","","","","","1","[object Object]","81","2","1",""
"","do_trial","424","2487305","0.0-399.0-0.0","865.4000000953674","","","","49","1,0,1","6","blank","352","null","0.47716524198381466","0.35359659196821897","0.4676970105737783","1","","","","","",""
"","do_recog","425","2490773","0.0-400.0-0.0","1957.5999999046326","","","","54","","","","353","probe-160","","","","","1","[object Object]","201","5","0",""
"","do_trial","426","2494720","0.0-401.0-0.0","379.80000019073486","","","","49","0,0,0","6","blank","354","null","0.3286904943738684","0.2945446342063388","0.4966944605611572","0","","","","","",""
"","do_trial","427","2498604","0.0-402.0-0.0","322.2999997138977","","","","51","1,0,1","6","blank","355","null","0.311016423607856","0.39924490478519603","0.5438251158502008","1","","","","","",""
"","do_trial","428","2502601","0.0-403.0-0.0","436.19999980926514","","","","51","0,0,0","6","blank","356","null","0.11959611032436324","0.276447669992315","0.5737248330628909","0","","","","","",""
"","do_recog","429","2505401","0.0-404.0-0.0","1288.8000001907349","","","","56","","","","357","probe-231","","","","","1","[object Object]","87","2","1",""
"","do_trial","430","2509984","0.0-405.0-0.0","1010.9000000953674","","","","50","0,0,1","6","blank","358","null","0.16665086193695694","0.2922588317999739","0.7014057154252108","0","","","","","",""
"","do_trial","431","2513919","0.0-406.0-0.0","378.40000009536743","","","","51","0,0,1","6","blank","359","null","0.09749488897879477","0.45152368296563405","0.7281059499940195","1","","","","","",""
"","do_recog","432","2516911","0.0-407.0-0.0","1471.6999998092651","","","","56","","","","360","probe-134","","","","","1","[object Object]","82","2","1",""
"","do_trial","433","2520951","0.0-408.0-0.0","471.5","","","","51","0,1,1","6","blank","361","null","0.18208217385750566","0.48020125514846274","0.7425083075865752","1","","","","","",""
"","do_trial","434","2524963","0.0-409.0-0.0","471.5","","","","51","0,1,1","6","blank","362","null","0.09842448511528666","0.4322670214775258","0.8794412860363866","1","","","","","",""
"","do_trial","435","2528996","0.0-410.0-0.0","461.19999980926514","","","","51","0,1,1","6","blank","363","null","0.05865997875644524","0.3566023228437388","0.8838900666600452","1","","","","","",""
"","do_recog","436","2531747","0.0-411.0-0.0","1239.0999999046326","","","","56","","","","364","probe-51","","","","","1","[object Object]","164","4","1",""
"","do_trial","437","2536124","0.0-412.0-0.0","819.1999998092651","","","","51","0,0,1","6","blank","365","null","0.12561494195654055","0.34747649270468606","0.6940414634169281","1","","","","","",""
"","do_trial","438","2540070","0.0-413.0-0.0","387.7000002861023","","","","51","1,0,1","6","blank","366","null","0.21761680038811435","0.3362207513646159","0.6549687259446406","1","","","","","",""
"","do_trial","439","2544051","0.0-414.0-0.0","411.3999996185303","","","","51","0,0,1","6","blank","367","null","0.12439669465982102","0.39191411572992424","0.8198836127710041","1","","","","","",""
"","do_trial","440","2548013","0.0-415.0-0.0","387.40000009536743","","","","51","0,1,1","6","blank","368","null","0.10497197110621351","0.36601446412113403","0.835794161131251","1","","","","","",""
"","do_trial","441","2551878","0.0-416.0-0.0","284.2999997138977","","","","51","0,0,0","6","blank","369","null","0.14685030243636257","0.37119547664361585","0.8550570848056429","0","","","","","",""
"","do_recog","442","2554820","0.0-417.0-0.0","1422.1000003814697","","","","56","","","","370","probe-204","","","","","1","[object Object]","165","4","1",""
"","do_trial","443","2559100","0.0-418.0-0.0","710.9000000953674","","","","51","0,0,0","6","blank","371","null","0.11888548291435376","0.2959092165430852","0.6914488152755761","0","","","","","",""
"","do_recog","444","2563356","0.0-419.0-0.0","2744.7000002861023","","","","56","","","","372","probe-199","","","","","1","[object Object]","45","1","1",""
"","do_trial","445","2569298","0.0-420.0-0.0","2392.0999999046326","","","","51","0,1,1","6","blank","373","null","0.15584158935763262","0.3470198604853518","0.6465894502875188","1","","","","","",""
"","do_recog","446","2572101","0.0-421.0-0.0","1289.5999999046326","","","","56","","","","374","probe-257","","","","","0","[object Object]","null","null","0",""
"","do_trial","447","2577504","0.0-422.0-0.0","1826.9000000953674","","","","51","0,1,1","6","blank","375","null","0.05210454469123914","0.4092843748804566","0.6448215291385658","1","","","","","",""
"","do_trial","448","2581470","0.0-423.0-0.0","393.7000002861023","","","","51","1,1,1","6","blank","376","null","0.15815406484746183","0.38059196852805266","0.8421761616518929","1","","","","","",""
"","do_trial","449","2587529","0.0-424.0-0.0","null","","","","null","0,0,1","6","blank","377","null","0.05067392352440825","0.36729427154208666","0.8634697317039295","","","","","","",""
"","do_trial","450","2591478","0.0-425.0-0.0","379.90000009536743","","","","51","1,0,1","6","blank","378","null","0.1030483094861675","0.3264318795440405","1","1","","","","","",""
"","do_recog","451","2594235","0.0-426.0-0.0","1250.5999999046326","","","","56","","","","379","probe-223","","","","","1","[object Object]","122","3","1",""
"","do_trial","452","2599104","0.0-427.0-0.0","1313.0999999046326","","","","51","0,0,1","6","blank","380","null","0.20038616817138635","0.28006328374441136","0.7992698509885837","1","","","","","",""
"","do_recog","453","2602355","0.0-428.0-0.0","1736.3000001907349","","","","56","","","","381","probe-182","","","","","1","[object Object]","204","5","1",""
"","do_trial","454","2606431","0.0-429.0-0.0","519","","","","51","0,0,1","6","blank","382","null","0.08578679580602869","0.2446777297657842","0.8011828239987784","1","","","","","",""
"","do_trial","455","2610664","0.0-430.0-0.0","685.0999999046326","","","","51","0,1,1","6","blank","383","null","0.08508235950371586","0.22513523213144704","0.8012653706596246","1","","","","","",""
"","do_trial","456","2614786","0.0-431.0-0.0","577.8000001907349","","","","51","0,0,1","6","blank","384","null","0.07770881928045437","0.26165613326249854","0.7078139985875471","1","","","","","",""
"","do_trial","457","2618747","0.0-432.0-0.0","410.19999980926514","","","","51","0,0,1","6","blank","385","null","0.19823798853050334","0.296316535402036","0.5752786500975023","1","","","","","",""
"","do_trial","458","2622709","0.0-433.0-0.0","407.30000019073486","","","","51","0,0,0","6","blank","386","null","0.08364210664837195","0.46949139978505783","0.6193311865973437","0","","","","","",""
"","do_recog","459","2625187","0.0-434.0-0.0","958.5999999046326","","","","56","","","","387","probe-253","","","","","0","[object Object]","null","null","0",""
"","do_trial","460","2629323","0.0-435.0-0.0","566.5","","","","51","0,1,1","6","blank","388","null","0.13421164877107492","0.4988516586780815","0.778804878536012","1","","","","","",""
"","do_recog","461","2635342","0.0-436.0-0.0","null","","","","null","","","","389","probe-174","","","","","1","[object Object]","163","4","0",""
"","do_trial","462","2641015","0.0-437.0-0.0","2128.0999999046326","","","","49","0,1,1","6","blank","390","null","0.05644650488755088","0.43177464744557975","0.7793196564235272","0","","","","","",""
"","do_trial","463","2646552","0.0-438.0-0.0","1994.9000000953674","","","","50","0,1,1","6","blank","391","null","0.164167119134065","0.32108746606374355","0.6947935953986523","1","","","","","",""
"","do_trial","464","2650496","0.0-439.0-0.0","385.7999997138977","","","","50","1,0,1","6","blank","392","null","0.37044775148989956","0.54725858646334","0.593836425226769","0","","","","","",""
"","do_trial","465","2655616","0.0-440.0-0.0","1560.0999999046326","","","","50","0,1,0","6","blank","393","null","0.5295952414937217","0.3695289742452818","0.4523656251559829","1","","","","","",""
"","do_trial","466","2660567","0.0-441.0-0.0","1389.6999998092651","","","","50","1,0,1","6","blank","394","null","0.623213009531292","0.3856762618397774","0.420465817784132","0","","","","","",""
"","do_recog","467","2663430","0.0-442.0-0.0","1347.7999997138977","","","","56","","","","395","probe-256","","","","","0","[object Object]","null","null","0",""
"","do_trial","468","2668068","0.0-443.0-0.0","1062.3999996185303","","","","49","0,1,0","6","blank","396","null","0.7274116165555967","0.3531798609843257","0.31546045310627174","0","","","","","",""
"","do_trial","469","2673159","0.0-444.0-0.0","1521.9000000953674","","","","51","1,0,1","6","blank","397","null","0.7885778709115099","0.36677984501857724","0.17470976422188475","1","","","","","",""
"","do_recog","470","2676159","0.0-445.0-0.0","1476.5","","","","56","","","","398","probe-48","","","","","1","[object Object]","127","3","1",""
"","do_trial","471","2680240","0.0-446.0-0.0","513.4000000953674","","","","50","1,0,0","6","blank","399","null","0.7870704487624539","0.33024240559279167","0.27896260086747676","0","","","","","",""
"","do_trial","472","2684141","0.0-447.0-0.0","343.19999980926514","","","","49","1,1,0","6","blank","400","null","0.7340269691086274","0.49952777773033086","0.25180143517983716","1","","","","","",""
"","do_trial","473","2688208","0.0-448.0-0.0","500.7999997138977","","","","49","0,0,1","6","blank","401","null","0.714386046317447","0.4973773338075996","0.2754749385498132","0","","","","","",""
"","do_trial","474","2692136","0.0-449.0-0.0","378.30000019073486","","","","51","1,0,0","6","blank","402","null","0.728948556217965","0.43890941629533126","0.196461293091713","0","","","","","",""
"","do_recog","475","2694324","0.0-450.0-0.0","669.0999999046326","","","","56","","","","403","probe-61","","","","","1","[object Object]","203","5","1",""
"","do_trial","476","2698472","0.0-451.0-0.0","593.1999998092651","","","","50","0,1,0","6","blank","404","null","0.7902564098582546","0.4772425171625922","0.21875969799008238","1","","","","","",""
"","do_trial","477","2702452","0.0-452.0-0.0","406.30000019073486","","","","50","1,0,0","6","blank","405","null","0.8941988047969031","0.41664522427668665","0.16748982208599356","0","","","","","",""
"","do_trial","478","2706289","0.0-453.0-0.0","280.09999990463257","","","","49","1,1,0","6","blank","406","null","0.8378523510767327","0.447607110187692","0.1096157363883854","1","","","","","",""
"","do_trial","479","2710131","0.0-454.0-0.0","283.30000019073486","","","","49","1,1,0","6","blank","407","null","0.634653482699678","0.3466950471370637","0.17072036603047905","1","","","","","",""
"","do_trial","480","2713980","0.0-455.0-0.0","290.30000019073486","","","","49","0,0,1","6","blank","408","null","0.6953408096699053","0.43440510447963465","0.14677563229807702","0","","","","","",""
"","do_recog","481","2717049","0.0-456.0-0.0","1555.7999997138977","","","","56","","","","409","probe-80","","","","","1","[object Object]","126","3","1",""
