"success","trial_type","trial_index","time_elapsed","internal_node_id","rt","stimulus","key_press","subject_id","response","choice_outcomes","context_n","context_img_id","trial_n","probe_img_id","pR_red","pR_white","pR_black","outcome","is_valid","image_to_show","probed_trial","probed_context","correct","context_id"
"true","fullscreen","0","104629","0.0-0.0","","","","","","","","","","","","","","","","","","","",""
"","pavlovia","1","104632","0.0-1.0","","","","","","","","","","","","","","","","","","","",""
"","html-keyboard-response","2","140142","0.0-2.0","35508.60000000149","<div class='center'><p>Welcome! This experiment will last ~1 hour. In this experiment, you are the head captain of a pirate ship traveling around the world to different places. You will complete several different tasks during this experiment. Here is an overview of these tasks:</p><br><p>1. Tutorial and quiz</p><p>2. Pick a pirate game in 6 different places</p><p>3. Pick a pirate game and memory game</p><p>4. Final questions and payment</p><br><p>If you complete the entire experiment, you will receive $15 and a possible bonus payment.</p><p><b>[Press the space bar to begin the tutorial]</b></p></div>","32","61395478e094e59838504902","","","","","","","","","","","","","","","",""
"","html-keyboard-response","3","163575","0.0-3.0","23445.5","<div class='center'><p>You are the head captain of a pirate ship.</p><p> Your pirates rob other ships as they leave the marketplace port.</p> These ships have just sold all their goods at the marketplace, so they have lots and lots of gold on them.</p><p><img src='run_exp/static/images/ship_center.png' height='400'></p><p><b>[Press the space bar to continue]</b></p></div>","32","","","","","","","","","","","","","","","","",""
"","html-keyboard-response","4","169020","0.0-4.0","5443.70000000298","<div class='center'><p>As the head captain, you do not have to rob any ships yourself.</p><p>You get to choose which pirate you want to rob the next ship. </p><p>If they are successful at robbing the ship, then you will get gold coins.</p><p> If they are not successful, then you will get no gold coins.</p><p> The more coins you collect, the more bonus money you will win. So, choose your pirate wisely.</p><p><img src='run_exp/static/images/goal.png' height='400'></p><p><b>[Press the space bar to continue]</b></p><div>","32","","","","","","","","","","","","","","","","",""
"","html-keyboard-response","5","186510","0.0-5.0","17489.199999999255","<div class='center'><p>Even the most skilled pirate will not be able to rob EVERY ship.</p><p> Some ships will have very strong defenses against attacks.</p><p> For example, blue beard, here,  is very good at robbing ships.</p><p> You can press the <b>‘1’</b> button on the keyboard to choose him.</p><p> Try choosing him 10 times to see how often he is successful at robbing ships. </p><p><img src='run_exp/static/images/blue.png' height='500'></p></div>","49","","","","","","","","","","","","","","","","",""
"","html-keyboard-response","6","188015","0.0-6.0","null","<br><br><br><br><p><img src='run_exp/static/images/blue_win.png' height='500'></p>","null","","","","","","","","","","","","","","","","",""
"","html-keyboard-response","7","190554","0.0-7.0","2538.400000002235","<br><br><br><br><p><img src='run_exp/static/images/blue.png' height='500'></p>","49","","","","","","","","","","","","","","","","",""
"","html-keyboard-response","8","192068","0.0-8.0","null","<br><br><br><br><p><img src='run_exp/static/images/blue_win.png' height='500'></p>","null","","","","","","","","","","","","","","","","",""
"","html-keyboard-response","9","192950","0.0-9.0","881.6999999992549","<br><br><br><br><p><img src='run_exp/static/images/blue.png' height='500'></p>","49","","","","","","","","","","","","","","","","",""
"","html-keyboard-response","10","194455","0.0-10.0","null","<br><br><br><br><p><img src='run_exp/static/images/blue_win.png' height='500'></p>","null","","","","","","","","","","","","","","","","",""
"","html-keyboard-response","11","195096","0.0-11.0","639.5","<br><br><br><br><p><img src='run_exp/static/images/blue.png' height='500'></p>","49","","","","","","","","","","","","","","","","",""
"","html-keyboard-response","12","196609","0.0-12.0","null","<br><br><br><br><p><img src='run_exp/static/images/blue_no_win.png' height='500'></p>","null","","","","","","","","","","","","","","","","",""
"","html-keyboard-response","13","198422","0.0-13.0","1812.800000000745","<br><br><br><br><p><img src='run_exp/static/images/blue.png' height='500'></p>","49","","","","","","","","","","","","","","","","",""
"","html-keyboard-response","14","199924","0.0-14.0","null","<br><br><br><br><p><img src='run_exp/static/images/blue_win.png' height='500'></p>","null","","","","","","","","","","","","","","","","",""
"","html-keyboard-response","15","200460","0.0-15.0","535.8999999985099","<br><br><br><br><p><img src='run_exp/static/images/blue.png' height='500'></p>","49","","","","","","","","","","","","","","","","",""
"","html-keyboard-response","16","201971","0.0-16.0","null","<br><br><br><br><p><img src='run_exp/static/images/blue_win.png' height='500'></p>","null","","","","","","","","","","","","","","","","",""
"","html-keyboard-response","17","202181","0.0-17.0","209.39999999850988","<br><br><br><br><p><img src='run_exp/static/images/blue.png' height='500'></p>","49","","","","","","","","","","","","","","","","",""
"","html-keyboard-response","18","203696","0.0-18.0","null","<br><br><br><br><p><img src='run_exp/static/images/blue_win.png' height='500'></p>","null","","","","","","","","","","","","","","","","",""
"","html-keyboard-response","19","207362","0.0-19.0","3665.10000000149","<br><br><br><br><p><img src='run_exp/static/images/blue.png' height='500'></p>","49","","","","","","","","","","","","","","","","",""
"","html-keyboard-response","20","208868","0.0-20.0","null","<br><br><br><br><p><img src='run_exp/static/images/blue_no_win.png' height='500'></p>","null","","","","","","","","","","","","","","","","",""
"","html-keyboard-response","21","210687","0.0-21.0","1818.2999999970198","<br><br><br><br><p><img src='run_exp/static/images/blue.png' height='500'></p>","49","","","","","","","","","","","","","","","","",""
"","html-keyboard-response","22","212202","0.0-22.0","null","<br><br><br><br><p><img src='run_exp/static/images/blue_win.png' height='500'></p>","null","","","","","","","","","","","","","","","","",""
"","html-keyboard-response","23","221500","0.0-23.0","9298","<br><br><br><br><p><img src='run_exp/static/images/blue.png' height='500'></p>","49","","","","","","","","","","","","","","","","",""
"","html-keyboard-response","24","223013","0.0-24.0","null","<br><br><br><br><p><img src='run_exp/static/images/blue_win.png' height='500'></p>","null","","","","","","","","","","","","","","","","",""
"","html-keyboard-response","25","293187","0.0-25.0","70174.39999999851","<div class='center'><p> See, he was successful at robbing the ships most of the time but not every time. </p><p><b>[Press the space bar to continue]</b></p></div>","32","","","","","","","","","","","","","","","","",""
"","html-keyboard-response","26","551189","0.0-26.0","258000.30000000075","<div class='center'><p>In the game, you will get to choose which of three pirates you want to rob the next ship. <p>Press the <b>‘1’</b> button on your keyboard to pick the pirate with the red beard.</p><p> Press <b>‘2’</b> to pick the pirate with the white beard.</p><p> Press <b>‘3’</b> to pick the pirate with the black beard.</p><p>Try picking a pirate now!</p><p><img src='run_exp/static/images/all_pirates.png' height='500'></p></div>","50","","","","","","","","","","","","","","","","",""
"","html-keyboard-response","27","552508","0.0-27.0-0.0","1318.1000000014901","<div class='center'><p>This pirate was successful at robbing the ship!</p><p><img src='run_exp/static/images/white_win.png' height='500'></p><p><b>[Press the space bar to continue]</b></p></div>","32","","","","","","","","","","","","","","","","",""
"","html-keyboard-response","28","554563","0.0-27.0-1.0","2053.60000000149","<div class='center'><p>Now try choosing another</p><p><img src='run_exp/static/images/all_pirates.png' height='500'></p></div>","49","","","","","","","","","","","","","","","","",""
"","html-keyboard-response","29","555743","0.0-28.0-0.0","1179.3999999985099","<div class='center'><p>This pirate was not successful at robbing the ship!</p><p><img src='run_exp/static/images/red_no_win.png' height='500'></p><p><b>[Press the space bar to continue]</b></p></div>","32","","","","","","","","","","","","","","","","",""
"","html-keyboard-response","30","1145254","0.0-29.0-0.0","589496.0999999978","<div class='center'><p>You’ll stop at these 6 places on your journey.</p><p><img src='run_exp/static/images/all_contexts.png' height='500'></p><p><b>[Press the space bar to continue]</b></p></div>","32","","","","","","","","","","","","","","","","",""
"","html-keyboard-response","31","1161534","0.0-29.0-1.0","16279.70000000298","<div class='center'><p>How good a pirate is at robbing ships will depend on the current place.</p><p> Some pirates will have been to the place before, and will have more experience robbing ships there.</p><p>So, they will be more successful at stealing gold and bringing it back to you.</p><p><b>[Press the space bar to continue]</b></p></div>","32","","","","","","","","","","","","","","","","",""
"","html-keyboard-response","32","1167139","0.0-29.0-2.0","5603.60000000149","<div class='center'><p>How successful a pirate is at robbing ships can also change in a place.<p> Ships may hear about the pirates coming and will improve their defenses. This may make it more difficult to rob them.</p><p> Ships may also grow lazy and lower their defenses. This may make it easier to rob them.</p><br><p>Things are always changing on the high seas! So, try your best to pay attention!</p><p><img src='run_exp/static/images/contingency.png' height='500'></p><p><b>[Press the space bar to continue]</b></p></div>","32","","","","","","","","","","","","","","","","",""
"","html-keyboard-response","33","1185791","0.0-29.0-3.0","18650.89999999851","<div class='center'><p>Once you choose a pirate to rob a ship, you’ll be shown the ship they are robbing.</p><p>The ship will have a picture of the item they sold at the marketplace.</p><p> Try your best to remember the ship and where you saw the ship.</p><p> You’ll have to remember this for later, and remembering this correctly will help you win more bonus money!</p><p>You can remember the ship by remembering the item they sold at the marketplace</p><p>A helpful strategy is to try to come up with a story of the chosen pirate and ship’s item interacting with the scene.</p><p> For example, a ship might have sold travel mugs and you could imagine red beard walking through the city with a travel mug. </p><p>Or imagine an apple falling from a tree into white beard's hands in the forest.</p><p><img src='run_exp/static/images/example_probe.png' height='500'></p><p><b>[Press the space bar to continue]</b></p></div>","32","","","","","","","","","","","","","","","","",""
"","html-keyboard-response","34","1193955","0.0-29.0-4.0","8162.400000002235","<div class='center'><p>If you don’t make your choice fast enough, you’ll have to wait a few seconds before you can make another one. </p><p>You can’t win more gold. You just have to sit and wait.</p><p><img src='run_exp/static/images/hurry_up.png' height='500'></p><p><b>[Press the space bar to continue]</b></p></div>","32","","","","","","","","","","","","","","","","",""
"","html-keyboard-response","35","1276750","0.0-29.0-5.0","82794.09999999776","<div class='center'><p>Again, you have two important things to do: </p><b><p> 1. Pick the pirate who you think will be most successful at robbing the next ship.</p></b><b><p> 2. Remember where a pirate robbed a ship.</p> </b><p>Both are important in determining how much bonus money you’ll win.</p><br><p>Let’s try a practice game. The game will start by showing you the pirates. First pick a pirate using the <b> 1, 2, 3 </b> buttons on your keyboard. When you are shown a ship, try to remember the place you’re in by making up a story.</p><p> You only have 3 seconds to pick a pirate, so please make a choice quickly! If you are too slow, you’ll have to wait a bit during the time out.</p><p> Don’t feel rushed, but please do try to make a choice every time.</p><p>How good a pirate is at robbing a ship will change depending on the place they are in and how good the defenses are of the ship.</p> <p>This is just a practice game, so you’re not playing for money. </p><p>You’ll receive a bag which may or may not contain gold coins.</p><p> In the real game, though, you’ll be able to see whether or not you received the gold coins.</p><p> Good luck, remember press <b>'1'</b> to choose red beard, <b>'2'</b> to choose white beard, and <b>'3'</b> to choose black beard</p><p><b>[Press the space bar to begin the practice game]</b></p></div>","32","","","","","","","","","","","","","","","","",""
"","do_trial_prac","36","1284027","0.0-29.0-6.0","2768.5","","","","50","","","","","","","","","","","","","","",""
"","do_trial_prac","37","1290052","0.0-29.0-7.0","null","","","","null","","","","","","","","","","","","","","",""
"","do_trial_prac","38","1295181","0.0-29.0-8.0","624.7999999970198","","","","51","","","","","","","","","","","","","","",""
"","do_trial_prac","39","1300506","0.0-29.0-9.0","815.1999999992549","","","","49","","","","","","","","","","","","","","",""
"","do_trial_prac","40","1305534","0.0-29.0-10.0","518.5","","","","50","","","","","","","","","","","","","","",""
"","html-keyboard-response","41","1311940","0.0-29.0-11.0","6407.699999999255","<div class='center'><p>Great job on the practice game!</p><p> Now, you will be asked you some true or false questions to make sure you really understand the rules of the game.</p><p> Press <b>'1'</b> on the keyboard for true and press <b>'2'</b> for false.</p><p><b>[Press the space bar to begin the quiz]</b></p></div>","32","","","","","","","","","","","","","","","","",""
"","html-keyboard-response","42","1315389","0.0-29.0-12.0","3447.900000002235","<div class='center'><p>You win bonus money by making choices as fast as possible.</p><p>Press 1 for true and press  2 for false.</p></div>","49","","","","","","","","","","","","","","","","",""
"","html-keyboard-response","43","1319642","0.0-30.0-0.0","4252.10000000149","<br><br><br><br><p>That’s incorrect! You win bonus money by collecting as many gold coins as possible!</p><p><b>[press the space bar to continue with the quiz]</b></p>","32","","","","","","","","","","","","","","","","",""
"","html-keyboard-response","44","1327555","0.0-30.0-1.0","7912.20000000298","<div class='center'><p>You press the <b>‘3’</b> button on the keyboard to choose the red bearded pirate? </p><p>Press 1 for true and press  2 for false.</p></div>","50","","","","","","","","","","","","","","","","",""
"","html-keyboard-response","45","1328757","0.0-31.0-0.0","1201.0999999977648","<br><br><br><br><p>That's correct!</p> <p><b>[press the space bar to continue with the quiz]</b></p>","32","","","","","","","","","","","","","","","","",""
"","html-keyboard-response","46","1333127","0.0-31.0-1.0","4370.300000000745","<div class='center'><p>A pirate will always be equally successful at robbing ships in each place</p><p>Press 1 for true and press  2 for false.</p></div>","50","","","","","","","","","","","","","","","","",""
"","html-keyboard-response","47","1333727","0.0-32.0-0.0","599","<br><br><br><br><p>That's correct!</p> <p><b>[press the space bar to continue with the quiz]</b></p>","32","","","","","","","","","","","","","","","","",""
"","html-keyboard-response","48","1336008","0.0-32.0-1.0","2280.599999997765","<div class='center'><p>You should remember the place where a pirate robbed a ship.</p><p>Press 1 for true and press  2 for false.</p></div>","49","","","","","","","","","","","","","","","","",""
"","html-keyboard-response","49","1336554","0.0-33.0-0.0","544.8000000007451","<br><br><br><br><p>That's correct!</p> <p><b>[press the space bar to continue with the quiz]</b></p>","32","","","","","","","","","","","","","","","","",""
"","html-keyboard-response","50","1341898","0.0-34.0-0.0","5343.39999999851","<br><br><br><br><p>Oops, you missed some questions. Now that you’ve heard the correct answers. Try the quiz again! If you fail the quiz too many times, you won’t be able to do the experiment. </p> <p><br>[press the space bar to repeat the quiz]</br></p>","32","","","","","","","","","","","","","","","","",""
"","html-keyboard-response","51","1344684","0.0-34.0-1.0","2785.60000000149","<div class='center'><p>You win bonus money by making choices as fast as possible.</p><p>Press 1 for true and press  2 for false.</p></div>","50","","","","","","","","","","","","","","","","",""
"","html-keyboard-response","52","1345447","0.0-35.0-0.0","761.7999999970198","<br><br><br><br><p>That's correct!</p> <p><b>[press the space bar to continue with the quiz]</b></p>","32","","","","","","","","","","","","","","","","",""
"","html-keyboard-response","53","1348730","0.0-35.0-1.0","3283.39999999851","<div class='center'><p>You press the <b>‘3’</b> button on the keyboard to choose the red bearded pirate? </p><p>Press 1 for true and press  2 for false.</p></div>","50","","","","","","","","","","","","","","","","",""
"","html-keyboard-response","54","1349218","0.0-36.0-0.0","487.30000000074506","<br><br><br><br><p>That's correct!</p> <p><b>[press the space bar to continue with the quiz]</b></p>","32","","","","","","","","","","","","","","","","",""
"","html-keyboard-response","55","1351761","0.0-36.0-1.0","2542.5","<div class='center'><p>A pirate will always be equally successful at robbing ships in each place</p><p>Press 1 for true and press  2 for false.</p></div>","50","","","","","","","","","","","","","","","","",""
"","html-keyboard-response","56","1352275","0.0-37.0-0.0","512.5999999977648","<br><br><br><br><p>That's correct!</p> <p><b>[press the space bar to continue with the quiz]</b></p>","32","","","","","","","","","","","","","","","","",""
"","html-keyboard-response","57","1353984","0.0-37.0-1.0","1708.300000000745","<div class='center'><p>You should remember the place where a pirate robbed a ship.</p><p>Press 1 for true and press  2 for false.</p></div>","49","","","","","","","","","","","","","","","","",""
"","html-keyboard-response","58","1354455","0.0-38.0-0.0","461.70000000298023","<br><br><br><br><p>That's correct!</p> <p><b>[press the space bar to continue with the quiz]</b></p>","32","","","","","","","","","","","","","","","","",""
"","html-keyboard-response","59","1355942","0.0-39.0-0.0","1486.8999999985099","<br><br><br><br><p>Good job! You’re now ready to move on to the real game!</p> <p><br>[press the space bar to begin!]</br></p>","32","","","","","","","","","","","","","","","","",""
"","do_welcome","60","1357453","0.0-40.0-0.0","null","","","","null","","","","","","","","","","","","","","",""
"","do_trial","61","1364238","0.0-41.0-0.0","1226.1000000014901","","","","49","1,1,0","0","coast","0","probe-20","1","0.4","0.1","1","","","","","",""
"","do_trial","62","1370506","0.0-42.0-0.0","720.8000000007451","","","","50","1,0,0","0","coast","1","probe-49","1","0.3947687602748675","0.10057036526702075","0","","","","","",""
"","do_trial","63","1376813","0.0-43.0-0.0","758.6999999992549","","","","49","1,1,0","0","coast","2","probe-32","1","0.41458286091393065","0.11523841181415832","1","","","","","",""
"","do_trial","64","1383270","0.0-44.0-0.0","898.0999999977648","","","","49","1,0,0","0","coast","3","probe-117","1","0.4906507270175328","0.06121158444843736","1","","","","","",""
"","do_trial","65","1389686","0.0-45.0-0.0","863.5","","","","50","1,0,0","0","coast","4","probe-88","0.8201840103585342","0.3500206788116036","0.06627863867223993","0","","","","","",""
"","do_trial","66","1395989","0.0-46.0-0.0","749","","","","49","1,0,0","0","coast","5","probe-42","0.6565681540666133","0.42655679358640924","0.14854895483105884","1","","","","","",""
"","do_trial","67","1402011","0.0-47.0-0.0","480.3999999985099","","","","51","1,1,0","0","coast","6","probe-71","0.7092983524815931","0.5662574514775757","0.12704695507454086","0","","","","","",""
"","do_trial","68","1408095","0.0-48.0-0.0","543.8000000007451","","","","49","0,0,1","0","coast","7","probe-67","0.8050672259519783","0.5692032116681844","0.24156453173634784","0","","","","","",""
"","do_trial","69","1414173","0.0-49.0-0.0","533.5","","","","50","0,1,0","0","coast","8","probe-230","0.7649339877174343","0.6105792065412224","0.10771066320239055","1","","","","","",""
"","do_trial","70","1420981","0.0-50.0-0.0","1264.5999999977648","","","","50","1,0,0","0","coast","9","probe-192","0.8873013049735397","0.4941028978125538","0.09420483316786882","0","","","","","",""
"","do_trial","71","1427211","0.0-51.0-0.0","686.7000000029802","","","","50","1,1,0","0","coast","10","probe-120","0.7783982360734951","0.5313753342783549","0.18719536095687467","1","","","","","",""
"","do_trial","72","1433426","0.0-52.0-0.0","664.3000000007451","","","","49","1,0,0","0","coast","11","probe-141","0.7115366285129504","0.6191045108260926","0.11167146268396022","1","","","","","",""
"","do_trial","73","1439588","0.0-53.0-0.0","612","","","","49","0,1,0","0","coast","12","probe-160","0.5048374488612396","0.7745342064886928","0.19704582671986004","0","","","","","",""
"","do_trial","74","1445459","0.0-54.0-0.0","317.19999999925494","","","","51","1,0,1","0","coast","13","probe-53","0.4917185035176798","0.7093289989109033","0.25225935240886505","1","","","","","",""
"","do_trial","75","1451538","0.0-55.0-0.0","528.5999999977648","","","","51","0,1,0","0","coast","14","probe-06","0.47663671262599205","0.7153226022014372","0.30932179959863615","0","","","","","",""
"","do_trial","76","1457121","0.0-56.0-0.0","41.19999999925494","","","","50","0,0,0","0","coast","15","probe-135","0.4525268413154283","0.6714977882809466","0.23999204133252444","0","","","","","",""
"","do_trial","77","1463080","0.0-57.0-0.0","418.3999999985099","","","","49","0,1,1","0","coast","16","probe-37","0.440424687474451","0.6406160631828149","0.3222935221751645","0","","","","","",""
"","do_trial","78","1469119","0.0-58.0-0.0","491.5","","","","50","0,0,0","0","coast","17","probe-210","0.3600313777663977","0.8419337482353575","0.17559827418317558","0","","","","","",""
"","do_trial","79","1474755","0.0-59.0-0.0","95.69999999925494","","","","49","0,1,1","0","coast","18","probe-11","0.29620422450576456","0.7291963960010613","0.1461028509007908","0","","","","","",""
"","do_trial","80","1480977","0.0-60.0-0.0","676.5","","","","49","1,0,0","0","coast","19","probe-137","0.4250999261848027","0.6730727855392413","0.11637946671619948","1","","","","","",""
"","do_trial","81","1486954","0.0-61.0-0.0","434.20000000298023","","","","49","0,1,0","0","coast","20","probe-23","0.4817496393891597","0.7852823691301546","0.07463527790236722","0","","","","","",""
"","do_trial","82","1493512","0.0-62.0-0.0","1003.3000000007451","","","","51","0,0,0","0","coast","21","probe-238","0.42482077592895934","0.8087390840446916","0.10136789963810428","0","","","","","",""
"","do_trial","83","1499199","0.0-63.0-0.0","136.60000000149012","","","","50","1,1,1","0","coast","22","probe-180","0.40018176523911264","0.8442126153985231","0.08136709636929851","1","","","","","",""
"","do_trial","84","1505409","0.0-64.0-0.0","658.8000000007451","","","","50","0,1,0","0","coast","23","probe-82","0.38129439959673256","0.9417424353929345","0.12818002319680327","1","","","","","",""
"","do_trial","85","1511607","0.0-65.0-0.0","654.8999999985099","","","","49","0,1,0","0","coast","24","probe-171","0.36877601547401456","0.8719393520376534","0.17052070471874647","0","","","","","",""
"","do_trial","86","1517532","0.0-66.0-0.0","371","","","","51","0,1,1","0","coast","25","probe-138","0.25735814745263724","0.9066246031536291","0.07710591821056123","1","","","","","",""
"","do_trial","87","1523679","0.0-67.0-0.0","604.9000000022352","","","","50","0,1,0","0","coast","26","probe-01","0.2978622807082916","0.7738822512939141","0.06506811055351142","1","","","","","",""
"","do_trial","88","1529702","0.0-68.0-0.0","475","","","","49","1,1,0","0","coast","27","probe-202","0.4163517430146646","0.6729735809888436","0.1868573130616491","1","","","","","",""
"","do_trial","89","1535977","0.0-69.0-0.0","728.1999999992549","","","","49","1,1,0","0","coast","28","probe-91","0.5115947564140753","0.7803451842747207","0.1838852610580302","1","","","","","",""
"","do_trial","90","1542733","0.0-70.0-0.0","1214.4000000022352","","","","49","0,1,0","0","coast","29","probe-144","0.434385579984245","0.757027865835696","0.09987416431890403","0","","","","","",""
"","do_trial","91","1548682","0.0-71.0-0.0","397","","","","51","0,1,0","0","coast","30","probe-175","0.2659262202368855","0.6887654453918535","0.06854587103000818","0","","","","","",""
"","do_trial","92","1554608","0.0-72.0-0.0","371.20000000298023","","","","50","1,1,0","0","coast","31","probe-176","0.307862481206492","0.7845679415564658","0.14100619780655752","1","","","","","",""
"","do_trial","93","1560794","0.0-73.0-0.0","628","","","","50","1,1,0","0","coast","32","probe-147","0.34497579005454365","0.8146591747299355","0.09680672699161008","1","","","","","",""
"","do_trial","94","1566795","0.0-74.0-0.0","449.4000000022352","","","","50","1,0,0","0","coast","33","probe-103","0.15527846885844657","0.8924450038615391","0.18446896216182773","0","","","","","",""
"","do_trial","95","1572701","0.0-75.0-0.0","351.8999999985099","","","","49","1,1,0","0","coast","34","probe-105","0.38183023669900407","0.9388499469167375","0.19850077345695052","1","","","","","",""
"","do_trial","96","1579340","0.0-76.0-0.0","1083.699999999255","","","","49","0,1,0","0","coast","35","probe-85","0.3116312851674071","0.9398098417868459","0.05540122786533153","0","","","","","",""
"","do_trial","97","1585392","0.0-77.0-0.0","null","","","","null","1,1,0","0","coast","36","probe-21","0.294816886097328","0.8279775303322825","0.14351398724554615","","","","","","",""
"","do_trial","98","1591795","0.0-78.0-0.0","854.0999999977648","","","","50","1,1,1","0","coast","37","probe-30","0.3431376806222747","0.812934880287423","0.1605335001878679","1","","","","","",""
"","do_trial","99","1597789","0.0-79.0-0.0","445.8999999985099","","","","51","0,1,0","0","coast","38","probe-70","0.11919541177746784","0.8203239661109695","0.2117614954610891","0","","","","","",""
"","do_trial","100","1603710","0.0-80.0-0.0","372.69999999925494","","","","50","0,0,1","0","coast","39","probe-77","0.24013274364786125","0.8322130545257576","0.15839759660323127","0","","","","","",""
"","do_bye","101","1605227","0.0-81.0-0.0","null","","","","null","","","","","","","","","","","","","","",""
"","do_travel","102","1611238","0.0-82.0-0.0","null","","","","null","","","","","","","","","","","","","","",""
"","do_welcome","103","1612755","0.0-82.0-1.0","null","","","","null","","","","","","","","","","","","","","",""
"","do_trial","104","1618808","0.0-83.0-0.0","null","","","","null","1,1,0","1","countryside","40","probe-200","0.33391168434692653","1","0.14983722752955328","","","","","","",""
"","do_trial","105","1624730","0.0-84.0-0.0","373.80000000074506","","","","50","1,1,0","1","countryside","41","probe-64","0.2914319982983848","1","0.2590494837286808","1","","","","","",""
"","do_trial","106","1630711","0.0-85.0-0.0","426","","","","51","1,1,0","1","countryside","42","probe-205","0.4270430242976835","1","0.17563929833469327","0","","","","","",""
"","do_trial","107","1636678","0.0-86.0-0.0","417.80000000074506","","","","49","1,1,0","1","countryside","43","probe-54","0.31556025358811285","1","0.11035681604626867","1","","","","","",""
"","do_trial","108","1643048","0.0-87.0-0.0","819.1999999992549","","","","49","0,1,0","1","countryside","44","probe-109","0.31208663814086485","0.833446681357911","0.1251866412679654","0","","","","","",""
"","do_trial","109","1649078","0.0-88.0-0.0","474.20000000298023","","","","49","0,1,0","1","countryside","45","probe-174","0.2856552197370789","0.8060968493756875","0.11283770828138776","0","","","","","",""
"","do_trial","110","1654941","0.0-89.0-0.0","318.4000000022352","","","","50","0,0,0","1","countryside","46","probe-206","0.4438516858059582","0.7058629621591888","0.31516485524614407","0","","","","","",""
"","do_trial","111","1660586","0.0-90.0-0.0","92.29999999701977","","","","50","1,1,1","1","countryside","47","probe-39","0.38166489532169456","0.6298676938383483","0.2488844694537346","1","","","","","",""
"","do_trial","112","1666567","0.0-91.0-0.0","439.79999999701977","","","","50","1,0,0","1","countryside","48","probe-143","0.309675435096936","0.6728494219871821","0.07189646937084795","0","","","","","",""
"","do_trial","113","1672711","0.0-92.0-0.0","592.1999999992549","","","","49","0,1,0","1","countryside","49","probe-123","0.35041601557844815","0.8727909609414805","0.06361269392609213","0","","","","","",""
"","do_trial","114","1678639","0.0-93.0-0.0","386.69999999925494","","","","50","0,1,1","1","countryside","50","probe-90","0.2068416783568831","0.7696164348856098","0.35650961731900377","1","","","","","",""
"","do_trial","115","1684682","0.0-94.0-0.0","null","","","","null","0,0,1","1","countryside","51","probe-113","0.1127675340215048","0.7044336639119636","0.5268703329433337","","","","","","",""
"","do_trial","116","1690475","0.0-95.0-0.0","253.29999999701977","","","","51","1,0,0","1","countryside","52","probe-187","0.12823237125966513","0.4727828813278771","0.6473320010001884","0","","","","","",""
"","do_trial","117","1697000","0.0-96.0-0.0","970.3999999985099","","","","49","0,1,0","1","countryside","53","probe-224","0.062079924893496584","0.5943556029493506","0.6752097070519834","0","","","","","",""
"","do_trial","118","1702960","0.0-97.0-0.0","403.19999999925494","","","","50","0,1,0","1","countryside","54","probe-181","0.06848598611969928","0.6030020920712305","0.8101548597798559","1","","","","","",""
"","do_trial","119","1709050","0.0-98.0-0.0","545.3999999985099","","","","50","0,0,1","1","countryside","55","probe-235","0.15176570854354027","0.5440442295779088","0.722076892557237","0","","","","","",""
"","do_trial","120","1715000","0.0-99.0-0.0","391","","","","49","0,1,1","1","countryside","56","probe-184","0.08265753134321269","0.49229233943005735","0.7704514710210473","0","","","","","",""
"","do_trial","121","1720747","0.0-100.0-0.0","197.30000000074506","","","","51","0,0,1","1","countryside","57","probe-216","0.20102904523726658","0.35092815935837274","0.8006019807476461","1","","","","","",""
"","do_trial","122","1726446","0.0-101.0-0.0","156.29999999701977","","","","50","0,0,1","1","countryside","58","probe-25","0.05850744670793647","0.4023360663454906","0.7475428164368161","0","","","","","",""
"","do_trial","123","1732339","0.0-102.0-0.0","351.69999999925494","","","","49","0,0,1","1","countryside","59","probe-18","0.09062048449811863","0.34532315969960115","0.8663696770539158","0","","","","","",""
"","do_trial","124","1738123","0.0-103.0-0.0","228.69999999925494","","","","51","0,0,1","1","countryside","60","probe-215","0.059607001886231574","0.23837234739271457","0.8296770505775554","1","","","","","",""
"","do_trial","125","1744804","0.0-104.0-0.0","1131.699999999255","","","","50","0,0,0","1","countryside","61","probe-115","0.06306214509847789","0.2895171929559852","0.800442612678328","0","","","","","",""
"","do_trial","126","1750828","0.0-105.0-0.0","478.6000000014901","","","","51","1,0,0","1","countryside","62","probe-229","0.12375736531718337","0.4586789855131948","0.8224947633896266","0","","","","","",""
"","do_trial","127","1756673","0.0-106.0-0.0","290.3999999985099","","","","50","0,0,1","1","countryside","63","probe-99","0.09877763711871435","0.36134451060742545","0.881922994242501","0","","","","","",""
"","do_trial","128","1762715","0.0-107.0-0.0","495.5999999977648","","","","50","1,1,1","1","countryside","64","probe-204","0.2005535874120914","0.3870280869604046","0.7738603039065651","1","","","","","",""
"","do_trial","129","1768409","0.0-108.0-0.0","143.69999999925494","","","","49","0,1,1","1","countryside","65","probe-131","0.16114072180191444","0.3870814144336992","0.8776605995773119","0","","","","","",""
"","do_trial","130","1773954","0.0-109.0-0.0","0.09999999776482582","","","","51","1,0,1","1","countryside","66","probe-100","0.13830576360345267","0.26621449262019853","0.8001402426880615","1","","","","","",""
"","do_trial","131","1779856","0.0-110.0-0.0","361","","","","50","0,1,1","1","countryside","67","probe-33","0.15357131544506525","0.47664108845735553","0.8312853726382984","1","","","","","",""
"","do_trial","132","1785516","0.0-111.0-0.0","117.19999999925494","","","","50","0,1,1","1","countryside","68","probe-134","0.0700885206942225","0.48215962060430356","0.8476345754080842","1","","","","","",""
"","do_trial","133","1791855","0.0-112.0-0.0","779.8000000007451","","","","49","0,1,1","1","countryside","69","probe-201","0.07826371012052709","0.4756633601883321","0.788311401765699","0","","","","","",""
"","do_trial","134","1797501","0.0-113.0-0.0","102.89999999850988","","","","51","0,1,1","1","countryside","70","probe-122","0.16824750091628773","0.5548440620816425","0.6602292380357575","1","","","","","",""
"","do_trial","135","1803352","0.0-114.0-0.0","295.4000000022352","","","","50","0,1,1","1","countryside","71","probe-79","0.20701454079418022","0.5383046469650727","0.7111130380146133","1","","","","","",""
"","do_trial","136","1809992","0.0-115.0-0.0","1098.6000000014901","","","","49","0,0,1","1","countryside","72","probe-213","0.10779792262697743","0.5982296139094843","0.6866992921867192","0","","","","","",""
"","do_trial","137","1815679","0.0-116.0-0.0","137.90000000223517","","","","51","1,1,1","1","countryside","73","probe-106","0.2925775149052616","0.4649972706430665","0.6550359708388396","1","","","","","",""
"","do_trial","138","1821265","0.0-117.0-0.0","46.79999999701977","","","","50","1,0,1","1","countryside","74","probe-80","0.23799137071212387","0.40830414599816145","0.7520620329711276","0","","","","","",""
"","do_trial","139","1826986","0.0-118.0-0.0","166.80000000074506","","","","49","0,0,0","1","countryside","75","probe-13","0.2154502916070871","0.2925176496610264","0.754306832045632","0","","","","","",""
"","do_trial","140","1832568","0.0-119.0-0.0","32.19999999925494","","","","51","0,0,1","1","countryside","76","probe-207","0.18187160373984845","0.36389166550862256","0.6581757030032293","1","","","","","",""
"","do_trial","141","1838445","0.0-120.0-0.0","326.19999999925494","","","","50","0,0,0","1","countryside","77","probe-09","0.3819914858314657","0.4020587794429282","0.7826400863963963","0","","","","","",""
"","do_trial","142","1844177","0.0-121.0-0.0","180","","","","49","0,0,1","1","countryside","78","probe-14","0.25501842069908504","0.4836855173361896","0.7186860651414908","0","","","","","",""
"","do_trial","143","1850404","0.0-122.0-0.0","686.5","","","","51","0,1,0","1","countryside","79","probe-112","0.08459143869713774","0.2696320742808969","0.6624127254073201","0","","","","","",""
"","do_bye","144","1851912","0.0-123.0-0.0","null","","","","null","","","","","","","","","","","","","","",""
"","do_travel","145","1857917","0.0-124.0-0.0","null","","","","null","","","","","","","","","","","","","","",""
"","do_welcome","146","1859422","0.0-124.0-1.0","null","","","","null","","","","","","","","","","","","","","",""
"","do_trial","147","1867250","0.0-125.0-0.0","2281.699999999255","","","","49","0,0,1","2","highway","80","probe-102","0.10297309861072783","0.17262227977397085","1","0","","","","","",""
"","do_trial","148","1873266","0.0-126.0-0.0","472.0999999977648","","","","50","0,1,1","2","highway","81","probe-60","0.09894067582190992","0.12738876627986462","1","1","","","","","",""
"","do_trial","149","1879471","0.0-127.0-0.0","663.3999999985099","","","","51","0,1,1","2","highway","82","probe-128","0.09044004351066445","0.1833528159551383","1","1","","","","","",""
"","do_trial","150","1885486","0.0-128.0-0.0","468.1000000014901","","","","51","0,0,1","2","highway","83","probe-188","0.1354317216142868","0.22964497090144886","1","1","","","","","",""
"","do_trial","151","1891874","0.0-129.0-0.0","832.6000000014901","","","","51","0,0,0","2","highway","84","probe-83","0.06946590934911277","0.33492099483500976","0.7913680932838094","0","","","","","",""
"","do_trial","152","1898174","0.0-130.0-0.0","760.5","","","","50","0,0,1","2","highway","85","probe-81","0.10249239376960714","0.3551505475967283","0.7752797870603092","0","","","","","",""
"","do_trial","153","1904380","0.0-131.0-0.0","656.8000000007451","","","","49","0,0,1","2","highway","86","probe-133","0.06564218155738136","0.3143454450884836","0.8919116164327655","0","","","","","",""
"","do_trial","154","1910192","0.0-132.0-0.0","260.3999999985099","","","","51","0,0,1","2","highway","87","probe-165","0.09553743290722444","0.3967662609347309","0.9404254162909836","1","","","","","",""
"","do_trial","155","1916249","0.0-133.0-0.0","505.19999999925494","","","","50","0,1,1","2","highway","88","probe-166","0.12557711782634595","0.3991557656097556","0.9101821908386458","1","","","","","",""
"","do_trial","156","1922305","0.0-134.0-0.0","500.3999999985099","","","","50","0,0,1","2","highway","89","probe-169","0.0963095280826413","0.33321145133716895","0.9380010602184963","0","","","","","",""
"","do_trial","157","1927888","0.0-135.0-0.0","39.099999997764826","","","","51","0,0,1","2","highway","90","probe-186","0.4484518646285855","0.29006463554956613","0.7490968628394907","1","","","","","",""
"","do_trial","158","1934063","0.0-136.0-0.0","624.5","","","","50","1,0,1","2","highway","91","probe-162","0.5306222799136326","0.1950324070921645","0.7037314251157156","0","","","","","",""
"","do_trial","159","1939823","0.0-137.0-0.0","221.39999999850988","","","","49","0,0,0","2","highway","92","probe-218","0.7262777524796233","0.1643959951819985","0.752466779443618","0","","","","","",""
"","do_trial","160","1945650","0.0-138.0-0.0","279.69999999925494","","","","51","1,0,0","2","highway","93","probe-78","0.7235810423761169","0.07293004483664972","0.6116271157425206","0","","","","","",""
"","do_trial","161","1951460","0.0-139.0-0.0","269.30000000074506","","","","50","1,0,1","2","highway","94","probe-118","0.650626672528864","0.12456365223684221","0.5612295776538545","0","","","","","",""
"","do_trial","162","1957231","0.0-140.0-0.0","230.30000000074506","","","","49","1,0,1","2","highway","95","probe-12","0.7700628510444066","0.12002244413938233","0.3909587281614742","1","","","","","",""
"","do_trial","163","1963519","0.0-141.0-0.0","736.3000000007451","","","","50","1,1,1","2","highway","96","probe-228","0.8035813891283","0.06770724367208045","0.38114539442783485","1","","","","","",""
"","do_trial","164","1969605","0.0-142.0-0.0","541.1999999992549","","","","50","0,1,0","2","highway","97","probe-26","0.841162260260445","0.13604709327806475","0.34055217464484194","1","","","","","",""
"","do_trial","165","1977302","0.0-143.0-0.0","2143.199999999255","","","","51","1,0,0","2","highway","98","probe-148","0.7768747143932194","0.14270282908294","0.2583218713456175","0","","","","","",""
"","do_trial","166","1983303","0.0-144.0-0.0","453.1000000014901","","","","50","1,0,1","2","highway","99","probe-151","0.8389344528806189","0.09172290634035692","0.4328481475879527","0","","","","","",""
"","do_trial","167","1989293","0.0-145.0-0.0","448.9000000022352","","","","49","1,0,0","2","highway","100","probe-199","0.797307205084645","0.1956937857478365","0.31115655425456373","1","","","","","",""
"","do_trial","168","1995147","0.0-146.0-0.0","305.20000000298023","","","","50","0,0,0","2","highway","101","probe-179","0.8984156805273371","0.1066518172997204","0.30886050408675597","0","","","","","",""
"","do_trial","169","2001384","0.0-147.0-0.0","682.1999999992549","","","","49","1,0,0","2","highway","102","probe-66","0.9273158598641038","0.11573259171601272","0.19944317398461536","1","","","","","",""
"","do_trial","170","2007577","0.0-148.0-0.0","645","","","","50","1,0,0","2","highway","103","probe-173","0.8029602344047928","0.1413157062653473","0.2661557727497701","0","","","","","",""
"","do_trial","171","2014386","0.0-149.0-0.0","1262.8999999985099","","","","51","1,0,0","2","highway","104","probe-220","0.8967300188968826","0.05146984991879815","0.3418781876029856","0","","","","","",""
"","do_trial","172","2020528","0.0-150.0-0.0","592.5","","","","49","1,0,0","2","highway","105","probe-237","0.7597939798624413","0.15600352467696213","0.3738180032363401","1","","","","","",""
"","do_trial","173","2026511","0.0-151.0-0.0","442.4000000022352","","","","50","1,0,0","2","highway","106","probe-195","0.8617437424687401","0.17761622279729072","0.2635407924091172","0","","","","","",""
"","do_trial","174","2032061","0.0-152.0-0.0","0.19999999925494194","","","","50","1,0,0","2","highway","107","probe-155","0.7803430919971795","0.15016539332160844","0.21652817740388167","0","","","","","",""
"","do_trial","175","2037691","0.0-153.0-0.0","81.10000000149012","","","","49","1,0,0","2","highway","108","probe-56","0.804495186137901","0.16429767385213354","0.27955677930231204","1","","","","","",""
"","do_trial","176","2043515","0.0-154.0-0.0","282.29999999701977","","","","49","1,0,0","2","highway","109","probe-217","0.7936263898101937","0.127453963055426","0.36290913386474133","1","","","","","",""
"","do_trial","177","2049194","0.0-155.0-0.0","126.59999999776483","","","","49","1,0,0","2","highway","110","probe-08","0.7987681734574311","0.1323477485326097","0.339441843766062","1","","","","","",""
"","do_trial","178","2055247","0.0-156.0-0.0","505.3999999985099","","","","49","1,0,1","2","highway","111","probe-232","0.9161564342654831","0.06321701012117951","0.2594379273964387","1","","","","","",""
"","do_trial","179","2061121","0.0-157.0-0.0","333","","","","49","1,0,0","2","highway","112","probe-69","0.867101728607003","0.07844992675649837","0.38501150282244206","1","","","","","",""
"","do_trial","180","2066996","0.0-158.0-0.0","331.1000000014901","","","","49","1,0,1","2","highway","113","probe-223","0.9372313801501082","0.07293679063633692","0.49495087509862773","1","","","","","",""
"","do_trial","181","2073062","0.0-159.0-0.0","518.6999999992549","","","","49","1,0,1","2","highway","114","probe-97","0.924551301234074","0.05882034058134465","0.44220230416165246","1","","","","","",""
"","do_trial","182","2078969","0.0-160.0-0.0","358","","","","49","1,0,1","2","highway","115","probe-219","0.8259801648821454","0.1061675106871436","0.3623023305422977","1","","","","","",""
"","do_trial","183","2085132","0.0-161.0-0.0","621.1000000014901","","","","49","0,0,1","2","highway","116","probe-161","0.7066480477633446","0.15172892371485636","0.416807730248933","0","","","","","",""
"","do_trial","184","2090686","0.0-162.0-0.0","0.10000000149011612","","","","49","1,0,1","2","highway","117","probe-231","0.8186275217093387","0.20674627674448462","0.40167342257593674","1","","","","","",""
"","do_trial","185","2096977","0.0-163.0-0.0","737.5","","","","49","1,0,0","2","highway","118","probe-222","0.9221879541416966","0.10194961948029964","0.36000033217443667","1","","","","","",""
"","do_trial","186","2103247","0.0-164.0-0.0","724.8000000007451","","","","49","1,0,0","2","highway","119","probe-146","0.8808178797131135","0.09499137772813875","0.4426244994166023","1","","","","","",""
"","do_bye","187","2104765","0.0-165.0-0.0","null","","","","null","","","","","","","","","","","","","","",""
"","do_travel","188","2111523","0.0-166.0-0.0","null","","","","null","","","","","","","","","","","","","","",""
"","do_welcome","189","2113029","0.0-166.0-1.0","null","","","","null","","","","","","","","","","","","","","",""
"","do_trial","190","2121024","0.0-167.0-0.0","2454.89999999851","","","","50","1,0,0","3","mountain","120","probe-145","1","0.12643564222202597","0.34506600930129294","0","","","","","",""
"","do_trial","191","2127609","0.0-168.0-0.0","1038","","","","49","1,0,0","3","mountain","121","probe-111","1","0.16460350678909585","0.34647074938597555","1","","","","","",""
"","do_trial","192","2134523","0.0-169.0-0.0","null","","","","null","1,0,0","3","mountain","122","probe-76","1","0.05906098009181194","0.3482036093008409","","","","","","",""
"","do_trial","193","2141356","0.0-170.0-0.0","1276.699999999255","","","","49","1,0,1","3","mountain","123","probe-152","1","0.0523421637923372","0.357532598155213","1","","","","","",""
"","do_trial","194","2149208","0.0-171.0-0.0","2301.7999999970198","","","","50","1,0,0","3","mountain","124","probe-227","0.876951066641892","0.09287701591600116","0.4213946570468017","0","","","","","",""
"","do_trial","195","2155267","0.0-172.0-0.0","null","","","","null","0,1,0","3","mountain","125","probe-236","0.7998325467995211","0.15817444183006343","0.4652317353626086","","","","","","",""
"","do_trial","196","2161331","0.0-173.0-0.0","null","","","","null","0,0,0","3","mountain","126","probe-73","0.8645882695314596","0.14359876597049095","0.34530166231176834","","","","","","",""
"","do_trial","197","2167752","0.0-174.0-0.0","878.3999999985099","","","","49","1,0,1","3","mountain","127","probe-59","0.924845397186215","0.24497622365972477","0.47895120945279857","1","","","","","",""
"","do_trial","198","2173991","0.0-175.0-0.0","686.4000000022352","","","","50","1,0,1","3","mountain","128","probe-108","0.894240477590241","0.19364157655879968","0.5775191855212358","0","","","","","",""
"","do_trial","199","2179929","0.0-176.0-0.0","393.80000000074506","","","","49","1,1,1","3","mountain","129","probe-212","0.9208725840909557","0.21440354966590514","0.5416520690387056","1","","","","","",""
"","do_trial","200","2185739","0.0-177.0-0.0","259.9000000022352","","","","49","0,1,1","3","mountain","130","probe-04","0.7770651136286109","0.40269757684505025","0.7354578783826919","0","","","","","",""
"","do_trial","201","2192225","0.0-178.0-0.0","936.1999999992549","","","","49","1,0,1","3","mountain","131","probe-75","0.5184583358603937","0.2808139945269299","0.7369500841424607","1","","","","","",""
"","do_trial","202","2198350","0.0-179.0-0.0","579.3000000007451","","","","49","0,0,1","3","mountain","132","probe-193","0.24612789834737464","0.2686909857041405","0.8157824009371427","0","","","","","",""
"","do_trial","203","2204341","0.0-180.0-0.0","447.30000000074506","","","","49","0,0,1","3","mountain","133","probe-68","0.24949064567252568","0.2994256507072293","0.8636455417281937","0","","","","","",""
"","do_trial","204","2210507","0.0-181.0-0.0","622.5","","","","50","0,1,1","3","mountain","134","probe-172","0.1859574056281425","0.31622109112562186","0.9200818835336834","1","","","","","",""
"","do_trial","205","2216211","0.0-182.0-0.0","156","","","","51","0,1,1","3","mountain","135","probe-51","0.12494462190176972","0.47529309892739086","0.9451821109511497","1","","","","","",""
"","do_trial","206","2221934","0.0-183.0-0.0","181.90000000223517","","","","51","0,0,1","3","mountain","136","probe-198","0.17992073476335563","0.48694605611474295","0.9280856215689228","1","","","","","",""
"","do_trial","207","2227988","0.0-184.0-0.0","496.4000000022352","","","","51","0,1,1","3","mountain","137","probe-225","0.09782630997858512","0.44929350327083684","0.9131737158990045","1","","","","","",""
"","do_trial","208","2233965","0.0-185.0-0.0","436.5999999977648","","","","51","0,1,1","3","mountain","138","probe-214","0.1092582761063278","0.4653423191539757","0.8013509486967739","1","","","","","",""
"","do_trial","209","2239812","0.0-186.0-0.0","294.8999999985099","","","","51","0,1,0","3","mountain","139","probe-167","0.13669498512296616","0.4718379676905219","0.7549696039522175","0","","","","","",""
"","do_trial","210","2245475","0.0-187.0-0.0","111.80000000074506","","","","51","0,0,1","3","mountain","140","probe-110","0.13009652165972102","0.5453106195647556","0.9183012209857887","1","","","","","",""
"","do_trial","211","2252019","0.0-188.0-0.0","998.1999999992549","","","","51","0,0,1","3","mountain","141","probe-15","0.06268044369423292","0.48921587492172086","0.9111210556771985","1","","","","","",""
"","do_trial","212","2258069","0.0-189.0-0.0","503.30000000074506","","","","51","1,0,1","3","mountain","142","probe-05","0.18972566110715572","0.44826072860474214","0.9338852959769046","1","","","","","",""
"","do_trial","213","2263959","0.0-190.0-0.0","340","","","","51","0,0,1","3","mountain","143","probe-16","0.21971475583270594","0.3300412810887711","0.8448240874934229","1","","","","","",""
"","do_trial","214","2270585","0.0-191.0-0.0","1080.3999999985099","","","","51","1,1,1","3","mountain","144","probe-239","0.12361604662378063","0.6240977343867472","0.8218306609879419","1","","","","","",""
"","do_trial","215","2276672","0.0-192.0-0.0","540.1000000014901","","","","51","0,1,1","3","mountain","145","probe-48","0.11797850027993789","0.5777445470406216","0.712659187326679","1","","","","","",""
"","do_trial","216","2282746","0.0-193.0-0.0","530.3999999985099","","","","51","0,1,1","3","mountain","146","probe-31","0.20938181107916165","0.4616831535707068","0.7946022365210393","1","","","","","",""
"","do_trial","217","2288782","0.0-194.0-0.0","490.8999999985099","","","","51","0,1,0","3","mountain","147","probe-63","0.05882108013183834","0.5124945692530316","0.7289173787995108","0","","","","","",""
"","do_trial","218","2294807","0.0-195.0-0.0","460.69999999925494","","","","51","0,1,1","3","mountain","148","probe-28","0.107147716982402","0.5196605358539302","0.8179146900145754","1","","","","","",""
"","do_trial","219","2300640","0.0-196.0-0.0","277.8999999985099","","","","49","0,1,1","3","mountain","149","probe-38","0.14695287755562553","0.590942533687636","0.7877275772233084","0","","","","","",""
"","do_trial","220","2306312","0.0-197.0-0.0","127.40000000223517","","","","51","0,1,1","3","mountain","150","probe-58","0.16577208394447804","0.5875918489856492","0.83032973385824","1","","","","","",""
"","do_trial","221","2312733","0.0-198.0-0.0","870.8000000007451","","","","51","0,1,1","3","mountain","151","probe-34","0.15618074886312258","0.5963467344663199","0.8463686397103213","1","","","","","",""
"","do_trial","222","2318899","0.0-199.0-0.0","621.0999999977648","","","","51","0,0,1","3","mountain","152","probe-10","0.13004948796653237","0.5159343922471318","0.9497352438254404","1","","","","","",""
"","do_trial","223","2324492","0.0-200.0-0.0","41.399999998509884","","","","51","0,0,1","3","mountain","153","probe-233","0.05635723745124506","0.46873606972917164","0.8659949715445072","1","","","","","",""
"","do_trial","224","2330045","0.0-201.0-0.0","0.10000000149011612","","","","49","0,0,0","3","mountain","154","probe-116","0.0724945117380371","0.3381035185227392","0.8276177391354631","0","","","","","",""
"","do_trial","225","2336077","0.0-202.0-0.0","489.3999999985099","","","","51","0,1,1","3","mountain","155","probe-52","0.058307951196420106","0.30117343389259826","0.832847707090011","1","","","","","",""
"","do_trial","226","2342163","0.0-203.0-0.0","540.2999999970198","","","","51","0,0,1","3","mountain","156","probe-139","0.056655869214956224","0.20975310816366044","0.9288354488501221","1","","","","","",""
"","do_trial","227","2348883","0.0-204.0-0.0","1177","","","","51","0,1,1","3","mountain","157","probe-46","0.1476354157485552","0.365311055643784","0.8105319015648226","1","","","","","",""
"","do_trial","228","2354932","0.0-205.0-0.0","507.0999999977648","","","","51","0,0,1","3","mountain","158","probe-159","0.26608972864307945","0.3230708741613983","0.7952752324117545","1","","","","","",""
"","do_trial","229","2361099","0.0-206.0-0.0","609.3999999985099","","","","51","0,0,1","3","mountain","159","probe-94","0.15446816451848386","0.28445722892427866","0.8123832520427365","1","","","","","",""
"","do_bye","230","2362613","0.0-207.0-0.0","null","","","","null","","","","","","","","","","","","","","",""
"","do_travel","231","2368621","0.0-208.0-0.0","null","","","","null","","","","","","","","","","","","","","",""
"","do_welcome","232","2370127","0.0-208.0-1.0","null","","","","null","","","","","","","","","","","","","","",""
"","do_trial","233","2376881","0.0-209.0-0.0","1214.5","","","","51","0,1,1","4","forest","160","probe-182","0.14392323704992918","0.23294138248691124","1","1","","","","","",""
"","do_trial","234","2384271","0.0-210.0-0.0","1848.9000000022352","","","","50","0,0,1","4","forest","161","probe-234","0.15419500845665543","0.21756827806314327","1","0","","","","","",""
"","do_trial","235","2392066","0.0-211.0-0.0","2250.400000002235","","","","49","0,0,1","4","forest","162","probe-45","0.11289666648783148","0.2711228947411615","1","0","","","","","",""
"","do_trial","236","2398502","0.0-212.0-0.0","887.6999999992549","","","","51","0,0,1","4","forest","163","probe-17","0.10350317729264143","0.24902221694524718","1","1","","","","","",""
"","do_trial","237","2405608","0.0-213.0-0.0","1552.5","","","","51","0,0,1","4","forest","164","probe-197","0.18759169071312579","0.3311041220900443","0.931567334431664","1","","","","","",""
"","do_trial","238","2411809","0.0-214.0-0.0","649.6000000014901","","","","51","0,0,1","4","forest","165","probe-158","0.0791991709477726","0.3603468392474596","0.7886221606709264","1","","","","","",""
"","do_trial","239","2418676","0.0-215.0-0.0","1320.199999999255","","","","51","0,0,0","4","forest","166","probe-140","0.069779375790957","0.40976128478578694","0.7600773850886493","0","","","","","",""
"","do_trial","240","2424658","0.0-216.0-0.0","437.19999999925494","","","","49","0,0,1","4","forest","167","probe-74","0.1639281785271864","0.37293392453931445","0.7757916137020046","0","","","","","",""
"","do_trial","241","2430545","0.0-217.0-0.0","334.1000000014901","","","","51","0,1,0","4","forest","168","probe-177","0.07496216331239107","0.4161825905679752","0.6096060035896905","0","","","","","",""
"","do_trial","242","2436155","0.0-218.0-0.0","60.69999999925494","","","","50","0,0,1","4","forest","169","probe-47","0.11356230818042545","0.3762754868193545","0.7372211903387864","0","","","","","",""
"","do_trial","243","2441998","0.0-219.0-0.0","289.8999999985099","","","","51","0,0,1","4","forest","170","probe-130","0.32745442376582357","0.35429486864581977","0.7310421344213832","1","","","","","",""
"","do_trial","244","2447920","0.0-220.0-0.0","374","","","","51","0,1,0","4","forest","171","probe-132","0.4489599756779147","0.3589379575892515","0.5684815097575429","0","","","","","",""
"","do_trial","245","2453728","0.0-221.0-0.0","261.29999999701977","","","","49","0,0,1","4","forest","172","probe-127","0.6537016538559302","0.11347953561991682","0.3764290342167561","0","","","","","",""
"","do_trial","246","2459717","0.0-222.0-0.0","437.19999999925494","","","","50","1,0,1","4","forest","173","probe-203","0.6878146038421223","0.2586395418795128","0.37639915350391134","0","","","","","",""
"","do_trial","247","2465532","0.0-223.0-0.0","266.9000000022352","","","","51","1,1,0","4","forest","174","probe-96","0.6721575466248373","0.2709901908156626","0.47949971335507646","0","","","","","",""
"","do_trial","248","2471330","0.0-224.0-0.0","248.29999999701977","","","","49","0,1,0","4","forest","175","probe-189","0.5306589832197447","0.26147480504542714","0.4787736333114379","0","","","","","",""
"","do_trial","249","2476884","0.0-225.0-0.0","0","","","","51","1,0,0","4","forest","176","probe-226","0.5507932604682347","0.09697003399595873","0.3795293341071587","0","","","","","",""
"","do_trial","250","2483310","0.0-226.0-0.0","882.4000000022352","","","","50","1,0,1","4","forest","177","probe-92","0.7319374077376564","0.07754662938796776","0.3720133262008076","0","","","","","",""
"","do_trial","251","2488963","0.0-227.0-0.0","113.69999999925494","","","","50","0,0,0","4","forest","178","probe-40","0.6718789291269615","0.14480476784975752","0.44587338083020267","0","","","","","",""
"","do_trial","252","2494935","0.0-228.0-0.0","424.5","","","","49","1,0,0","4","forest","179","probe-87","0.7885387413456516","0.17021615243417912","0.32601803365974164","1","","","","","",""
"","do_trial","253","2500626","0.0-229.0-0.0","143","","","","49","1,0,0","4","forest","180","probe-129","0.7835714911826263","0.12311456152338293","0.30699053418915834","1","","","","","",""
"","do_trial","254","2506557","0.0-230.0-0.0","386","","","","49","1,0,0","4","forest","181","probe-178","0.8521450376005645","0.07715508044995734","0.370015450231461","1","","","","","",""
"","do_trial","255","2512881","0.0-231.0-0.0","785.4000000022352","","","","49","1,0,0","4","forest","182","probe-02","0.904020754500742","0.11371262466343945","0.41506341905246247","1","","","","","",""
"","do_trial","256","2518957","0.0-232.0-0.0","534.1999999992549","","","","49","1,0,0","4","forest","183","probe-126","0.6207546600194013","0.2367051552518362","0.3286762088440536","1","","","","","",""
"","do_trial","257","2524949","0.0-233.0-0.0","438.80000000074506","","","","49","1,0,0","4","forest","184","probe-41","0.7057988162938362","0.18741056576841636","0.3869331310174189","1","","","","","",""
"","do_trial","258","2531169","0.0-234.0-0.0","671","","","","49","1,0,0","4","forest","185","probe-57","0.8023904421656382","0.20685437067293003","0.4592426364878949","1","","","","","",""
"","do_trial","259","2537532","0.0-235.0-0.0","810.8000000007451","","","","49","1,1,1","4","forest","186","probe-98","0.7572558839678782","0.1446851536034733","0.49457694363794646","1","","","","","",""
"","do_trial","260","2543355","0.0-236.0-0.0","278.20000000298023","","","","49","0,0,1","4","forest","187","probe-114","0.8063492576242461","0.07935822326727615","0.36364742826501356","0","","","","","",""
"","do_trial","261","2550027","0.0-237.0-0.0","1118.0999999977648","","","","51","1,0,0","4","forest","188","probe-190","0.7684707973328583","0.10770304439942781","0.46881638495444966","0","","","","","",""
"","do_trial","262","2556154","0.0-238.0-0.0","583.3999999985099","","","","50","1,1,0","4","forest","189","probe-89","0.844606847019649","0.12997684291770326","0.32492229782265164","1","","","","","",""
"","do_trial","263","2562228","0.0-239.0-0.0","529.1000000014901","","","","49","0,0,0","4","forest","190","probe-170","0.7711714730905816","0.15036699583096122","0.2005377728172266","0","","","","","",""
"","do_trial","264","2568218","0.0-240.0-0.0","436.3999999985099","","","","51","1,0,0","4","forest","191","probe-168","0.8159360077944261","0.06838868564503561","0.3375219390079537","0","","","","","",""
"","do_trial","265","2574190","0.0-241.0-0.0","431","","","","50","1,0,0","4","forest","192","probe-19","0.8047679896425022","0.12524601822366135","0.3760688268407411","0","","","","","",""
"","do_trial","266","2579892","0.0-242.0-0.0","158.69999999925494","","","","49","1,1,0","4","forest","193","probe-95","0.8262062855708879","0.21203465449550968","0.44009651836075203","1","","","","","",""
"","do_trial","267","2586144","0.0-243.0-0.0","712.4000000022352","","","","51","1,0,0","4","forest","194","probe-121","0.7661772014650223","0.12372343890512646","0.28560349792418427","0","","","","","",""
"","do_trial","268","2592995","0.0-244.0-0.0","1292.2000000029802","","","","50","1,0,0","4","forest","195","probe-119","0.7116265404208224","0.2742123496074941","0.36802647032841906","0","","","","","",""
"","do_trial","269","2598825","0.0-245.0-0.0","288.3999999985099","","","","49","0,0,0","4","forest","196","probe-150","0.7839025833191263","0.11426163794883597","0.440420138732246","0","","","","","",""
"","do_trial","270","2604411","0.0-246.0-0.0","32","","","","51","1,0,1","4","forest","197","probe-125","0.7822016930847139","0.12648168047779548","0.45510486062653477","1","","","","","",""
"","do_trial","271","2610506","0.0-247.0-0.0","547.9000000022352","","","","51","1,0,1","4","forest","198","probe-185","0.7769512386402871","0.07531762399893195","0.5792333259913813","1","","","","","",""
"","do_trial","272","2617006","0.0-248.0-0.0","953.5","","","","51","1,0,0","4","forest","199","probe-221","0.8399423762172974","0.09425245640805242","0.5224247201190892","0","","","","","",""
"","do_bye","273","2618519","0.0-249.0-0.0","null","","","","null","","","","","","","","","","","","","","",""
"","do_travel","274","2624532","0.0-250.0-0.0","null","","","","null","","","","","","","","","","","","","","",""
"","do_welcome","275","2626049","0.0-250.0-1.0","null","","","","null","","","","","","","","","","","","","","",""
"","do_trial","276","2632119","0.0-251.0-0.0","null","","","","null","1,0,0","5","city","200","probe-191","1","0.17820667333394838","0.50206449426034","","","","","","",""
"","do_trial","277","2638002","0.0-252.0-0.0","329","","","","50","1,0,1","5","city","201","probe-65","1","0.19082770156861398","0.5402842420625388","0","","","","","",""
"","do_trial","278","2644434","0.0-253.0-0.0","891.6000000014901","","","","51","1,0,1","5","city","202","probe-157","1","0.17573240986483427","0.4456542004042806","1","","","","","",""
"","do_trial","279","2650403","0.0-254.0-0.0","418.1000000014901","","","","49","1,0,1","5","city","203","probe-142","1","0.1008190973458397","0.384254673935962","1","","","","","",""
"","do_trial","280","2656434","0.0-255.0-0.0","490","","","","49","1,0,0","5","city","204","probe-61","0.891624389987104","0.05366567602230826","0.39303307715238134","1","","","","","",""
"","do_trial","281","2662976","0.0-256.0-0.0","1000.4000000022352","","","","49","1,0,0","5","city","205","probe-104","0.8611798593784057","0.108500757624996","0.43844555681267694","1","","","","","",""
"","do_trial","282","2668611","0.0-257.0-0.0","92.30000000074506","","","","49","1,0,1","5","city","206","probe-29","0.8097599932682699","0.1652898575630019","0.4719370022013945","1","","","","","",""
"","do_trial","283","2676145","0.0-258.0-0.0","1985.800000000745","","","","49","1,0,0","5","city","207","probe-149","0.7780942544129382","0.17140570636075136","0.49661121228036786","1","","","","","",""
"","do_trial","284","2682815","0.0-259.0-0.0","1114.800000000745","","","","49","0,0,1","5","city","208","probe-163","0.7284994089250131","0.10946393015841213","0.3541088234158062","0","","","","","",""
"","do_trial","285","2688673","0.0-260.0-0.0","311.80000000074506","","","","49","1,0,0","5","city","209","probe-93","0.8440053819482133","0.1160989093801939","0.35387678129696376","1","","","","","",""
"","do_trial","286","2694991","0.0-261.0-0.0","768.8000000007451","","","","49","1,0,0","5","city","210","probe-62","0.5552249181961709","0.18925416395341046","0.5749592506822784","1","","","","","",""
"","do_trial","287","2702682","0.0-262.0-0.0","2149.300000000745","","","","50","1,0,0","5","city","211","probe-84","0.4587689577511392","0.1960496304669094","0.7596444158613719","0","","","","","",""
"","do_trial","288","2710033","0.0-263.0-0.0","1806.3999999985099","","","","49","0,1,1","5","city","212","probe-03","0.2863899072826282","0.2812592157161032","0.7271815693977758","0","","","","","",""
"","do_trial","289","2716653","0.0-264.0-0.0","1077.199999999255","","","","49","0,0,0","5","city","213","probe-196","0.2712201020163083","0.4085771576583461","0.6095687567801349","0","","","","","",""
"","do_trial","290","2724372","0.0-265.0-0.0","2173.199999999255","","","","50","0,0,1","5","city","214","probe-24","0.28098544192372493","0.23458078717482067","0.7354852337234997","0","","","","","",""
"","do_trial","291","2730552","0.0-266.0-0.0","627.1999999992549","","","","51","0,0,1","5","city","215","probe-35","0.13942649074481078","0.2358537937924558","0.8063669817455136","1","","","","","",""
"","do_trial","292","2736942","0.0-267.0-0.0","849","","","","51","0,0,1","5","city","216","probe-183","0.16093528888169498","0.1923958440466626","0.8831214112340507","1","","","","","",""
"","do_trial","293","2743393","0.0-268.0-0.0","888.8000000007451","","","","51","0,0,1","5","city","217","probe-153","0.17455359523339728","0.22672579615917385","0.9174970735123149","1","","","","","",""
"","do_trial","294","2749857","0.0-269.0-0.0","920.3999999985099","","","","51","0,0,1","5","city","218","probe-36","0.07977828386612486","0.2393257673536877","0.8130481003779428","1","","","","","",""
"","do_trial","295","2756370","0.0-270.0-0.0","963.1999999992549","","","","51","0,1,1","5","city","219","probe-154","0.1671355064947904","0.27408019153815266","0.7547770820860679","1","","","","","",""
"","do_trial","296","2762511","0.0-271.0-0.0","592.6000000014901","","","","51","0,0,0","5","city","220","probe-55","0.11041789098770853","0.31025771942566843","0.8138226100780406","0","","","","","",""
"","do_trial","297","2768325","0.0-272.0-0.0","257.8999999985099","","","","51","0,0,1","5","city","221","probe-240","0.06507725097210146","0.39487792665205407","0.8097273758565849","1","","","","","",""
"","do_trial","298","2774512","0.0-273.0-0.0","643.3999999985099","","","","51","0,0,0","5","city","222","probe-124","0.10343486717254165","0.36906182917207553","0.9066000410483767","0","","","","","",""
"","do_trial","299","2781549","0.0-274.0-0.0","1493.7000000029802","","","","51","0,1,1","5","city","223","probe-07","0.08298042646593562","0.4180916433540775","0.8187657571652492","1","","","","","",""
"","do_trial","300","2787781","0.0-275.0-0.0","681.5","","","","51","0,1,0","5","city","224","probe-50","0.1706803421176059","0.32669162096216364","0.7280933187738764","0","","","","","",""
"","do_trial","301","2794967","0.0-276.0-0.0","1633.1000000014901","","","","49","0,0,1","5","city","225","probe-27","0.07718487693910892","0.38297320858429984","0.7299899180712851","0","","","","","",""
"","do_trial","302","2801029","0.0-277.0-0.0","507.69999999925494","","","","51","0,0,0","5","city","226","probe-208","0.1169331802064155","0.43697796798858873","0.7498006192136611","0","","","","","",""
"","do_trial","303","2806837","0.0-278.0-0.0","263.1000000014901","","","","50","0,0,1","5","city","227","probe-86","0.15181427161506916","0.4773654032391128","0.8016646399304608","0","","","","","",""
"","do_trial","304","2813116","0.0-279.0-0.0","728.8999999985099","","","","51","1,0,1","5","city","228","probe-211","0.18113222800421044","0.49043742269592777","0.6908034132742273","1","","","","","",""
"","do_trial","305","2819790","0.0-280.0-0.0","1124.199999999255","","","","51","0,1,1","5","city","229","probe-194","0.24470577666995127","0.498878148882399","0.6463740068945958","1","","","","","",""
"","do_trial","306","2825821","0.0-281.0-0.0","477.69999999925494","","","","51","0,0,1","5","city","230","probe-44","0.17721429830316723","0.43301850140489173","0.6339556844376651","1","","","","","",""
"","do_trial","307","2832187","0.0-282.0-0.0","822.5","","","","51","0,0,1","5","city","231","probe-43","0.28155395859210147","0.4792180597050688","0.7097840002323896","1","","","","","",""
"","do_trial","308","2838279","0.0-283.0-0.0","544.6999999992549","","","","51","0,0,1","5","city","232","probe-164","0.13792414655583252","0.4094871283753732","0.6972055553040865","1","","","","","",""
"","do_trial","309","2844209","0.0-284.0-0.0","380","","","","51","0,1,1","5","city","233","probe-107","0.19745359017158387","0.4519261645587924","0.8006750640969269","1","","","","","",""
"","do_trial","310","2850424","0.0-285.0-0.0","664.1999999992549","","","","51","0,0,1","5","city","234","probe-156","0.05619314406871562","0.4016243843301144","0.6353120096816064","1","","","","","",""
"","do_trial","311","2856838","0.0-286.0-0.0","873.8000000007451","","","","51","0,0,1","5","city","235","probe-136","0.10748342037991333","0.2951143321530256","0.7446552684632094","1","","","","","",""
"","do_trial","312","2862921","0.0-287.0-0.0","531.5","","","","51","0,1,1","5","city","236","probe-72","0.05918195772471252","0.39264584646974343","0.851596258032506","1","","","","","",""
"","do_trial","313","2869716","0.0-288.0-0.0","1242.4000000022352","","","","51","1,0,1","5","city","237","probe-209","0.24423282285249961","0.4469079304382546","0.9455161384439535","1","","","","","",""
"","do_trial","314","2876258","0.0-289.0-0.0","991.6999999992549","","","","51","0,1,1","5","city","238","probe-22","0.13248295162837226","0.4807539077759928","0.8425821357426688","1","","","","","",""
"","do_trial","315","2882453","0.0-290.0-0.0","640.3000000007451","","","","51","0,0,1","5","city","239","probe-101","0.07006505818265277","0.5156745087137303","0.8439217516295574","1","","","","","",""
"","do_bye","316","2883964","0.0-291.0-0.0","null","","","","null","","","","","","","","","","","","","","",""
"","html-keyboard-response","317","2977836","0.0-291.0-1.0","93870.10000000149","<div class='center'><p>You may take a break now!</p><p> Stretch for a little bit. Get a glass of water.</p><p> You have two minutes to rest. Then, the game will automatically move on.</p><p>If you’d like to get started on the second half of the experiment sooner, then press the <b>space bar</b></p></div>","32","","","","","","","","","","","","","","","","",""
"","html-keyboard-response","318","2983257","0.0-291.0-2.0","5420.099999997765","<div class='center'><p>You’ve arrived at the final destination of your journey! Unfortunately, it’s very foggy out, so you won’t be able to see it in the distance like in previous places you've visited.</p><p>You’ll still be deciding which pirates you want to rob ships. However, because of the fog you also won’t be able to see the ship in the distance. </p><p><b>[Press the space bar to continue]</b></p></div>","32","","","","","","","","","","","","","","","","",""
"","html-keyboard-response","319","3200275","0.0-291.0-3.0","217016.5","<div class='center'><p> Sometimes you’ll be asked if you’ve seen a ship before (see the example below). You will use the 5, 6, 7, 8 buttons on your keyboard to respond. </p><p> If you definitely did not see the ship, pick the the big red thumbs down by pressing <b>5</b>.</p><p> If you don’t think you saw it but aren’t sure, then pick the small red thumbs down by pressing <b>6</b>.</p><p> If you think you might have seen it, then pick the small green thumbs up by pressing <b>7</b>.</p><p> If you definitely did see this ship before, then pick the big thumb green thumbs up by pressing <b>8</b>.</p><p> If you recall correctly, then you’ll get a gold coin!</p><p><b>[Press the space bar to begin the next phase of the experiment]</b></p><p><img src='run_exp/static/images/example_recog_trial.png' height='500'></p></div>","32","","","","","","","","","","","","","","","","",""
"","do_welcome","320","3201786","0.0-291.0-4.0","null","","","","null","","","","","","","","","","","","","","",""
"","do_trial","321","3207847","0.0-292.0-0.0","null","","","","null","0,0,1","6","blank","240","null","0.09038172629052886","0.5576318557890683","1","","","","","","",""
"","do_trial","322","3211729","0.0-293.0-0.0","337.19999999925494","","","","49","0,1,0","6","blank","241","null","0.07760071044265879","0.5787647709395585","0.8380501650626953","0","","","","","",""
"","do_trial","323","3215907","0.0-294.0-0.0","635","","","","49","0,0,1","6","blank","242","null","0.12330148104014851","0.618992496027083","0.736005842443284","0","","","","","",""
"","do_trial","324","3220105","0.0-295.0-0.0","647.5","","","","50","1,1,1","6","blank","243","null","0.2616137890554654","0.6227858619935522","0.6850704264617876","1","","","","","",""
"","do_trial","325","3225388","0.0-296.0-0.0","1730.3999999985099","","","","51","0,1,0","6","blank","244","null","0.20528610956475996","0.557872266435043","0.7263701890329604","0","","","","","",""
"","do_recog","326","3230500","0.0-297.0-0.0","3604.89999999851","","","","56","","","","245","probe-93","","","","","1","[object Object]","209","5","1",""
"","do_trial","327","3236509","0.0-298.0-0.0","2452.699999999255","","","","50","0,0,1","6","blank","246","null","0.05774509876654087","0.5017841209481765","0.7127568005395764","0","","","","","",""
"","do_recog","328","3239884","0.0-299.0-0.0","1864.800000000745","","","","56","","","","247","probe-254","","","","","0","[object Object]","null","null","0",""
"","do_trial","329","3245577","0.0-300.0-0.0","2150.599999997765","","","","49","0,0,1","6","blank","248","null","0.07954734159882391","0.4777816814265052","0.6834957903484467","0","","","","","",""
"","do_recog","330","3248043","0.0-301.0-0.0","960.6000000014901","","","","55","","","","249","probe-249","","","","","0","[object Object]","null","null","0",""
"","do_trial","331","3252321","0.0-302.0-0.0","736.1999999992549","","","","50","0,0,1","6","blank","250","null","0.1322049401172061","0.4808534916284874","0.7757825217177652","0","","","","","",""
"","do_recog","332","3255281","0.0-303.0-0.0","1455.300000000745","","","","55","","","","251","probe-163","","","","","1","[object Object]","208","5","1",""
"","do_trial","333","3261159","0.0-304.0-0.0","2331.39999999851","","","","49","0,1,1","6","blank","252","null","0.0796950074392158","0.42701078582638874","0.7559873304037805","0","","","","","",""
"","do_trial","334","3265191","0.0-305.0-0.0","488.3999999985099","","","","50","0,1,1","6","blank","253","null","0.13451868001213504","0.3115608278606868","0.7753903675120278","1","","","","","",""
"","do_recog","335","3268122","0.0-306.0-0.0","1422.699999999255","","","","53","","","","254","probe-29","","","","","1","[object Object]","206","5","0",""
"","do_trial","336","3274168","0.0-307.0-0.0","null","","","","null","0,1,1","6","blank","255","null","0.4104584343153949","0.3250664995336077","0.46948317471482653","","","","","","",""
"","do_recog","337","3277734","0.0-308.0-0.0","2049.199999999255","","","","54","","","","256","probe-165","","","","","1","[object Object]","87","2","0",""
"","do_trial","338","3282578","0.0-309.0-0.0","1303.5","","","","50","0,0,0","6","blank","257","null","0.5114770645011343","0.1656834003201796","0.26660874475699237","0","","","","","",""
"","do_trial","339","3287310","0.0-310.0-0.0","1179","","","","51","1,0,0","6","blank","258","null","0.5874473958177217","0.2267814289517128","0.18301326355982894","0","","","","","",""
"","do_trial","340","3291716","0.0-311.0-0.0","839.4000000022352","","","","51","1,0,0","6","blank","259","null","0.6167886839305544","0.23533859037907764","0.12649017811124105","0","","","","","",""
"","do_trial","341","3295560","0.0-312.0-0.0","298.3999999985099","","","","49","1,1,0","6","blank","260","null","0.9130534309695301","0.30764817254501536","0.22354116653074768","1","","","","","",""
"","do_trial","342","3301005","0.0-313.0-0.0","1891.8999999985099","","","","49","1,0,0","6","blank","261","null","0.7970965826849196","0.27559129411155847","0.1619945396294377","1","","","","","",""
"","do_trial","343","3304970","0.0-314.0-0.0","414.8999999985099","","","","49","1,0,0","6","blank","262","null","0.8851193038704235","0.2640861109781881","0.19227395694410845","1","","","","","",""
"","do_recog","344","3307636","0.0-315.0-0.0","1147.2999999970198","","","","53","","","","263","probe-247","","","","","0","[object Object]","null","null","1",""
"","do_trial","345","3311598","0.0-316.0-0.0","412.80000000074506","","","","49","1,0,0","6","blank","264","null","0.864148072825799","0.3645787505615627","0.06950691146006972","1","","","","","",""
"","do_recog","346","3314288","0.0-317.0-0.0","1173.4000000022352","","","","56","","","","265","probe-64","","","","","1","[object Object]","41","1","1",""
"","do_trial","347","3318326","0.0-318.0-0.0","488","","","","49","1,0,0","6","blank","266","null","0.940316097906848","0.3748348638683877","0.09955774784335811","1","","","","","",""
"","do_recog","348","3320799","0.0-319.0-0.0","955.6000000014901","","","","53","","","","267","probe-234","","","","","1","[object Object]","161","4","0",""
"","do_trial","349","3324415","0.0-320.0-0.0","73.5","","","","49","1,0,0","6","blank","268","null","0.807959212545396","0.42085628118007573","0.09193906737494603","1","","","","","",""
"","do_trial","350","3328465","0.0-321.0-0.0","498","","","","49","1,0,0","6","blank","269","null","0.6393074514724925","0.42938232696597317","0.05251548914459904","1","","","","","",""
"","do_trial","351","3332711","0.0-322.0-0.0","693.3999999985099","","","","49","0,1,0","6","blank","270","null","0.6947145976145163","0.4789876077504678","0.2560607582478277","0","","","","","",""
"","do_recog","352","3335629","0.0-323.0-0.0","1403","","","","53","","","","271","probe-108","","","","","1","[object Object]","128","3","0",""
"","do_trial","353","3339213","0.0-324.0-0.0","34","","","","49","0,0,1","6","blank","272","null","0.6113200899679958","0.46748989408941555","0.17545237595469393","0","","","","","",""
"","do_recog","354","3341974","0.0-325.0-0.0","1253.7999999970198","","","","53","","","","273","probe-166","","","","","1","[object Object]","88","2","0",""
"","do_trial","355","3346168","0.0-326.0-0.0","651.8999999985099","","","","51","0,1,0","6","blank","274","null","0.6677946237269924","0.44086402008536496","0.1834729952363446","0","","","","","",""
"","do_recog","356","3348848","0.0-327.0-0.0","1170.699999999255","","","","56","","","","275","probe-102","","","","","1","[object Object]","80","2","1",""
"","do_trial","357","3352716","0.0-328.0-0.0","309.19999999925494","","","","49","0,0,0","6","blank","276","null","0.6434078123378696","0.2989335795307785","0.2901954253571257","0","","","","","",""
"","do_trial","358","3356549","0.0-329.0-0.0","280.1000000014901","","","","50","0,1,0","6","blank","277","null","0.6583906514619262","0.3610424426677419","0.353121943919923","1","","","","","",""
"","do_trial","359","3360459","0.0-330.0-0.0","367.1000000014901","","","","50","1,0,0","6","blank","278","null","0.6215597496347267","0.3551373335237845","0.1704420906089729","0","","","","","",""
"","do_trial","360","3364348","0.0-331.0-0.0","342.19999999925494","","","","49","0,0,0","6","blank","279","null","0.6288215179747405","0.3804950736671717","0.1356570063655659","0","","","","","",""
"","do_trial","361","3368570","0.0-332.0-0.0","675","","","","49","1,1,0","6","blank","280","null","0.7160775772348593","0.30439827008097625","0.05758166590698009","1","","","","","",""
"","do_recog","362","3371230","0.0-333.0-0.0","1140.5","","","","56","","","","281","probe-61","","","","","1","[object Object]","204","5","1",""
"","do_trial","363","3375186","0.0-334.0-0.0","413.3999999985099","","","","49","1,1,0","6","blank","282","null","0.846864397332269","0.3125356886743988","0.14171101465637545","1","","","","","",""
"","do_trial","364","3379318","0.0-335.0-0.0","589","","","","49","1,1,0","6","blank","283","null","1","0.44862541995654936","0.09297584194283104","1","","","","","",""
"","do_trial","365","3383410","0.0-336.0-0.0","546.8999999985099","","","","49","1,0,0","6","blank","284","null","0.9449415554406764","0.27482868869807875","0.0717318944932167","1","","","","","",""
"","do_trial","366","3387551","0.0-337.0-0.0","590.3999999985099","","","","49","1,1,0","6","blank","285","null","0.93818393810836","0.2617096344448313","0.25917140834228525","1","","","","","",""
"","do_trial","367","3391799","0.0-338.0-0.0","707.1999999992549","","","","49","0,0,0","6","blank","286","null","0.7866203566111843","0.3987289843853559","0.34094813139490093","0","","","","","",""
"","do_recog","368","3394540","0.0-339.0-0.0","1232.800000000745","","","","53","","","","287","probe-149","","","","","1","[object Object]","207","5","0",""
"","do_trial","369","3398105","0.0-340.0-0.0","12","","","","50","0,0,0","6","blank","288","null","0.6312842294364696","0.37882023655341024","0.3674433040896619","0","","","","","",""
"","do_recog","370","3401357","0.0-341.0-0.0","1738.800000000745","","","","56","","","","289","probe-81","","","","","1","[object Object]","85","2","1",""
"","do_trial","371","3405788","0.0-342.0-0.0","884.6999999992549","","","","50","1,0,0","6","blank","290","null","0.7496992194344105","0.32963980275250376","0.28448855631800324","0","","","","","",""
"","do_recog","372","3408417","0.0-343.0-0.0","1113.5","","","","53","","","","291","probe-143","","","","","1","[object Object]","48","1","0",""
"","do_trial","373","3412340","0.0-344.0-0.0","371.19999999925494","","","","51","0,1,0","6","blank","292","null","0.7729147925768435","0.3334640199778067","0.1866299665647029","0","","","","","",""
"","do_trial","374","3416121","0.0-345.0-0.0","240.19999999925494","","","","49","1,0,0","6","blank","293","null","0.8244929227569604","0.34098465707818415","0.2063830150619793","1","","","","","",""
"","do_trial","375","3420108","0.0-346.0-0.0","438","","","","49","1,0,1","6","blank","294","null","0.8687330181690157","0.42986991935792435","0.16706038582642752","1","","","","","",""
"","do_trial","376","3424021","0.0-347.0-0.0","369.5","","","","49","1,0,0","6","blank","295","null","0.8634353235775447","0.3082495961980445","0.15596926017516552","1","","","","","",""
"","do_trial","377","3427621","0.0-348.0-0.0","48.30000000074506","","","","49","1,0,0","6","blank","296","null","0.887634231154959","0.2673577110621869","0.31718195972284574","1","","","","","",""
"","do_recog","378","3430255","0.0-349.0-0.0","1127.199999999255","","","","53","","","","297","probe-123","","","","","1","[object Object]","49","1","0",""
"","do_trial","379","3434162","0.0-350.0-0.0","360.4000000022352","","","","49","1,1,0","6","blank","298","null","0.785192357782913","0.278933033262318","0.12698945066231257","1","","","","","",""
"","do_recog","380","3436945","0.0-351.0-0.0","1265.1000000014901","","","","56","","","","299","probe-174","","","","","1","[object Object]","45","1","1",""
"","do_trial","381","3440921","0.0-352.0-0.0","433.6000000014901","","","","49","1,0,0","6","blank","300","null","0.6327641771234511","0.24707360149734603","0.20879932439146287","1","","","","","",""
"","do_trial","382","3445395","0.0-353.0-0.0","919.3000000007451","","","","49","1,1,1","6","blank","301","null","0.5359923658004754","0.23027049672112868","0.37631313688248724","1","","","","","",""
"","do_trial","383","3449559","0.0-354.0-0.0","614.3999999985099","","","","49","0,0,0","6","blank","302","null","0.4022383693514099","0.1357746371974838","0.43672865957881585","0","","","","","",""
"","do_recog","384","3451966","0.0-355.0-0.0","891.3000000007451","","","","56","","","","303","probe-205","","","","","1","[object Object]","42","1","1",""
"","do_trial","385","3455991","0.0-356.0-0.0","470.4000000022352","","","","50","0,0,1","6","blank","304","null","0.38767290494485374","0.27218610545409233","0.6814659895009005","0","","","","","",""
"","do_trial","386","3459987","0.0-357.0-0.0","445","","","","51","0,1,1","6","blank","305","null","0.39034027106382746","0.27981616201208903","0.7468796033884004","1","","","","","",""
"","do_trial","387","3464242","0.0-358.0-0.0","703.3000000007451","","","","51","0,0,1","6","blank","306","null","0.3833670144918823","0.270097999085023","0.7881738743079625","1","","","","","",""
"","do_recog","388","3466583","0.0-359.0-0.0","825","","","","56","","","","307","probe-182","","","","","1","[object Object]","160","4","1",""
"","do_trial","389","3470810","0.0-360.0-0.0","685.9000000022352","","","","51","1,0,1","6","blank","308","null","0.3343630566794489","0.25275057063352213","0.7944998301058547","1","","","","","",""
"","do_recog","390","3473438","0.0-361.0-0.0","1111.5999999977648","","","","56","","","","309","probe-169","","","","","1","[object Object]","89","2","1",""
"","do_trial","391","3477832","0.0-362.0-0.0","847.3000000007451","","","","51","0,0,1","6","blank","310","null","0.2821195000969765","0.26037250399313205","0.8039548505200889","1","","","","","",""
"","do_recog","392","3480411","0.0-363.0-0.0","1069.5","","","","56","","","","311","probe-60","","","","","1","[object Object]","81","2","1",""
"","do_trial","393","3484488","0.0-364.0-0.0","522.6000000014901","","","","51","1,0,1","6","blank","312","null","0.24198263959690064","0.3003067803907419","0.6463257097907719","1","","","","","",""
"","do_recog","394","3486942","0.0-365.0-0.0","940.1999999992549","","","","56","","","","313","probe-206","","","","","1","[object Object]","46","1","1",""
"","do_trial","395","3490940","0.0-366.0-0.0","444.9000000022352","","","","51","0,1,1","6","blank","314","null","0.3203228117841036","0.3667699301549257","0.7037621921882644","1","","","","","",""
"","do_recog","396","3493340","0.0-367.0-0.0","888.9000000022352","","","","56","","","","315","probe-177","","","","","1","[object Object]","168","4","1",""
"","do_trial","397","3497434","0.0-368.0-0.0","551.1999999992549","","","","51","1,1,1","6","blank","316","null","0.39304586212483955","0.17262565334421467","0.6952686534930865","1","","","","","",""
"","do_trial","398","3502910","0.0-369.0-0.0","1929.300000000745","","","","51","0,0,1","6","blank","317","null","0.4090930829209802","0.1396653752099961","0.8098927231239981","1","","","","","",""
"","do_trial","399","3506898","0.0-370.0-0.0","433.80000000074506","","","","50","0,0,1","6","blank","318","null","0.4120066553581432","0.052797908606650575","0.8787032991715283","0","","","","","",""
"","do_trial","400","3511051","0.0-371.0-0.0","608","","","","49","1,0,1","6","blank","319","null","0.5187233873374894","0.17368573226876963","0.8343606663261578","1","","","","","",""
"","do_recog","401","3513481","0.0-372.0-0.0","913.0999999977648","","","","56","","","","320","probe-142","","","","","1","[object Object]","203","5","1",""
"","do_trial","402","3517423","0.0-373.0-0.0","397.5999999977648","","","","50","0,1,0","6","blank","321","null","0.2649648834799342","0.13479451911435375","0.781607192244175","1","","","","","",""
"","do_trial","403","3521627","0.0-374.0-0.0","659.5999999977648","","","","50","0,0,1","6","blank","322","null","0.33486889063884645","0.15588397319655214","0.8345216149044002","0","","","","","",""
"","do_trial","404","3525385","0.0-375.0-0.0","216.40000000223517","","","","51","0,0,1","6","blank","323","null","0.3810544267011355","0.08487542199673215","0.9372429186980391","1","","","","","",""
"","do_trial","405","3529389","0.0-376.0-0.0","457.80000000074506","","","","49","0,0,1","6","blank","324","null","0.4854857252302392","0.09916095562161222","0.9088944882996781","0","","","","","",""
"","do_recog","406","3531763","0.0-377.0-0.0","860.5","","","","55","","","","325","probe-152","","","","","1","[object Object]","123","3","1",""
"","do_trial","407","3536121","0.0-378.0-0.0","806.1999999992549","","","","50","1,0,1","6","blank","326","null","0.5632163672221929","0.08691717634188852","1","0","","","","","",""
"","do_recog","408","3538394","0.0-379.0-0.0","762.6999999992549","","","","56","","","","327","probe-212","","","","","1","[object Object]","129","3","1",""
"","do_trial","409","3544772","0.0-380.0-0.0","2830.699999999255","","","","51","1,0,1","6","blank","328","null","0.565388030971651","0.13785080387633403","0.8794745621563312","1","","","","","",""
"","do_recog","410","3547157","0.0-381.0-0.0","870.8999999985099","","","","56","","","","329","probe-128","","","","","1","[object Object]","82","2","1",""
"","do_trial","411","3551547","0.0-382.0-0.0","843.1999999992549","","","","51","1,0,1","6","blank","330","null","0.3960561493959404","0.11165861571423694","0.8503304494013145","1","","","","","",""
"","do_trial","412","3555261","0.0-383.0-0.0","165.19999999925494","","","","49","0,0,1","6","blank","331","null","0.4112242759926526","0.22703081883462886","0.8569265609570467","0","","","","","",""
"","do_trial","413","3560261","0.0-384.0-0.0","1452.1000000014901","","","","50","1,0,1","6","blank","332","null","0.31066827950451564","0.1551620562385978","0.84411125134433","0","","","","","",""
"","do_recog","414","3562878","0.0-385.0-0.0","1097.3999999985099","","","","56","","","","333","probe-104","","","","","1","[object Object]","205","5","1",""
"","do_trial","415","3567276","0.0-386.0-0.0","849.6999999992549","","","","49","0,0,1","6","blank","334","null","0.3229116120490469","0.05685647837974463","0.7571013132289157","0","","","","","",""
"","do_recog","416","3569625","0.0-387.0-0.0","839.6999999992549","","","","56","","","","335","probe-47","","","","","1","[object Object]","169","4","1",""
"","do_trial","417","3573587","0.0-388.0-0.0","416.8999999985099","","","","51","1,0,0","6","blank","336","null","0.3745938476773996","0.09043385790532249","0.8033909163506957","0","","","","","",""
"","do_recog","418","3575665","0.0-389.0-0.0","569","","","","56","","","","337","probe-39","","","","","1","[object Object]","47","1","1",""
"","do_trial","419","3579637","0.0-390.0-0.0","425","","","","50","0,0,1","6","blank","338","null","0.4320593818341139","0.07501167574238397","0.9066698348398086","0","","","","","",""
"","do_trial","420","3583199","0.0-391.0-0.0","14.5","","","","49","1,1,0","6","blank","339","null","0.4928556096781565","0.0834562221651618","0.7773542528601525","1","","","","","",""
"","do_recog","421","3585239","0.0-392.0-0.0","523.6999999992549","","","","56","","","","340","probe-248","","","","","0","[object Object]","null","null","0",""
"","do_trial","422","3589338","0.0-393.0-0.0","546.5999999977648","","","","51","1,0,1","6","blank","341","null","0.5799534437391121","0.23068386882552885","0.7926872436565485","1","","","","","",""
"","do_recog","423","3592065","0.0-394.0-0.0","1217.800000000745","","","","56","","","","342","probe-133","","","","","1","[object Object]","86","2","1",""
"","do_trial","424","3595996","0.0-395.0-0.0","379.69999999925494","","","","51","1,1,1","6","blank","343","null","0.6027930992912433","0.24990198538784314","0.5369903493442377","1","","","","","",""
"","do_trial","425","3601884","0.0-396.0-0.0","2333.7000000029802","","","","49","1,0,1","6","blank","344","null","0.6625559010949287","0.256063286742664","0.2884969786826079","1","","","","","",""
"","do_recog","426","3603978","0.0-397.0-0.0","585","","","","56","","","","345","probe-17","","","","","1","[object Object]","163","4","1",""
"","do_trial","427","3608179","0.0-398.0-0.0","659.8000000007451","","","","50","1,1,0","6","blank","346","null","0.762992666758485","0.4663375654153253","0.3237784254504909","1","","","","","",""
"","do_recog","428","3610348","0.0-399.0-0.0","650","","","","56","","","","347","probe-158","","","","","1","[object Object]","165","4","1",""
"","do_trial","429","3614252","0.0-400.0-0.0","360.30000000074506","","","","50","1,0,0","6","blank","348","null","0.7611366974491459","0.41317310637121707","0.1804118136629024","0","","","","","",""
"","do_trial","430","3617881","0.0-401.0-0.0","88.19999999925494","","","","49","1,1,0","6","blank","349","null","0.8071150410901011","0.449146864141674","0.24826112154805607","1","","","","","",""
"","do_trial","431","3621827","0.0-402.0-0.0","396.5","","","","49","1,1,0","6","blank","350","null","0.7551582558952865","0.32752718093735456","0.3035892633948083","1","","","","","",""
"","do_trial","432","3625709","0.0-403.0-0.0","328.3999999985099","","","","49","1,0,0","6","blank","351","null","0.8610460539612325","0.26802301243663673","0.26742714545160323","1","","","","","",""
"","do_recog","433","3627874","0.0-404.0-0.0","651.8000000007451","","","","56","","","","352","probe-188","","","","","1","[object Object]","83","2","1",""
"","do_trial","434","3631878","0.0-405.0-0.0","462.80000000074506","","","","50","1,0,0","6","blank","353","null","0.7785856330752742","0.3377673213304226","0.15606085339410294","0","","","","","",""
"","do_recog","435","3634508","0.0-406.0-0.0","1118.3999999985099","","","","56","","","","354","probe-54","","","","","1","[object Object]","43","1","1",""
"","do_trial","436","3638280","0.0-407.0-0.0","219.19999999925494","","","","50","1,1,1","6","blank","355","null","0.8190697614789588","0.36623778535961676","0.22283897545188913","1","","","","","",""
"","do_recog","437","3640457","0.0-408.0-0.0","662.1999999992549","","","","56","","","","356","probe-157","","","","","1","[object Object]","202","5","1",""
"","do_trial","438","3644706","0.0-409.0-0.0","706.5","","","","50","0,0,0","6","blank","357","null","0.8136308485762835","0.4290266473945754","0.07005212261421757","0","","","","","",""
"","do_recog","439","3647568","0.0-410.0-0.0","1356","","","","55","","","","358","probe-111","","","","","1","[object Object]","121","3","1",""
"","do_trial","440","3652639","0.0-411.0-0.0","1527.2999999970198","","","","50","1,0,0","6","blank","359","null","0.6891594096625161","0.5282580474614906","0.10054302524606026","0","","","","","",""
"","do_trial","441","3656622","0.0-412.0-0.0","437.30000000074506","","","","51","1,0,0","6","blank","360","null","0.646539445843738","0.40654674014397557","0.07341089141025538","0","","","","","",""
"","do_trial","442","3660685","0.0-413.0-0.0","515.1000000014901","","","","49","1,0,0","6","blank","361","null","0.7714956278636835","0.3853107735511581","0.09331649891966792","1","","","","","",""
"","do_trial","443","3665567","0.0-414.0-0.0","1340.9000000022352","","","","49","0,0,0","6","blank","362","null","0.7062565131501053","0.2659410996708792","0.07138467671968346","0","","","","","",""
"","do_recog","444","3668167","0.0-415.0-0.0","1084.800000000745","","","","56","","","","363","probe-74","","","","","1","[object Object]","167","4","1",""
"","do_trial","445","3672384","0.0-416.0-0.0","666.0999999977648","","","","50","1,0,0","6","blank","364","null","0.8038397975309198","0.2536364757804761","0.10807709698020038","0","","","","","",""
"","do_trial","446","3675933","0.0-417.0-0.0","0.09999999776482582","","","","51","1,1,1","6","blank","365","null","0.8671379549728709","0.2756189861957711","0.20488568969268556","1","","","","","",""
"","do_trial","447","3680025","0.0-418.0-0.0","546.1000000014901","","","","51","0,0,0","6","blank","366","null","0.7516258700645903","0.32930746192246096","0.18322614378704785","0","","","","","",""
"","do_trial","448","3683691","0.0-419.0-0.0","114.40000000223517","","","","49","1,1,0","6","blank","367","null","0.7556960816368252","0.3330748711521433","0.11682017157636651","1","","","","","",""
"","do_trial","449","3687891","0.0-420.0-0.0","651.3999999985099","","","","50","1,0,0","6","blank","368","null","0.7857767494014691","0.36396135008326036","0.17656489243037943","0","","","","","",""
"","do_trial","450","3691617","0.0-421.0-0.0","182.69999999925494","","","","51","1,1,0","6","blank","369","null","0.684529325254103","0.3779506535234525","0.14382914811366548","0","","","","","",""
"","do_recog","451","3693930","0.0-422.0-0.0","800.5","","","","56","","","","370","probe-59","","","","","1","[object Object]","127","3","1",""
"","do_trial","452","3698168","0.0-423.0-0.0","692.6999999992549","","","","49","1,0,0","6","blank","371","null","1","0.4274800323999671","0.14896232601782658","1","","","","","",""
"","do_trial","453","3702092","0.0-424.0-0.0","382.79999999701977","","","","50","1,1,0","6","blank","372","null","0.921140355004978","0.5452155873749777","0.19855632580532298","1","","","","","",""
"","do_trial","454","3705757","0.0-425.0-0.0","120.69999999925494","","","","50","1,0,0","6","blank","373","null","0.7968218759763614","0.5964799132902258","0.22379140951856832","0","","","","","",""
"","do_trial","455","3709477","0.0-426.0-0.0","176.90000000223517","","","","49","1,1,0","6","blank","374","null","0.6851273973326002","0.49203740499972376","0.259979949357985","1","","","","","",""
"","do_trial","456","3713689","0.0-427.0-0.0","663.6999999992549","","","","49","1,0,0","6","blank","375","null","0.6732822082760451","0.3828034562989141","0.07858912614925995","1","","","","","",""
"","do_trial","457","3718141","0.0-428.0-0.0","909.3999999985099","","","","49","1,0,0","6","blank","376","null","0.6873791421954359","0.39269837614063435","0.051438749839255615","1","","","","","",""
"","do_recog","458","3720720","0.0-429.0-0.0","1062.699999999255","","","","56","","","","377","probe-227","","","","","1","[object Object]","124","3","1",""
"","do_trial","459","3724970","0.0-430.0-0.0","709.1000000014901","","","","49","1,1,0","6","blank","378","null","0.6123459654988553","0.35064419363894267","0.16694754326745795","1","","","","","",""
"","do_recog","460","3727325","0.0-431.0-0.0","851.4000000022352","","","","56","","","","379","probe-65","","","","","1","[object Object]","201","5","1",""
"","do_trial","461","3731885","0.0-432.0-0.0","1008.3000000007451","","","","49","1,0,0","6","blank","380","null","0.7067472398543276","0.3781206860339785","0.1606574156091164","1","","","","","",""
"","do_recog","462","3734307","0.0-433.0-0.0","903.3999999985099","","","","56","","","","381","probe-109","","","","","1","[object Object]","44","1","1",""
"","do_trial","463","3738563","0.0-434.0-0.0","714.3999999985099","","","","49","1,1,0","6","blank","382","null","0.7694006522183224","0.2928518997139933","0.1412380149054962","1","","","","","",""
"","do_recog","464","3742299","0.0-435.0-0.0","2216.699999999255","","","","56","","","","383","probe-140","","","","","1","[object Object]","166","4","1",""
"","do_trial","465","3746262","0.0-436.0-0.0","417.4000000022352","","","","49","1,0,1","6","blank","384","null","0.7647086140313951","0.1708868104982434","0.1730840673193971","1","","","","","",""
"","do_recog","466","3748711","0.0-437.0-0.0","933.5999999977648","","","","56","","","","385","probe-197","","","","","1","[object Object]","164","4","1",""
"","do_trial","467","3754424","0.0-438.0-0.0","2158.10000000149","","","","49","1,0,0","6","blank","386","null","0.5375392641396983","0.17487475967720437","0.3745073110374306","1","","","","","",""
"","do_recog","468","3756404","0.0-439.0-0.0","470.70000000298023","","","","56","","","","387","probe-145","","","","","1","[object Object]","120","3","1",""
"","do_trial","469","3760668","0.0-440.0-0.0","723.1999999992549","","","","49","0,0,1","6","blank","388","null","0.3590903770520006","0.3073104737817767","0.41219352108811025","0","","","","","",""
"","do_trial","470","3764796","0.0-441.0-0.0","580","","","","50","0,0,0","6","blank","389","null","0.32141270933645816","0.17817371730317078","0.46869811643862647","0","","","","","",""
"","do_trial","471","3768461","0.0-442.0-0.0","120.40000000223517","","","","51","0,0,1","6","blank","390","null","0.30566390046716607","0.3472258026488432","0.5899976864217454","1","","","","","",""
"","do_trial","472","3774511","0.0-443.0-0.0","null","","","","null","0,0,1","6","blank","391","null","0.3266060303973752","0.28554466040882837","0.5770165250527999","","","","","","",""
"","do_recog","473","3776710","0.0-444.0-0.0","684.5999999977648","","","","56","","","","392","probe-45","","","","","1","[object Object]","162","4","1",""
"","do_trial","474","3781201","0.0-445.0-0.0","944.1999999992549","","","","50","1,0,0","6","blank","393","null","0.4708247393137532","0.3915655018538402","0.6745442452754632","0","","","","","",""
"","do_recog","475","3783396","0.0-446.0-0.0","682","","","","56","","","","394","probe-83","","","","","1","[object Object]","84","2","1",""
