"success","trial_type","trial_index","time_elapsed","internal_node_id","rt","stimulus","key_press","subject_id","response","choice_outcomes","context_n","context_img_id","trial_n","probe_img_id","pR_red","pR_white","pR_black","outcome","is_valid","image_to_show","probed_trial","probed_context","correct","context_id"
"true","fullscreen","0","4713","0.0-0.0","","","","","","","","","","","","","","","","","","","",""
"","pavlovia","1","4721","0.0-1.0","","","","","","","","","","","","","","","","","","","",""
"","html-keyboard-response","2","26452","0.0-2.0","21728","<div class='center'><p>Welcome! This experiment will last ~1 hour. In this experiment, you are the head captain of a pirate ship traveling around the world to different places. You will complete several different tasks during this experiment. Here is an overview of these tasks:</p><br><p>1. Tutorial and quiz</p><p>2. Pick a pirate game in 6 different places</p><p>3. Pick a pirate game and memory game</p><p>4. Final questions and payment</p><br><p>If you complete the entire experiment, you will receive $15 and a possible bonus payment.</p><p><b>[Press the space bar to begin the tutorial]</b></p></div>","32","60fefd59226b2b1d87bc36db","","","","","","","","","","","","","","","",""
"","html-keyboard-response","3","38843","0.0-3.0","12389","<div class='center'><p>You are the head captain of a pirate ship.</p><p> Your pirates rob other ships as they leave the marketplace port.</p> These ships have just sold all their goods at the marketplace, so they have lots and lots of gold on them.</p><p><img src='run_exp/static/images/ship_center.png' height='400'></p><p><b>[Press the space bar to continue]</b></p></div>","32","","","","","","","","","","","","","","","","",""
"","html-keyboard-response","4","53433","0.0-4.0","14589.000000000007","<div class='center'><p>As the head captain, you do not have to rob any ships yourself.</p><p>You get to choose which pirate you want to rob the next ship. </p><p>If they are successful at robbing the ship, then you will get gold coins.</p><p> If they are not successful, then you will get no gold coins.</p><p> The more coins you collect, the more bonus money you will win. So, choose your pirate wisely.</p><p><img src='run_exp/static/images/goal.png' height='400'></p><p><b>[Press the space bar to continue]</b></p><div>","32","","","","","","","","","","","","","","","","",""
"","html-keyboard-response","5","71498","0.0-5.0","18064","<div class='center'><p>Even the most skilled pirate will not be able to rob EVERY ship.</p><p> Some ships will have very strong defenses against attacks.</p><p> For example, blue beard, here,  is very good at robbing ships.</p><p> You can press the <b>‘1’</b> button on the keyboard to choose him.</p><p> Try choosing him 10 times to see how often he is successful at robbing ships. </p><p><img src='run_exp/static/images/blue.png' height='500'></p></div>","49","","","","","","","","","","","","","","","","",""
"","html-keyboard-response","6","73003","0.0-6.0","null","<br><br><br><br><p><img src='run_exp/static/images/blue_win.png' height='500'></p>","null","","","","","","","","","","","","","","","","",""
"","html-keyboard-response","7","75104","0.0-7.0","2100","<br><br><br><br><p><img src='run_exp/static/images/blue.png' height='500'></p>","49","","","","","","","","","","","","","","","","",""
"","html-keyboard-response","8","76605","0.0-8.0","null","<br><br><br><br><p><img src='run_exp/static/images/blue_win.png' height='500'></p>","null","","","","","","","","","","","","","","","","",""
"","html-keyboard-response","9","77127","0.0-9.0","521","<br><br><br><br><p><img src='run_exp/static/images/blue.png' height='500'></p>","49","","","","","","","","","","","","","","","","",""
"","html-keyboard-response","10","78629","0.0-10.0","null","<br><br><br><br><p><img src='run_exp/static/images/blue_win.png' height='500'></p>","null","","","","","","","","","","","","","","","","",""
"","html-keyboard-response","11","79004","0.0-11.0","374","<br><br><br><br><p><img src='run_exp/static/images/blue.png' height='500'></p>","49","","","","","","","","","","","","","","","","",""
"","html-keyboard-response","12","80506","0.0-12.0","null","<br><br><br><br><p><img src='run_exp/static/images/blue_no_win.png' height='500'></p>","null","","","","","","","","","","","","","","","","",""
"","html-keyboard-response","13","81015","0.0-13.0","508.00000000001455","<br><br><br><br><p><img src='run_exp/static/images/blue.png' height='500'></p>","49","","","","","","","","","","","","","","","","",""
"","html-keyboard-response","14","82517","0.0-14.0","null","<br><br><br><br><p><img src='run_exp/static/images/blue_win.png' height='500'></p>","null","","","","","","","","","","","","","","","","",""
"","html-keyboard-response","15","83120","0.0-15.0","601.9999999999854","<br><br><br><br><p><img src='run_exp/static/images/blue.png' height='500'></p>","49","","","","","","","","","","","","","","","","",""
"","html-keyboard-response","16","84622","0.0-16.0","null","<br><br><br><br><p><img src='run_exp/static/images/blue_win.png' height='500'></p>","null","","","","","","","","","","","","","","","","",""
"","html-keyboard-response","17","84986","0.0-17.0","363","<br><br><br><br><p><img src='run_exp/static/images/blue.png' height='500'></p>","49","","","","","","","","","","","","","","","","",""
"","html-keyboard-response","18","86488","0.0-18.0","null","<br><br><br><br><p><img src='run_exp/static/images/blue_win.png' height='500'></p>","null","","","","","","","","","","","","","","","","",""
"","html-keyboard-response","19","86849","0.0-19.0","360","<br><br><br><br><p><img src='run_exp/static/images/blue.png' height='500'></p>","49","","","","","","","","","","","","","","","","",""
"","html-keyboard-response","20","88351","0.0-20.0","null","<br><br><br><br><p><img src='run_exp/static/images/blue_no_win.png' height='500'></p>","null","","","","","","","","","","","","","","","","",""
"","html-keyboard-response","21","88747","0.0-21.0","395","<br><br><br><br><p><img src='run_exp/static/images/blue.png' height='500'></p>","49","","","","","","","","","","","","","","","","",""
"","html-keyboard-response","22","90249","0.0-22.0","null","<br><br><br><br><p><img src='run_exp/static/images/blue_win.png' height='500'></p>","null","","","","","","","","","","","","","","","","",""
"","html-keyboard-response","23","90582","0.0-23.0","332","<br><br><br><br><p><img src='run_exp/static/images/blue.png' height='500'></p>","49","","","","","","","","","","","","","","","","",""
"","html-keyboard-response","24","92084","0.0-24.0","null","<br><br><br><br><p><img src='run_exp/static/images/blue_win.png' height='500'></p>","null","","","","","","","","","","","","","","","","",""
"","html-keyboard-response","25","96427","0.0-25.0","4342","<div class='center'><p> See, he was successful at robbing the ships most of the time but not every time. </p><p><b>[Press the space bar to continue]</b></p></div>","32","","","","","","","","","","","","","","","","",""
"","html-keyboard-response","26","107671","0.0-26.0","11242.000000000015","<div class='center'><p>In the game, you will get to choose which of three pirates you want to rob the next ship. <p>Press the <b>‘1’</b> button on your keyboard to pick the pirate with the red beard.</p><p> Press <b>‘2’</b> to pick the pirate with the white beard.</p><p> Press <b>‘3’</b> to pick the pirate with the black beard.</p><p>Try picking a pirate now!</p><p><img src='run_exp/static/images/all_pirates.png' height='500'></p></div>","50","","","","","","","","","","","","","","","","",""
"","html-keyboard-response","27","110118","0.0-27.0-0.0","2443.9999999999854","<div class='center'><p>This pirate was successful at robbing the ship!</p><p><img src='run_exp/static/images/white_win.png' height='500'></p><p><b>[Press the space bar to continue]</b></p></div>","32","","","","","","","","","","","","","","","","",""
"","html-keyboard-response","28","111951","0.0-27.0-1.0","1833","<div class='center'><p>Now try choosing another</p><p><img src='run_exp/static/images/all_pirates.png' height='500'></p></div>","51","","","","","","","","","","","","","","","","",""
"","html-keyboard-response","29","115012","0.0-28.0-0.0","3059","<div class='center'><p>This pirate was not successful at robbing the ship!</p><p><img src='run_exp/static/images/black_no_win.png' height='500'></p><p><b>[Press the space bar to continue]</b></p></div>","32","","","","","","","","","","","","","","","","",""
"","html-keyboard-response","30","120888","0.0-29.0-0.0","5873.999999999971","<div class='center'><p>You’ll stop at these 6 places on your journey.</p><p><img src='run_exp/static/images/all_contexts.png' height='500'></p><p><b>[Press the space bar to continue]</b></p></div>","32","","","","","","","","","","","","","","","","",""
"","html-keyboard-response","31","126837","0.0-29.0-1.0","5949","<div class='center'><p>How good a pirate is at robbing ships will depend on the current place.</p><p> Some pirates will have been to the place before, and will have more experience robbing ships there.</p><p>So, they will be more successful at stealing gold and bringing it back to you.</p><p><b>[Press the space bar to continue]</b></p></div>","32","","","","","","","","","","","","","","","","",""
"","html-keyboard-response","32","135251","0.0-29.0-2.0","8412.00000000003","<div class='center'><p>How successful a pirate is at robbing ships can also change in a place.<p> Ships may hear about the pirates coming and will improve their defenses. This may make it more difficult to rob them.</p><p> Ships may also grow lazy and lower their defenses. This may make it easier to rob them.</p><br><p>Things are always changing on the high seas! So, try your best to pay attention!</p><p><img src='run_exp/static/images/contingency.png' height='500'></p><p><b>[Press the space bar to continue]</b></p></div>","32","","","","","","","","","","","","","","","","",""
"","html-keyboard-response","33","162459","0.0-29.0-3.0","27207.00000000003","<div class='center'><p>Once you choose a pirate to rob a ship, you’ll be shown the ship they are robbing.</p><p>The ship will have a picture of the item they sold at the marketplace.</p><p> Try your best to remember the ship and where you saw the ship.</p><p> You’ll have to remember this for later, and remembering this correctly will help you win more bonus money!</p><p>You can remember the ship by remembering the item they sold at the marketplace</p><p>A helpful strategy is to try to come up with a story of the chosen pirate and ship’s item interacting with the scene.</p><p> For example, a ship might have sold travel mugs and you could imagine red beard walking through the city with a travel mug. </p><p>Or imagine an apple falling from a tree into white beard's hands in the forest.</p><p><img src='run_exp/static/images/example_probe.png' height='500'></p><p><b>[Press the space bar to continue]</b></p></div>","32","","","","","","","","","","","","","","","","",""
"","html-keyboard-response","34","168612","0.0-29.0-4.0","6151","<div class='center'><p>If you don’t make your choice fast enough, you’ll have to wait a few seconds before you can make another one. </p><p>You can’t win more gold. You just have to sit and wait.</p><p><img src='run_exp/static/images/hurry_up.png' height='500'></p><p><b>[Press the space bar to continue]</b></p></div>","32","","","","","","","","","","","","","","","","",""
"","html-keyboard-response","35","273467","0.0-29.0-5.0","104851.00000000006","<div class='center'><p>Again, you have two important things to do: </p><b><p> 1. Pick the pirate who you think will be most successful at robbing the next ship.</p></b><b><p> 2. Remember where a pirate robbed a ship.</p> </b><p>Both are important in determining how much bonus money you’ll win.</p><br><p>Let’s try a practice game. The game will start by showing you the pirates. First pick a pirate using the <b> 1, 2, 3 </b> buttons on your keyboard. When you are shown a ship, try to remember the place you’re in by making up a story.</p><p> You only have 3 seconds to pick a pirate, so please make a choice quickly! If you are too slow, you’ll have to wait a bit during the time out.</p><p> Don’t feel rushed, but please do try to make a choice every time.</p><p>How good a pirate is at robbing a ship will change depending on the place they are in and how good the defenses are of the ship.</p> <p>This is just a practice game, so you’re not playing for money. </p><p>You’ll receive a bag which may or may not contain gold coins.</p><p> In the real game, though, you’ll be able to see whether or not you received the gold coins.</p><p> Good luck, remember press <b>'1'</b> to choose red beard, <b>'2'</b> to choose white beard, and <b>'3'</b> to choose black beard</p><p><b>[Press the space bar to begin the practice game]</b></p></div>","32","","","","","","","","","","","","","","","","",""
"","do_trial_prac","36","279477","0.0-29.0-6.0","null","","","","null","","","","","","","","","","","","","","",""
"","do_trial_prac","37","285587","0.0-29.0-7.0","1602","","","","50","","","","","","","","","","","","","","",""
"","do_trial_prac","38","291878","0.0-29.0-8.0","1783","","","","51","","","","","","","","","","","","","","",""
"","do_trial_prac","39","297840","0.0-29.0-9.0","1454","","","","49","","","","","","","","","","","","","","",""
"","do_trial_prac","40","304128","0.0-29.0-10.0","1781","","","","50","","","","","","","","","","","","","","",""
"","html-keyboard-response","41","315522","0.0-29.0-11.0","11391.000000000058","<div class='center'><p>Great job on the practice game!</p><p> Now, you will be asked you some true or false questions to make sure you really understand the rules of the game.</p><p> Press <b>'1'</b> on the keyboard for true and press <b>'2'</b> for false.</p><p><b>[Press the space bar to begin the quiz]</b></p></div>","32","","","","","","","","","","","","","","","","",""
"","html-keyboard-response","42","318155","0.0-29.0-12.0","2632","<div class='center'><p>You win bonus money by making choices as fast as possible.</p><p>Press 1 for true and press  2 for false.</p></div>","50","","","","","","","","","","","","","","","","",""
"","html-keyboard-response","43","319900","0.0-30.0-0.0","1743","<br><br><br><br><p>That's correct!</p> <p><b>[press the space bar to continue with the quiz]</b></p>","32","","","","","","","","","","","","","","","","",""
"","html-keyboard-response","44","324789","0.0-30.0-1.0","4888","<div class='center'><p>You press the <b>‘3’</b> button on the keyboard to choose the red bearded pirate? </p><p>Press 1 for true and press  2 for false.</p></div>","50","","","","","","","","","","","","","","","","",""
"","html-keyboard-response","45","326655","0.0-31.0-0.0","1865","<br><br><br><br><p>That's correct!</p> <p><b>[press the space bar to continue with the quiz]</b></p>","32","","","","","","","","","","","","","","","","",""
"","html-keyboard-response","46","329617","0.0-31.0-1.0","2960","<div class='center'><p>A pirate will always be equally successful at robbing ships in each place</p><p>Press 1 for true and press  2 for false.</p></div>","50","","","","","","","","","","","","","","","","",""
"","html-keyboard-response","47","330566","0.0-32.0-0.0","948.9999999999418","<br><br><br><br><p>That's correct!</p> <p><b>[press the space bar to continue with the quiz]</b></p>","32","","","","","","","","","","","","","","","","",""
"","html-keyboard-response","48","332564","0.0-32.0-1.0","1997","<div class='center'><p>You should remember the place where a pirate robbed a ship.</p><p>Press 1 for true and press  2 for false.</p></div>","49","","","","","","","","","","","","","","","","",""
"","html-keyboard-response","49","333669","0.0-33.0-0.0","1093","<br><br><br><br><p>That's correct!</p> <p><b>[press the space bar to continue with the quiz]</b></p>","32","","","","","","","","","","","","","","","","",""
"","html-keyboard-response","50","359562","0.0-34.0-0.0","25891","<br><br><br><br><p>Good job! You’re now ready to move on to the real game!</p> <p><br>[press the space bar to begin!]</br></p>","32","","","","","","","","","","","","","","","","",""
"","do_welcome","51","361069","0.0-35.0-0.0","null","","","","null","","","","","","","","","","","","","","",""
"","do_trial","52","367933","0.0-36.0-0.0","1314","","","","49","1,0,1","0","mountain","0","probe-154","1","0.4","0.1","1","","","","","",""
"","do_trial","53","374863","0.0-37.0-0.0","1393","","","","49","1,0,0","0","mountain","1","probe-181","1","0.3077608493724622","0.12672378446443971","1","","","","","",""
"","do_trial","54","381638","0.0-38.0-0.0","1238","","","","49","1,1,0","0","mountain","2","probe-164","1","0.4785000819738242","0.19363705755003724","1","","","","","",""
"","do_trial","55","388805","0.0-39.0-0.0","1630","","","","49","1,1,0","0","mountain","3","probe-19","1","0.3773831262110357","0.19249235590992597","1","","","","","",""
"","do_trial","56","395438","0.0-40.0-0.0","1097","","","","49","1,0,0","0","mountain","4","probe-119","0.908688852225457","0.3261037461226669","0.23870641114484933","1","","","","","",""
"","do_trial","57","401929","0.0-41.0-0.0","955","","","","49","1,0,0","0","mountain","5","probe-54","0.7770385432914487","0.22739305081386177","0.05752891344732543","1","","","","","",""
"","do_trial","58","408409","0.0-42.0-0.0","942","","","","49","1,0,0","0","mountain","6","probe-156","0.9032583196499675","0.3109873878471051","0.07249052288366913","1","","","","","",""
"","do_trial","59","414753","0.0-43.0-0.0","805","","","","49","1,0,0","0","mountain","7","probe-160","0.7773960339782485","0.2808368195275135","0.20573704023152073","1","","","","","",""
"","do_trial","60","421131","0.0-44.0-0.0","842","","","","49","0,0,0","0","mountain","8","probe-174","0.8510708329865918","0.388412735332345","0.16824364619418364","0","","","","","",""
"","do_trial","61","427527","0.0-45.0-0.0","860","","","","50","1,0,0","0","mountain","9","probe-101","0.8932854422891076","0.5428454089218617","0.1263067264384118","0","","","","","",""
"","do_trial","62","433680","0.0-46.0-0.0","611","","","","49","0,1,0","0","mountain","10","probe-207","0.6166060041099138","0.621088139788746","0.1023731581874181","0","","","","","",""
"","do_trial","63","440148","0.0-47.0-0.0","933","","","","51","1,0,0","0","mountain","11","probe-128","0.4755897115518248","0.6517197252695379","0.07035756253565703","0","","","","","",""
"","do_trial","64","446392","0.0-48.0-0.0","709","","","","49","0,0,0","0","mountain","12","probe-66","0.36956633372089165","0.7076140939505252","0.13253799166652375","0","","","","","",""
"","do_trial","65","453338","0.0-49.0-0.0","1411","","","","51","1,1,0","0","mountain","13","probe-163","0.40581516036139487","0.742921790720933","0.22643395380620696","0","","","","","",""
"","do_trial","66","459757","0.0-50.0-0.0","882","","","","50","1,1,0","0","mountain","14","probe-204","0.27159346849347105","0.7933816431051031","0.21752775048022557","1","","","","","",""
"","do_trial","67","466202","0.0-51.0-0.0","905.9999999999418","","","","50","1,1,0","0","mountain","15","probe-236","0.33752627962125803","0.8725750004075802","0.15382899600450134","1","","","","","",""
"","do_trial","68","472938","0.0-52.0-0.0","1202","","","","50","0,1,1","0","mountain","16","probe-172","0.40676625799810623","0.9184376027817552","0.3353143300042142","1","","","","","",""
"","do_trial","69","479659","0.0-53.0-0.0","1186.0000000000582","","","","50","1,1,0","0","mountain","17","probe-238","0.4630577683490411","0.9353912986834889","0.22987984819438667","1","","","","","",""
"","do_trial","70","485879","0.0-54.0-0.0","684.0000000000582","","","","50","1,1,0","0","mountain","18","probe-55","0.4147149458985085","0.90907744231447","0.24043465031138772","1","","","","","",""
"","do_trial","71","492324","0.0-55.0-0.0","910","","","","50","1,1,0","0","mountain","19","probe-14","0.45156937141789394","0.9240213976420756","0.10238689875394354","1","","","","","",""
"","do_trial","72","498518","0.0-56.0-0.0","657.0000000000582","","","","50","0,1,0","0","mountain","20","probe-165","0.5611833960784138","0.9398139320355564","0.2052764806804186","1","","","","","",""
"","do_trial","73","504474","0.0-57.0-0.0","422","","","","50","0,0,0","0","mountain","21","probe-183","0.5101173571258031","0.7291988527544899","0.1362709406976538","0","","","","","",""
"","do_trial","74","510810","0.0-58.0-0.0","800.0000000000582","","","","50","1,0,0","0","mountain","22","probe-198","0.5177020656805359","0.7775950732912392","0.11527534604989917","0","","","","","",""
"","do_trial","75","516828","0.0-59.0-0.0","484.0000000000582","","","","49","0,1,1","0","mountain","23","probe-234","0.560798674073274","0.7546174805539877","0.21105835548008067","0","","","","","",""
"","do_trial","76","522885","0.0-60.0-0.0","522","","","","51","0,0,0","0","mountain","24","probe-182","0.44207876147224556","0.9380294255855376","0.11860968059204698","0","","","","","",""
"","do_trial","77","529408","0.0-61.0-0.0","987","","","","51","1,1,0","0","mountain","25","probe-167","0.2510638661065373","0.8655952042644178","0.11820947611369174","0","","","","","",""
"","do_trial","78","535627","0.0-62.0-0.0","682","","","","51","1,1,0","0","mountain","26","probe-133","0.4173150322777683","0.9350610891448825","0.09105087673498219","0","","","","","",""
"","do_trial","79","541622","0.0-63.0-0.0","458","","","","50","0,1,0","0","mountain","27","probe-229","0.3112618036536399","0.9059270010366325","0.06382425588841131","1","","","","","",""
"","do_trial","80","548363","0.0-64.0-0.0","1204","","","","50","0,1,0","0","mountain","28","probe-110","0.31861193033257795","0.9185509013320524","0.0794253758075315","1","","","","","",""
"","do_trial","81","554858","0.0-65.0-0.0","958.0000000001164","","","","50","0,1,0","0","mountain","29","probe-78","0.32203570102833873","0.9263734211107434","0.0990086967619346","1","","","","","",""
"","do_trial","82","561013","0.0-66.0-0.0","618","","","","50","0,1,0","0","mountain","30","probe-222","0.3699778090258718","0.9093266454636142","0.06075116242331853","1","","","","","",""
"","do_trial","83","567059","0.0-67.0-0.0","507","","","","50","0,1,0","0","mountain","31","probe-70","0.408822901792875","0.85800409610414","0.05932996020079706","1","","","","","",""
"","do_trial","84","573195","0.0-68.0-0.0","598","","","","50","0,1,0","0","mountain","32","probe-27","0.5465057559468546","0.8982256874723931","0.08038930316538297","1","","","","","",""
"","do_trial","85","579630","0.0-69.0-0.0","898","","","","50","1,0,0","0","mountain","33","probe-100","0.4123897259492276","0.9107985276074096","0.18796817719269754","0","","","","","",""
"","do_trial","86","585677","0.0-70.0-0.0","509","","","","49","0,1,1","0","mountain","34","probe-195","0.42646151395452625","0.8744977765556996","0.1729347125229894","0","","","","","",""
"","do_trial","87","591955","0.0-71.0-0.0","741","","","","49","0,1,0","0","mountain","35","probe-85","0.44002575128862376","0.930411332101403","0.19222396812688003","0","","","","","",""
"","do_trial","88","598196","0.0-72.0-0.0","704","","","","49","0,1,0","0","mountain","36","probe-42","0.4885348426497284","0.8557247429871636","0.16489462147600814","0","","","","","",""
"","do_trial","89","605692","0.0-73.0-0.0","1961","","","","51","0,1,0","0","mountain","37","probe-214","0.41818417016496384","0.8601020964929857","0.05908821388591244","0","","","","","",""
"","do_trial","90","612017","0.0-74.0-0.0","789","","","","50","0,0,0","0","mountain","38","probe-175","0.3805851524911719","0.8199136524803133","0.1365089043355305","0","","","","","",""
"","do_trial","91","618186","0.0-75.0-0.0","634","","","","50","1,1,0","0","mountain","39","probe-217","0.43969525639294377","0.8386939927306236","0.10119198060387528","1","","","","","",""
"","do_bye","92","619692","0.0-76.0-0.0","null","","","","null","","","","","","","","","","","","","","",""
"","do_travel","93","625696","0.0-77.0-0.0","null","","","","null","","","","","","","","","","","","","","",""
"","do_welcome","94","627202","0.0-77.0-1.0","null","","","","null","","","","","","","","","","","","","","",""
"","do_trial","95","634202","0.0-78.0-0.0","1464","","","","49","0,1,0","1","countryside","40","probe-67","0.41912122078824304","1","0.1280816833364828","0","","","","","",""
"","do_trial","96","641029","0.0-79.0-0.0","1292","","","","49","0,1,0","1","countryside","41","probe-224","0.3692727615481863","1","0.10172212970214634","0","","","","","",""
"","do_trial","97","647384","0.0-80.0-0.0","817","","","","51","0,1,1","1","countryside","42","probe-123","0.38292797125257066","1","0.2320104731897171","1","","","","","",""
"","do_trial","98","653632","0.0-81.0-0.0","714","","","","51","0,1,0","1","countryside","43","probe-102","0.3346944176195278","1","0.07527057292062864","0","","","","","",""
"","do_trial","99","659847","0.0-82.0-0.0","678","","","","51","0,1,0","1","countryside","44","probe-142","0.3152944806614799","0.9314941371288518","0.107268671285767","0","","","","","",""
"","do_trial","100","665903","0.0-83.0-0.0","522","","","","50","1,1,0","1","countryside","45","probe-141","0.46285131468306623","0.8217021027420077","0.10128659027608805","1","","","","","",""
"","do_trial","101","672158","0.0-84.0-0.0","718","","","","50","0,1,0","1","countryside","46","probe-205","0.3558821278271631","0.8517152743371685","0.13851750577576258","1","","","","","",""
"","do_trial","102","678742","0.0-85.0-0.0","1049","","","","50","0,1,0","1","countryside","47","probe-22","0.4943347190844182","0.8521241210465974","0.1308372272453867","1","","","","","",""
"","do_trial","103","684973","0.0-86.0-0.0","695","","","","50","1,0,0","1","countryside","48","probe-146","0.4075924696145325","0.85953479933215","0.1550147142702587","0","","","","","",""
"","do_trial","104","690992","0.0-87.0-0.0","485","","","","50","1,1,0","1","countryside","49","probe-231","0.6308952393636402","0.7517869802100193","0.11381780444809952","1","","","","","",""
"","do_trial","105","697146","0.0-88.0-0.0","619","","","","50","1,0,1","1","countryside","50","probe-134","0.6850852663020899","0.5107465000480768","0.27947092893645215","0","","","","","",""
"","do_trial","106","703163","0.0-89.0-0.0","481","","","","51","1,0,0","1","countryside","51","probe-193","0.9087683009281976","0.2930154917176514","0.35227888916723715","0","","","","","",""
"","do_trial","107","709304","0.0-90.0-0.0","606","","","","51","1,0,0","1","countryside","52","probe-60","0.8987588446174946","0.15877204319775223","0.31356302634060396","0","","","","","",""
"","do_trial","108","715681","0.0-91.0-0.0","840.0000000001164","","","","51","1,0,0","1","countryside","53","probe-75","0.7528201927079539","0.1649556996647345","0.4064514250877738","0","","","","","",""
"","do_trial","109","721711","0.0-92.0-0.0","496","","","","49","1,0,0","1","countryside","54","probe-46","0.7513924788184975","0.11698853944048399","0.5206456794800367","1","","","","","",""
"","do_trial","110","727927","0.0-93.0-0.0","680","","","","49","1,0,1","1","countryside","55","probe-35","0.7126630882622352","0.14537930121066905","0.5419199511084097","1","","","","","",""
"","do_trial","111","734218","0.0-94.0-0.0","757","","","","49","1,0,1","1","countryside","56","probe-143","0.8248728384502856","0.10572101572635834","0.5292808355635251","1","","","","","",""
"","do_trial","112","740215","0.0-95.0-0.0","460","","","","49","0,0,0","1","countryside","57","probe-190","0.8890862257777581","0.1335815495038109","0.5576909490759776","0","","","","","",""
"","do_trial","113","746675","0.0-96.0-0.0","919","","","","49","1,0,0","1","countryside","58","probe-117","0.8910033100425888","0.06912940432479873","0.5101063385053122","1","","","","","",""
"","do_trial","114","753125","0.0-97.0-0.0","908","","","","49","1,0,1","1","countryside","59","probe-23","0.8437836524215038","0.2415948069156603","0.4659411602258983","1","","","","","",""
"","do_trial","115","759138","0.0-98.0-0.0","473","","","","49","0,1,1","1","countryside","60","probe-139","0.8943932244763039","0.18106521303593245","0.5418531449642212","0","","","","","",""
"","do_trial","116","765219","0.0-99.0-0.0","542","","","","50","1,1,1","1","countryside","61","probe-91","0.8782419833514368","0.26140265547222535","0.5217940386935703","1","","","","","",""
"","do_trial","117","771548","0.0-100.0-0.0","790","","","","49","1,0,0","1","countryside","62","probe-80","0.786406310892462","0.12616473525261135","0.6284890102357463","1","","","","","",""
"","do_trial","118","777610","0.0-101.0-0.0","524","","","","50","1,0,1","1","countryside","63","probe-197","0.9087879556689116","0.10114953749411759","0.5188209577412787","0","","","","","",""
"","do_trial","119","784485","0.0-102.0-0.0","1329","","","","50","1,0,0","1","countryside","64","probe-208","0.8770237624872297","0.13900624799705819","0.4382799789659429","0","","","","","",""
"","do_trial","120","790434","0.0-103.0-0.0","401.0000000001164","","","","51","1,0,1","1","countryside","65","probe-18","0.9483103407167657","0.22319073584104807","0.46701044332943287","1","","","","","",""
"","do_trial","121","796696","0.0-104.0-0.0","718","","","","51","1,0,1","1","countryside","66","probe-08","0.8393970176754646","0.19875901682710356","0.37503286512227996","1","","","","","",""
"","do_trial","122","803296","0.0-105.0-0.0","1054","","","","51","1,0,1","1","countryside","67","probe-129","0.9167877641136574","0.3376247086392477","0.3222487192853816","1","","","","","",""
"","do_trial","123","809750","0.0-106.0-0.0","909.0000000001164","","","","51","1,0,1","1","countryside","68","probe-178","0.8494832545927511","0.253563774348095","0.4110330771922508","1","","","","","",""
"","do_trial","124","815881","0.0-107.0-0.0","584","","","","51","1,0,1","1","countryside","69","probe-26","0.9238053090075402","0.27888476185051503","0.4906992386361653","1","","","","","",""
"","do_trial","125","822315","0.0-108.0-0.0","886","","","","51","1,0,0","1","countryside","70","probe-228","0.9121421186144215","0.0764901218028208","0.5096339999063855","0","","","","","",""
"","do_trial","126","828961","0.0-109.0-0.0","1099","","","","51","0,0,0","1","countryside","71","probe-28","0.8033652841552872","0.08783607671575613","0.4665570525638051","0","","","","","",""
"","do_trial","127","834964","0.0-110.0-0.0","455.9999999998836","","","","51","1,0,0","1","countryside","72","probe-63","0.8655619299826194","0.07785255440401417","0.4241363547818249","0","","","","","",""
"","do_trial","128","841052","0.0-111.0-0.0","542","","","","50","1,0,1","1","countryside","73","probe-145","0.7559267406160354","0.0817112711173093","0.323091675643595","0","","","","","",""
"","do_trial","129","847096","0.0-112.0-0.0","499","","","","49","1,0,0","1","countryside","74","probe-41","0.6753065161275552","0.06160223467691973","0.275704483794177","1","","","","","",""
"","do_trial","130","853583","0.0-113.0-0.0","943","","","","49","1,0,1","1","countryside","75","probe-43","0.7581744264155772","0.07607500630986724","0.3368181601296651","1","","","","","",""
"","do_trial","131","860088","0.0-114.0-0.0","959","","","","49","1,0,1","1","countryside","76","probe-191","0.8760748013746594","0.11203693996305565","0.3213485311577835","1","","","","","",""
"","do_trial","132","866462","0.0-115.0-0.0","828.9999999998836","","","","49","1,1,0","1","countryside","77","probe-140","0.7303314934901526","0.15079208813109013","0.3233377704629601","1","","","","","",""
"","do_trial","133","872769","0.0-116.0-0.0","760.9999999998836","","","","49","1,0,0","1","countryside","78","probe-95","0.8629286558447916","0.24091226816043304","0.3532689965069786","1","","","","","",""
"","do_trial","134","879188","0.0-117.0-0.0","872.0000000001164","","","","49","1,1,1","1","countryside","79","probe-136","0.828097696439561","0.2263473190754585","0.485346955989408","1","","","","","",""
"","do_bye","135","880693","0.0-118.0-0.0","null","","","","null","","","","","","","","","","","","","","",""
"","do_travel","136","886696","0.0-119.0-0.0","null","","","","null","","","","","","","","","","","","","","",""
"","do_welcome","137","888204","0.0-119.0-1.0","null","","","","null","","","","","","","","","","","","","","",""
"","do_trial","138","895763","0.0-120.0-0.0","2014.9999999998836","","","","50","1,0,1","2","coast","80","probe-202","1","0.31307031217904796","0.4408214629822387","0","","","","","",""
"","do_trial","139","902892","0.0-121.0-0.0","1584","","","","51","1,1,0","2","coast","81","probe-203","1","0.2896486794537293","0.43112649308578266","0","","","","","",""
"","do_trial","140","909455","0.0-122.0-0.0","1017.9999999998836","","","","49","1,0,0","2","coast","82","probe-25","1","0.276382754301807","0.38117721499446583","1","","","","","",""
"","do_trial","141","916786","0.0-123.0-0.0","1786","","","","50","1,0,0","2","coast","83","probe-112","1","0.10805238225419758","0.3414101812684958","0","","","","","",""
"","do_trial","142","923503","0.0-124.0-0.0","1169.9999999998836","","","","51","0,0,0","2","coast","84","probe-103","0.8759543088835149","0.06076977177416987","0.28630156292973286","0","","","","","",""
"","do_trial","143","930708","0.0-125.0-0.0","1661","","","","51","1,0,0","2","coast","85","probe-97","0.7382558202000676","0.11263624167626106","0.28410484233989935","0","","","","","",""
"","do_trial","144","937529","0.0-126.0-0.0","1276.0000000001164","","","","51","1,1,0","2","coast","86","probe-173","0.8085163484258584","0.23424735031812646","0.4216781040051602","0","","","","","",""
"","do_trial","145","944660","0.0-127.0-0.0","1583","","","","51","1,0,0","2","coast","87","probe-92","0.9283322442286897","0.08737601738912903","0.5625312480270432","0","","","","","",""
"","do_trial","146","950768","0.0-128.0-0.0","561","","","","49","1,0,0","2","coast","88","probe-58","0.9435619108652074","0.20867742392353195","0.48901785791075825","1","","","","","",""
"","do_trial","147","957011","0.0-129.0-0.0","697.9999999998836","","","","49","1,0,0","2","coast","89","probe-151","0.8943953561060295","0.16231437106343483","0.21703997954610987","1","","","","","",""
"","do_trial","148","963343","0.0-130.0-0.0","785","","","","49","0,0,0","2","coast","90","probe-132","0.6153709946478524","0.3208550824418519","0.2748695562059888","0","","","","","",""
"","do_trial","149","969436","0.0-131.0-0.0","549","","","","50","1,0,0","2","coast","91","probe-90","0.4118881605145491","0.46173164705691394","0.24164460013385722","0","","","","","",""
"","do_trial","150","975881","0.0-132.0-0.0","897.9999999998836","","","","50","0,1,0","2","coast","92","probe-148","0.2843830612010552","0.638026968042755","0.25999460299644545","1","","","","","",""
"","do_trial","151","981915","0.0-133.0-0.0","489.0000000001164","","","","50","0,1,0","2","coast","93","probe-209","0.35940733525465957","0.6122757078174638","0.2463580271753403","1","","","","","",""
"","do_trial","152","988592","0.0-134.0-0.0","1130","","","","50","1,0,1","2","coast","94","probe-216","0.1396484417118367","0.5662736353505332","0.36606756156924747","0","","","","","",""
"","do_trial","153","994872","0.0-135.0-0.0","735.9999999998836","","","","49","0,1,0","2","coast","95","probe-230","0.08391032574325691","0.7659703688883273","0.36732388285557044","0","","","","","",""
"","do_trial","154","1001545","0.0-136.0-0.0","1127","","","","51","0,0,0","2","coast","96","probe-201","0.05336141596127807","0.8031148588901853","0.3207748863247327","0","","","","","",""
"","do_trial","155","1007532","0.0-137.0-0.0","442","","","","49","0,0,1","2","coast","97","probe-38","0.17111485210139157","0.8306482786355457","0.3737190127081547","0","","","","","",""
"","do_trial","156","1013792","0.0-138.0-0.0","713.0000000001164","","","","49","0,1,0","2","coast","98","probe-184","0.20805053603076423","0.8327487312096471","0.3474549887060261","0","","","","","",""
"","do_trial","157","1020031","0.0-139.0-0.0","694.0000000001164","","","","50","0,0,0","2","coast","99","probe-37","0.16352647819956154","0.841132236468586","0.45472907173727917","0","","","","","",""
"","do_trial","158","1026118","0.0-140.0-0.0","540","","","","50","1,1,1","2","coast","100","probe-04","0.10274221132345457","0.8476506398387962","0.5441627299690004","1","","","","","",""
"","do_trial","159","1032366","0.0-141.0-0.0","704","","","","50","1,1,1","2","coast","101","probe-39","0.17958718187649084","0.733251697509187","0.49334032021269403","1","","","","","",""
"","do_trial","160","1038444","0.0-142.0-0.0","532.9999999998836","","","","50","0,1,0","2","coast","102","probe-52","0.22716126974831782","0.7876658630945993","0.43769200051206836","1","","","","","",""
"","do_trial","161","1044562","0.0-143.0-0.0","569","","","","50","1,1,1","2","coast","103","probe-107","0.3183627566356993","0.8209942739796512","0.4015697554936557","1","","","","","",""
"","do_trial","162","1050838","0.0-144.0-0.0","729","","","","50","1,1,1","2","coast","104","probe-16","0.25396139383554917","0.9090522743288564","0.36727379694076284","1","","","","","",""
"","do_trial","163","1057738","0.0-145.0-0.0","1355","","","","50","0,1,1","2","coast","105","probe-149","0.3480634631418515","0.8406532381575744","0.41374036532769476","1","","","","","",""
"","do_trial","164","1063930","0.0-146.0-0.0","645","","","","50","0,1,0","2","coast","106","probe-170","0.24474109578566208","0.8334306693630724","0.5554175192662004","1","","","","","",""
"","do_trial","165","1070490","0.0-147.0-0.0","1016","","","","50","1,0,0","2","coast","107","probe-168","0.2661915909636525","0.840799167230113","0.475839947396661","0","","","","","",""
"","do_trial","166","1077097","0.0-148.0-0.0","1060","","","","51","1,1,1","2","coast","108","probe-31","0.2804015067704453","0.7794642869578212","0.4116348468126744","1","","","","","",""
"","do_trial","167","1083240","0.0-149.0-0.0","598","","","","51","0,1,0","2","coast","109","probe-225","0.07003259125585602","0.9048492241696994","0.46254744648780105","0","","","","","",""
"","do_trial","168","1089428","0.0-150.0-0.0","642","","","","51","1,1,0","2","coast","110","probe-30","0.12975479369080703","0.8690605288918868","0.4822988575149435","0","","","","","",""
"","do_trial","169","1095451","0.0-151.0-0.0","478","","","","49","0,1,1","2","coast","111","probe-150","0.052163923721507396","0.9337964395684751","0.5282478593190852","0","","","","","",""
"","do_trial","170","1101925","0.0-152.0-0.0","929","","","","50","0,1,0","2","coast","112","probe-98","0.05847604936520219","0.920980523292114","0.4536313271754711","1","","","","","",""
"","do_trial","171","1108824","0.0-153.0-0.0","1353","","","","50","0,1,0","2","coast","113","probe-124","0.09100723820017194","0.8805328275536886","0.48256838918712824","1","","","","","",""
"","do_trial","172","1115436","0.0-154.0-0.0","1069","","","","50","0,1,0","2","coast","114","probe-47","0.14687285138603967","0.8840944361704236","0.5421698276268059","1","","","","","",""
"","do_trial","173","1121477","0.0-155.0-0.0","null","","","","null","0,1,1","2","coast","115","probe-11","0.16668132321943407","0.8468499876870466","0.647536893977077","","","","","","",""
"","do_trial","174","1128180","0.0-156.0-0.0","1166","","","","50","0,0,1","2","coast","116","probe-64","0.22390618593345885","0.9401076984912541","0.5682830427581138","0","","","","","",""
"","do_trial","175","1134689","0.0-157.0-0.0","970","","","","50","0,1,1","2","coast","117","probe-108","0.1663132029682844","0.8722720921890605","0.5498970487249278","1","","","","","",""
"","do_trial","176","1141123","0.0-158.0-0.0","897","","","","50","0,1,0","2","coast","118","probe-61","0.09990851634764195","0.7128328752995725","0.586472358133206","1","","","","","",""
"","do_trial","177","1147094","0.0-159.0-0.0","433","","","","50","0,1,0","2","coast","119","probe-186","0.1321928929033145","0.7496154350264231","0.5378858991422623","1","","","","","",""
"","do_bye","178","1148600","0.0-160.0-0.0","null","","","","null","","","","","","","","","","","","","","",""
"","do_travel","179","1154604","0.0-161.0-0.0","null","","","","null","","","","","","","","","","","","","","",""
"","do_welcome","180","1156109","0.0-161.0-1.0","null","","","","null","","","","","","","","","","","","","","",""
"","do_trial","181","1162955","0.0-162.0-0.0","1309","","","","51","0,1,1","3","highway","120","probe-33","0.21215008560573723","1","0.44607541077250545","1","","","","","",""
"","do_trial","182","1169664","0.0-163.0-0.0","1171","","","","51","0,1,0","3","highway","121","probe-49","0.15894725991824424","1","0.3675150464329746","0","","","","","",""
"","do_trial","183","1177730","0.0-164.0-0.0","2527.999999999767","","","","51","0,1,1","3","highway","122","probe-10","0.07001084610792674","1","0.2998798769705699","1","","","","","",""
"","do_trial","184","1184888","0.0-165.0-0.0","1620","","","","51","0,1,0","3","highway","123","probe-05","0.13866167044302447","1","0.3776456645804095","0","","","","","",""
"","do_trial","185","1190892","0.0-166.0-0.0","465","","","","51","0,1,1","3","highway","124","probe-212","0.15523225363201143","0.9292479842708818","0.42671916482834127","1","","","","","",""
"","do_trial","186","1197702","0.0-167.0-0.0","1274.0000000002328","","","","51","1,1,0","3","highway","125","probe-130","0.11576924850598451","0.8487919354505281","0.42320411743052666","0","","","","","",""
"","do_trial","187","1203942","0.0-168.0-0.0","703.0000000002328","","","","51","0,1,1","3","highway","126","probe-116","0.10092383665736644","0.9134086288437012","0.4116481187246437","1","","","","","",""
"","do_trial","188","1210686","0.0-169.0-0.0","1201","","","","51","1,0,0","3","highway","127","probe-155","0.19942305878372557","0.7640871143722305","0.47516059941769956","0","","","","","",""
"","do_trial","189","1217114","0.0-170.0-0.0","885","","","","51","0,0,1","3","highway","128","probe-218","0.23860362247128905","0.7659926947566035","0.5459570900792189","1","","","","","",""
"","do_trial","190","1225281","0.0-171.0-0.0","2631","","","","51","0,1,0","3","highway","129","probe-01","0.20442712818215167","0.8727358990856867","0.5070520471499517","0","","","","","",""
"","do_trial","191","1231473","0.0-172.0-0.0","656.0000000002328","","","","51","0,1,1","3","highway","130","probe-44","0.4193844787264596","0.5924694968493607","0.37160585683676095","1","","","","","",""
"","do_trial","192","1237552","0.0-173.0-0.0","544","","","","51","1,0,0","3","highway","131","probe-226","0.7868394355865027","0.33903391761389484","0.27497255924290076","0","","","","","",""
"","do_trial","193","1243712","0.0-174.0-0.0","623.9999999997672","","","","51","1,0,1","3","highway","132","probe-161","0.6838674077112594","0.3804344363691312","0.4071337935130076","1","","","","","",""
"","do_trial","194","1250052","0.0-175.0-0.0","805","","","","49","1,1,0","3","highway","133","probe-169","0.7688531947925259","0.32998699972220236","0.40763926253021615","1","","","","","",""
"","do_trial","195","1256323","0.0-176.0-0.0","733.9999999997672","","","","51","1,0,1","3","highway","134","probe-166","0.8694988121428542","0.17200388075453688","0.31117336502026743","1","","","","","",""
"","do_trial","196","1262426","0.0-177.0-0.0","569","","","","50","1,0,0","3","highway","135","probe-176","0.850643320701579","0.1472070068431542","0.37612838511991487","0","","","","","",""
"","do_trial","197","1268761","0.0-178.0-0.0","799","","","","51","1,0,0","3","highway","136","probe-194","0.8640255302206653","0.21494823221621637","0.3390734579100573","0","","","","","",""
"","do_trial","198","1274835","0.0-179.0-0.0","540","","","","49","1,1,1","3","highway","137","probe-206","0.8259914913012307","0.21402750752923516","0.36346542224394995","1","","","","","",""
"","do_trial","199","1281131","0.0-180.0-0.0","759","","","","49","1,0,0","3","highway","138","probe-106","0.9197548892258911","0.18449519595729","0.45213249941697287","1","","","","","",""
"","do_trial","200","1287435","0.0-181.0-0.0","766","","","","49","1,0,1","3","highway","139","probe-157","0.9159351940686667","0.12875385945432355","0.38711060483188087","1","","","","","",""
"","do_trial","201","1294258","0.0-182.0-0.0","1286","","","","49","1,0,0","3","highway","140","probe-71","0.9498831942296366","0.20934675267698452","0.3523993931838983","1","","","","","",""
"","do_trial","202","1300742","0.0-183.0-0.0","949","","","","49","1,0,0","3","highway","141","probe-211","0.8177141169649988","0.2675753584915962","0.3320942757674332","1","","","","","",""
"","do_trial","203","1308239","0.0-184.0-0.0","1961","","","","49","1,0,1","3","highway","142","probe-131","0.9034641236051641","0.18591002013546412","0.21912352667576415","1","","","","","",""
"","do_trial","204","1315245","0.0-185.0-0.0","1470.0000000002328","","","","49","1,0,1","3","highway","143","probe-15","0.9047296319879757","0.1397008324384855","0.3627124166576098","1","","","","","",""
"","do_trial","205","1322202","0.0-186.0-0.0","1422","","","","49","1,0,0","3","highway","144","probe-45","0.7597983700724354","0.25366343337571395","0.39438359383795096","1","","","","","",""
"","do_trial","206","1329040","0.0-187.0-0.0","1302","","","","49","1,1,1","3","highway","145","probe-104","0.8042009424404672","0.192459307588263","0.41841332344476234","1","","","","","",""
"","do_trial","207","1335076","0.0-188.0-0.0","null","","","","null","1,0,0","3","highway","146","probe-53","0.8725594229876009","0.20825619156321337","0.4956004988848639","","","","","","",""
"","do_trial","208","1341264","0.0-189.0-0.0","651.9999999997672","","","","49","1,0,1","3","highway","147","probe-99","0.9017654060607159","0.27127176942963205","0.2631982920101542","1","","","","","",""
"","do_trial","209","1347300","0.0-190.0-0.0","500","","","","49","0,0,1","3","highway","148","probe-187","0.8348486966738391","0.21696462529549468","0.41526915472819315","0","","","","","",""
"","do_trial","210","1353661","0.0-191.0-0.0","827","","","","49","1,0,0","3","highway","149","probe-223","0.8883599523766595","0.07596902464070811","0.41625748242316996","1","","","","","",""
"","do_trial","211","1359827","0.0-192.0-0.0","630","","","","49","0,0,1","3","highway","150","probe-220","0.8485697229817599","0.09228325241625232","0.4758101580173226","0","","","","","",""
"","do_trial","212","1366582","0.0-193.0-0.0","1218.9999999997672","","","","49","1,1,0","3","highway","151","probe-213","0.9414600423338655","0.174239762567272","0.36224503332779756","1","","","","","",""
"","do_trial","213","1372558","0.0-194.0-0.0","441","","","","49","1,0,1","3","highway","152","probe-147","0.9211333912024421","0.19323797096459452","0.2775392911187293","1","","","","","",""
"","do_trial","214","1378752","0.0-195.0-0.0","658","","","","49","1,0,0","3","highway","153","probe-196","0.9000252543337781","0.13263601923770257","0.3343409647951917","1","","","","","",""
"","do_trial","215","1385159","0.0-196.0-0.0","872","","","","49","1,0,1","3","highway","154","probe-114","0.8513145699130861","0.09602149207938811","0.3456665123028613","1","","","","","",""
"","do_trial","216","1391467","0.0-197.0-0.0","771","","","","49","1,0,1","3","highway","155","probe-232","0.8839066609660512","0.06922705434252552","0.4940226233180664","1","","","","","",""
"","do_trial","217","1397919","0.0-198.0-0.0","916","","","","49","1,1,0","3","highway","156","probe-06","0.8999086888559615","0.13457119297539022","0.5952107642655758","1","","","","","",""
"","do_trial","218","1404037","0.0-199.0-0.0","584","","","","49","1,0,1","3","highway","157","probe-62","0.897435692662151","0.08285138876058498","0.5331919339601966","1","","","","","",""
"","do_trial","219","1410008","0.0-200.0-0.0","435","","","","49","1,0,0","3","highway","158","probe-210","0.932825080760398","0.14077866874929726","0.41702634709372066","1","","","","","",""
"","do_trial","220","1416021","0.0-201.0-0.0","478","","","","49","1,0,0","3","highway","159","probe-138","0.9491816968277886","0.10118498177503041","0.3255658493558514","1","","","","","",""
"","do_bye","221","1417528","0.0-202.0-0.0","null","","","","null","","","","","","","","","","","","","","",""
"","do_travel","222","1423531","0.0-203.0-0.0","null","","","","null","","","","","","","","","","","","","","",""
"","do_welcome","223","1425037","0.0-203.0-1.0","null","","","","null","","","","","","","","","","","","","","",""
"","do_trial","224","1431557","0.0-204.0-0.0","986","","","","49","1,0,0","4","city","160","probe-189","1","0.06273698884744987","0.3052062033597447","1","","","","","",""
"","do_trial","225","1437613","0.0-205.0-0.0","516","","","","50","1,0,0","4","city","161","probe-65","1","0.05747229857002302","0.3333967685192164","0","","","","","",""
"","do_trial","226","1443659","0.0-206.0-0.0","511","","","","51","1,0,0","4","city","162","probe-57","1","0.1714324435095557","0.4243096389150086","0","","","","","",""
"","do_trial","227","1449603","0.0-207.0-0.0","409","","","","49","1,0,0","4","city","163","probe-137","1","0.11909115524545866","0.38758795197130513","1","","","","","",""
"","do_trial","228","1455858","0.0-208.0-0.0","720","","","","49","1,1,1","4","city","164","probe-88","0.9444925573170733","0.05205753469006049","0.40928099505260024","1","","","","","",""
"","do_trial","229","1461895","0.0-209.0-0.0","null","","","","null","1,0,0","4","city","165","probe-126","0.786115862160502","0.05027447779443197","0.3594952799546682","","","","","","",""
"","do_trial","230","1468053","0.0-210.0-0.0","619.9999999997672","","","","49","1,0,0","4","city","166","probe-51","0.8700767446016232","0.09173528335533974","0.3560354427973128","1","","","","","",""
"","do_trial","231","1474217","0.0-211.0-0.0","629","","","","49","1,0,1","4","city","167","probe-02","0.8365890941633721","0.12041231470296034","0.47389505505314616","1","","","","","",""
"","do_trial","232","1480186","0.0-212.0-0.0","432","","","","49","1,0,0","4","city","168","probe-59","0.760837009961148","0.14615745072064323","0.3291684291766287","1","","","","","",""
"","do_trial","233","1486362","0.0-213.0-0.0","640.9999999997672","","","","49","1,0,0","4","city","169","probe-185","0.7956484616894552","0.18913602965892623","0.30288656434879224","1","","","","","",""
"","do_trial","234","1492442","0.0-214.0-0.0","545","","","","49","0,0,0","4","city","170","probe-94","0.5733253206261837","0.16958204826753517","0.4248809544720738","0","","","","","",""
"","do_trial","235","1498404","0.0-215.0-0.0","427","","","","49","0,0,1","4","city","171","probe-180","0.26203850352164515","0.3456631116774356","0.6466347592385313","0","","","","","",""
"","do_trial","236","1504641","0.0-216.0-0.0","700","","","","49","1,1,0","4","city","172","probe-09","0.2551019688902337","0.38594301910792134","0.572179544253323","1","","","","","",""
"","do_trial","237","1510617","0.0-217.0-0.0","441","","","","49","0,0,0","4","city","173","probe-179","0.3986811535495751","0.3266854924521495","0.6457441877117323","0","","","","","",""
"","do_trial","238","1517050","0.0-218.0-0.0","894.9999999997672","","","","50","0,0,0","4","city","174","probe-177","0.24944591552665357","0.21456706267143552","0.5585233411778389","0","","","","","",""
"","do_trial","239","1523090","0.0-219.0-0.0","506","","","","51","0,0,1","4","city","175","probe-111","0.12443319076456824","0.2782323124302632","0.6308864459885972","1","","","","","",""
"","do_trial","240","1530299","0.0-220.0-0.0","1672.0000000002328","","","","51","0,1,0","4","city","176","probe-68","0.07828545057241124","0.37895885370405397","0.7122818917800687","0","","","","","",""
"","do_trial","241","1536424","0.0-221.0-0.0","587","","","","49","0,0,1","4","city","177","probe-77","0.1436799725061568","0.30412237396550995","0.6179209963708214","0","","","","","",""
"","do_trial","242","1542549","0.0-222.0-0.0","590","","","","51","0,0,0","4","city","178","probe-153","0.1160589271076006","0.3074692381696741","0.8296559688508074","0","","","","","",""
"","do_trial","243","1549391","0.0-223.0-0.0","1307","","","","49","0,1,1","4","city","179","probe-81","0.08189186668007066","0.3160301477783227","0.9014943152870908","0","","","","","",""
"","do_trial","244","1555373","0.0-224.0-0.0","446","","","","50","0,1,1","4","city","180","probe-21","0.12054126283409232","0.32519944859882316","0.9233197944468831","1","","","","","",""
"","do_trial","245","1561650","0.0-225.0-0.0","742","","","","50","0,0,1","4","city","181","probe-12","0.12035077197454676","0.24968818508065863","0.9481517521148106","0","","","","","",""
"","do_trial","246","1567666","0.0-226.0-0.0","479.00000000023283","","","","50","0,1,1","4","city","182","probe-239","0.085944759737359","0.33200834001243396","0.9323520798085259","1","","","","","",""
"","do_trial","247","1574798","0.0-227.0-0.0","1598","","","","50","0,0,1","4","city","183","probe-03","0.05826008538028644","0.4038379021782844","0.9210717016168368","0","","","","","",""
"","do_trial","248","1581135","0.0-228.0-0.0","802","","","","51","0,1,1","4","city","184","probe-233","0.07095533028103033","0.3645292173620209","0.8981863068890552","1","","","","","",""
"","do_trial","249","1587263","0.0-229.0-0.0","591","","","","51","0,0,1","4","city","185","probe-13","0.10829666858757003","0.15101259758698","0.8816667601224929","1","","","","","",""
"","do_trial","250","1593471","0.0-230.0-0.0","674","","","","51","0,0,0","4","city","186","probe-115","0.1084092213287811","0.19304219278114154","0.8529840730619516","0","","","","","",""
"","do_trial","251","1599469","0.0-231.0-0.0","462","","","","51","0,0,1","4","city","187","probe-24","0.1438212963605648","0.22710202128436158","0.7079693104370752","1","","","","","",""
"","do_trial","252","1605897","0.0-232.0-0.0","892.0000000002328","","","","51","1,0,0","4","city","188","probe-109","0.150845725602433","0.2339035975705996","0.7278560964111823","0","","","","","",""
"","do_trial","253","1612171","0.0-233.0-0.0","739","","","","51","0,1,1","4","city","189","probe-113","0.06999230842444157","0.2568981071718284","0.6915563606583679","1","","","","","",""
"","do_trial","254","1618513","0.0-234.0-0.0","807.0000000002328","","","","51","0,0,1","4","city","190","probe-121","0.0846818279411372","0.16387498674434206","0.7176521787382291","1","","","","","",""
"","do_trial","255","1625429","0.0-235.0-0.0","1379","","","","51","0,1,1","4","city","191","probe-135","0.17599390514163857","0.3225308696886964","0.8283447601455752","1","","","","","",""
"","do_trial","256","1631735","0.0-236.0-0.0","771.0000000002328","","","","51","0,0,1","4","city","192","probe-120","0.2333599156527343","0.31345163042004087","0.8488776839586188","1","","","","","",""
"","do_trial","257","1638159","0.0-237.0-0.0","889","","","","51","0,0,1","4","city","193","probe-96","0.1949733845422909","0.38524817528798755","0.6944545115318588","1","","","","","",""
"","do_trial","258","1645649","0.0-238.0-0.0","1955","","","","51","0,0,1","4","city","194","probe-76","0.07261183716399065","0.3092047739697611","0.8287568982311208","1","","","","","",""
"","do_trial","259","1651761","0.0-239.0-0.0","578","","","","51","0,0,1","4","city","195","probe-200","0.07322789875841593","0.36960645257399594","0.8933174005767305","1","","","","","",""
"","do_trial","260","1658038","0.0-240.0-0.0","739","","","","51","0,1,1","4","city","196","probe-86","0.14713275863678374","0.47283596300755576","0.820368203997133","1","","","","","",""
"","do_trial","261","1664181","0.0-241.0-0.0","607","","","","51","0,0,1","4","city","197","probe-221","0.191682587080926","0.3331959471420067","0.8269236676395242","1","","","","","",""
"","do_trial","262","1670387","0.0-242.0-0.0","668.9999999997672","","","","51","0,0,1","4","city","198","probe-50","0.21149177868835525","0.4225883118406961","0.7975750231486134","1","","","","","",""
"","do_trial","263","1676527","0.0-243.0-0.0","606","","","","51","0,0,0","4","city","199","probe-72","0.12897436520677172","0.40303528094780755","0.8555183069142789","0","","","","","",""
"","do_bye","264","1678035","0.0-244.0-0.0","null","","","","null","","","","","","","","","","","","","","",""
"","do_travel","265","1684038","0.0-245.0-0.0","null","","","","null","","","","","","","","","","","","","","",""
"","do_welcome","266","1685544","0.0-245.0-1.0","null","","","","null","","","","","","","","","","","","","","",""
"","do_trial","267","1692485","0.0-246.0-0.0","1406","","","","50","0,1,1","5","forest","200","probe-144","0.10075561606544038","0.3373777020952699","1","1","","","","","",""
"","do_trial","268","1698701","0.0-247.0-0.0","681","","","","49","0,1,1","5","forest","201","probe-79","0.0800876225886431","0.35302767834461973","1","0","","","","","",""
"","do_trial","269","1704782","0.0-248.0-0.0","543.9999999997672","","","","51","0,0,1","5","forest","202","probe-83","0.11210155198934299","0.530699093375581","1","1","","","","","",""
"","do_trial","270","1711197","0.0-249.0-0.0","880","","","","50","1,0,1","5","forest","203","probe-56","0.22580918992902024","0.503843039474461","1","0","","","","","",""
"","do_trial","271","1717390","0.0-250.0-0.0","658.0000000002328","","","","51","0,0,1","5","forest","204","probe-152","0.22839624675655998","0.4514438683922854","0.9490968556332845","1","","","","","",""
"","do_trial","272","1725286","0.0-251.0-0.0","2359.000000000233","","","","51","0,0,1","5","forest","205","probe-69","0.11492305645001644","0.4647745808112134","0.8898729218290659","1","","","","","",""
"","do_trial","273","1731801","0.0-252.0-0.0","980","","","","51","0,1,1","5","forest","206","probe-84","0.10618377297421999","0.5457405468062314","0.7338187784047648","1","","","","","",""
"","do_trial","274","1738056","0.0-253.0-0.0","716.0000000002328","","","","51","0,1,1","5","forest","207","probe-158","0.12987561819763005","0.5444950086128401","0.834524092253058","1","","","","","",""
"","do_trial","275","1744205","0.0-254.0-0.0","614","","","","51","1,0,1","5","forest","208","probe-74","0.11503392606863201","0.5000961980288383","0.8347144920852547","1","","","","","",""
"","do_trial","276","1750575","0.0-255.0-0.0","833.0000000002328","","","","51","0,1,1","5","forest","209","probe-188","0.13508279158122968","0.4398791805594843","0.8328368572491677","1","","","","","",""
"","do_trial","277","1756814","0.0-256.0-0.0","704","","","","51","0,0,1","5","forest","210","probe-219","0.5080906669536315","0.6484310565641804","0.4588890822648243","1","","","","","",""
"","do_trial","278","1762848","0.0-257.0-0.0","499","","","","51","0,1,0","5","forest","211","probe-199","0.34575240041054445","0.6827230424348109","0.22874733753396043","0","","","","","",""
"","do_trial","279","1769379","0.0-258.0-0.0","995.9999999997672","","","","51","0,1,0","5","forest","212","probe-240","0.47263492532826445","0.6408195227082749","0.09776993033432352","0","","","","","",""
"","do_trial","280","1776447","0.0-259.0-0.0","1534","","","","51","1,1,0","5","forest","213","probe-32","0.32274971203178743","0.6538404797463301","0.09653020722943556","0","","","","","",""
"","do_trial","281","1783029","0.0-260.0-0.0","1046","","","","49","0,1,0","5","forest","214","probe-17","0.49652978147147386","0.6521060376876073","0.16541752478127145","0","","","","","",""
"","do_trial","282","1788975","0.0-261.0-0.0","411","","","","50","1,1,1","5","forest","215","probe-73","0.5375152152882169","0.7923207130702197","0.23225748141618915","1","","","","","",""
"","do_trial","283","1795250","0.0-262.0-0.0","739.0000000002328","","","","51","1,0,1","5","forest","216","probe-89","0.6296681208639711","0.8329209784862277","0.13015267679904524","1","","","","","",""
"","do_trial","284","1801237","0.0-263.0-0.0","453","","","","50","0,1,0","5","forest","217","probe-48","0.5567722292546463","0.9458741009485513","0.19283927675148257","1","","","","","",""
"","do_trial","285","1807831","0.0-264.0-0.0","1057","","","","50","0,1,1","5","forest","218","probe-125","0.6016873290435182","0.8804341581634445","0.06072062247762789","1","","","","","",""
"","do_trial","286","1814397","0.0-265.0-0.0","1031.9999999997672","","","","50","0,1,0","5","forest","219","probe-29","0.5040457125302279","0.7234321022178831","0.0800931573107627","1","","","","","",""
"","do_trial","287","1820486","0.0-266.0-0.0","552.9999999997672","","","","50","0,1,0","5","forest","220","probe-192","0.514621431012013","0.7157037814314957","0.15884588096802735","1","","","","","",""
"","do_trial","288","1826416","0.0-267.0-0.0","394","","","","50","1,1,0","5","forest","221","probe-122","0.42964688392778516","0.6635996657946458","0.14498282268721477","1","","","","","",""
"","do_trial","289","1834348","0.0-268.0-0.0","2397","","","","50","0,1,0","5","forest","222","probe-93","0.44102509844940524","0.8884294211210749","0.05680144762798559","1","","","","","",""
"","do_trial","290","1840410","0.0-269.0-0.0","527","","","","50","0,1,0","5","forest","223","probe-34","0.6049640370966054","0.9264820716544795","0.07296807192398386","1","","","","","",""
"","do_trial","291","1846517","0.0-270.0-0.0","572","","","","50","1,1,1","5","forest","224","probe-215","0.47426296950535496","0.9044617041486224","0.1079694238837603","1","","","","","",""
"","do_trial","292","1853061","0.0-271.0-0.0","1010","","","","50","1,1,0","5","forest","225","probe-162","0.47030420381239507","0.7654709831678101","0.08786509153758257","1","","","","","",""
"","do_trial","293","1859038","0.0-272.0-0.0","441.99999999976717","","","","50","0,1,0","5","forest","226","probe-159","0.35054154145497757","0.7201365807216269","0.14677990211626676","1","","","","","",""
"","do_trial","294","1865046","0.0-273.0-0.0","471","","","","50","1,1,1","5","forest","227","probe-105","0.32278278623916534","0.7935844945602156","0.16024244827772038","1","","","","","",""
"","do_trial","295","1871373","0.0-274.0-0.0","793","","","","50","1,1,1","5","forest","228","probe-227","0.3520580344214489","0.8846828690400927","0.2351187697859831","1","","","","","",""
"","do_trial","296","1878434","0.0-275.0-0.0","1523.0000000002328","","","","50","1,1,0","5","forest","229","probe-87","0.46229714894419116","0.8375794074015301","0.14703367814696883","1","","","","","",""
"","do_trial","297","1884646","0.0-276.0-0.0","674","","","","50","0,1,0","5","forest","230","probe-82","0.5550898636226634","0.8406035604893459","0.12359245573211265","1","","","","","",""
"","do_trial","298","1890605","0.0-277.0-0.0","420","","","","50","1,1,0","5","forest","231","probe-118","0.36332941277982145","0.849167799120854","0.10451569999102078","1","","","","","",""
"","do_trial","299","1897322","0.0-278.0-0.0","1179","","","","50","0,1,0","5","forest","232","probe-235","0.3112651240144872","0.8716500705548103","0.07284872619423176","1","","","","","",""
"","do_trial","300","1903727","0.0-279.0-0.0","867","","","","50","1,0,0","5","forest","233","probe-171","0.25491023830230725","0.9482445559489837","0.12374420212922291","0","","","","","",""
"","do_trial","301","1909926","0.0-280.0-0.0","663.0000000002328","","","","50","1,1,1","5","forest","234","probe-127","0.4487870340094783","0.89598165295133","0.22573388035081438","1","","","","","",""
"","do_trial","302","1917047","0.0-281.0-0.0","1579.9999999997672","","","","50","0,1,1","5","forest","235","probe-20","0.39012596961859836","0.792132037451172","0.28801241523244203","1","","","","","",""
"","do_trial","303","1923142","0.0-282.0-0.0","553","","","","50","1,1,1","5","forest","236","probe-36","0.46095614244711924","0.9483644550036229","0.2073606379741495","1","","","","","",""
"","do_trial","304","1929479","0.0-283.0-0.0","797","","","","50","1,1,0","5","forest","237","probe-40","0.33644957862322084","0.8315944970052336","0.15221285992707842","1","","","","","",""
"","do_trial","305","1936690","0.0-284.0-0.0","1673","","","","50","1,1,0","5","forest","238","probe-237","0.5433417794223396","0.8615319555206719","0.16667065678489515","1","","","","","",""
"","do_trial","306","1942875","0.0-285.0-0.0","644","","","","50","0,1,1","5","forest","239","probe-07","0.4998685389614698","0.8909944989402742","0.1630132003219222","1","","","","","",""
"","do_bye","307","1944382","0.0-286.0-0.0","null","","","","null","","","","","","","","","","","","","","",""
"","html-keyboard-response","308","2027437","0.0-286.0-1.0","83049","<div class='center'><p>You may take a break now!</p><p> Stretch for a little bit. Get a glass of water.</p><p> You have two minutes to rest. Then, the game will automatically move on.</p><p>If you’d like to get started on the second half of the experiment sooner, then press the <b>space bar</b></p></div>","32","","","","","","","","","","","","","","","","",""
"","html-keyboard-response","309","2029446","0.0-286.0-2.0","2007.9999999997672","<div class='center'><p>You’ve arrived at the final destination of your journey! Unfortunately, it’s very foggy out, so you won’t be able to see it in the distance like in previous places you've visited.</p><p>You’ll still be deciding which pirates you want to rob ships. However, because of the fog you also won’t be able to see the ship in the distance. </p><p><b>[Press the space bar to continue]</b></p></div>","32","","","","","","","","","","","","","","","","",""
"","html-keyboard-response","310","2074578","0.0-286.0-3.0","45128.99999999977","<div class='center'><p> Sometimes you’ll be asked if you’ve seen a ship before (see the example below). You will use the 5, 6, 7, 8 buttons on your keyboard to respond. </p><p> If you definitely did not see the ship, pick the the big red thumbs down by pressing <b>5</b>.</p><p> If you don’t think you saw it but aren’t sure, then pick the small red thumbs down by pressing <b>6</b>.</p><p> If you think you might have seen it, then pick the small green thumbs up by pressing <b>7</b>.</p><p> If you definitely did see this ship before, then pick the big thumb green thumbs up by pressing <b>8</b>.</p><p> If you recall correctly, then you’ll get a gold coin!</p><p><b>[Press the space bar to begin the next phase of the experiment]</b></p><p><img src='run_exp/static/images/example_recog_trial.png' height='500'></p></div>","32","","","","","","","","","","","","","","","","",""
"","do_welcome","311","2076084","0.0-286.0-4.0","null","","","","null","","","","","","","","","","","","","","",""
"","do_trial","312","2082123","0.0-287.0-0.0","null","","","","null","1,1,0","6","blank","240","null","0.48267233530015313","1","0.2500973042629667","","","","","","",""
"","do_trial","313","2086486","0.0-288.0-0.0","826","","","","49","1,1,0","6","blank","241","null","0.48216900812159375","0.9427694492173114","0.1914644981742065","1","","","","","",""
"","do_recog","314","2092495","0.0-289.0-0.0","null","","","","null","","","","242","probe-212","","","","","1","[object Object]","124","3","0",""
"","do_trial","315","2098174","0.0-290.0-0.0","2141","","","","49","0,0,0","6","blank","243","null","0.5905865985572405","0.7340082162720531","0.16294302296280683","0","","","","","",""
"","do_trial","316","2104216","0.0-291.0-0.0","2504","","","","50","1,1,0","6","blank","244","null","0.4855149400869799","0.8171944918539314","0.13289782542320955","1","","","","","",""
"","do_trial","317","2108525","0.0-292.0-0.0","771.9999999995343","","","","51","1,1,1","6","blank","245","null","0.48716275862939157","0.9393719460247896","0.14112102416198993","1","","","","","",""
"","do_trial","318","2112878","0.0-293.0-0.0","814","","","","50","1,1,0","6","blank","246","null","0.3292740078735288","0.8223422314608853","0.0973468683630801","1","","","","","",""
"","do_trial","319","2117518","0.0-294.0-0.0","1103","","","","50","1,1,0","6","blank","247","null","0.4148827809954618","0.7971888000136946","0.10905303037674291","1","","","","","",""
"","do_recog","320","2123527","0.0-295.0-0.0","null","","","","null","","","","248","probe-79","","","","","1","[object Object]","201","5","0",""
"","do_trial","321","2128387","0.0-296.0-0.0","1322","","","","50","1,1,1","6","blank","249","null","0.47651039909186516","0.8477723019484741","0.24022753995224777","1","","","","","",""
"","do_recog","322","2132113","0.0-297.0-0.0","2217","","","","53","","","","250","probe-25","","","","","1","[object Object]","82","2","0",""
"","do_trial","323","2137019","0.0-298.0-0.0","1369","","","","51","0,1,0","6","blank","251","null","0.5168337986663329","0.7942487149466775","0.1363176910178496","0","","","","","",""
"","do_trial","324","2141679","0.0-299.0-0.0","1124.0000000004657","","","","50","0,1,0","6","blank","252","null","0.30183428403287504","0.7802684380406811","0.10256953717591565","1","","","","","",""
"","do_trial","325","2145863","0.0-300.0-0.0","646.9999999995343","","","","49","1,1,0","6","blank","253","null","0.35283243960497607","0.45679123078138034","0.41190819290575903","1","","","","","",""
"","do_recog","326","2149150","0.0-301.0-0.0","1778.0000000004657","","","","55","","","","254","probe-74","","","","","1","[object Object]","208","5","1",""
"","do_trial","327","2154106","0.0-302.0-0.0","1418.9999999995343","","","","50","1,0,1","6","blank","255","null","0.27253552270410936","0.37094579756956975","0.6548945949421894","0","","","","","",""
"","do_recog","328","2157043","0.0-303.0-0.0","1428","","","","55","","","","256","probe-152","","","","","1","[object Object]","204","5","1",""
"","do_trial","329","2161629","0.0-304.0-0.0","1048.0000000004657","","","","50","0,0,1","6","blank","257","null","0.4447316061724807","0.2371866567762769","0.7796623260677241","0","","","","","",""
"","do_trial","330","2165811","0.0-305.0-0.0","644","","","","49","0,0,1","6","blank","258","null","0.44881190770555385","0.16314990438491275","0.7192856192922659","0","","","","","",""
"","do_trial","331","2170151","0.0-306.0-0.0","796","","","","51","0,0,1","6","blank","259","null","0.4305091511722445","0.20039882863206968","0.7243302906723286","1","","","","","",""
"","do_recog","332","2173137","0.0-307.0-0.0","1479","","","","54","","","","260","probe-252","","","","","0","[object Object]","null","null","1",""
"","do_trial","333","2177762","0.0-308.0-0.0","1081","","","","51","1,0,1","6","blank","261","null","0.4745887477027389","0.14979549943372975","0.7049503371347774","1","","","","","",""
"","do_recog","334","2180720","0.0-309.0-0.0","1449","","","","54","","","","262","probe-69","","","","","1","[object Object]","205","5","0",""
"","do_trial","335","2185521","0.0-310.0-0.0","1257","","","","51","1,0,1","6","blank","263","null","0.36570322557805635","0.22467141967246854","0.7007837813419913","1","","","","","",""
"","do_recog","336","2188510","0.0-311.0-0.0","1481","","","","54","","","","264","probe-243","","","","","0","[object Object]","null","null","1",""
"","do_trial","337","2193683","0.0-312.0-0.0","1636","","","","51","1,0,0","6","blank","265","null","0.47204470595378506","0.21189895108060788","0.6248896181203414","0","","","","","",""
"","do_recog","338","2196689","0.0-313.0-0.0","1499.0000000004657","","","","55","","","","266","probe-158","","","","","1","[object Object]","207","5","1",""
"","do_trial","339","2201295","0.0-314.0-0.0","1070","","","","51","0,1,1","6","blank","267","null","0.48828833691953905","0.27340883805081795","0.7715630027652212","1","","","","","",""
"","do_recog","340","2204610","0.0-315.0-0.0","1808","","","","55","","","","268","probe-59","","","","","1","[object Object]","168","4","1",""
"","do_trial","341","2208857","0.0-316.0-0.0","712","","","","51","0,0,1","6","blank","269","null","0.42752219371472533","0.23838143765727118","0.7238482588832421","1","","","","","",""
"","do_trial","342","2213227","0.0-317.0-0.0","833.9999999995343","","","","51","1,1,1","6","blank","270","null","0.6012387983787503","0.0916127227352382","0.7755009056560905","1","","","","","",""
"","do_trial","343","2217371","0.0-318.0-0.0","610","","","","50","0,0,1","6","blank","271","null","0.6598294699231443","0.09778676222363406","0.7994723116499737","0","","","","","",""
"","do_recog","344","2220148","0.0-319.0-0.0","1269","","","","54","","","","272","probe-188","","","","","1","[object Object]","209","5","0",""
"","do_trial","345","2224936","0.0-320.0-0.0","1253","","","","49","0,0,1","6","blank","273","null","0.6251189450798041","0.1637078852577372","0.9006480936854382","0","","","","","",""
"","do_recog","346","2227943","0.0-321.0-0.0","1501","","","","54","","","","274","probe-49","","","","","1","[object Object]","121","3","0",""
"","do_trial","347","2233939","0.0-322.0-0.0","2460","","","","51","0,0,1","6","blank","275","null","0.7001827119738223","0.21511294947920895","0.8697568565582345","1","","","","","",""
"","do_trial","348","2238837","0.0-323.0-0.0","1361","","","","51","1,0,1","6","blank","276","null","0.5304095713097763","0.20272175120567157","0.8358171689518733","1","","","","","",""
"","do_trial","349","2242828","0.0-324.0-0.0","457","","","","51","0,0,1","6","blank","277","null","0.39499486909506054","0.11745363110833157","0.8658576673950968","1","","","","","",""
"","do_trial","350","2247054","0.0-325.0-0.0","690","","","","50","1,0,1","6","blank","278","null","0.5233735848941276","0.09065095548559729","0.8386051016583673","0","","","","","",""
"","do_trial","351","2251589","0.0-326.0-0.0","1001","","","","51","1,0,1","6","blank","279","null","0.4429160704063735","0.08247165328354773","0.7904212691351488","1","","","","","",""
"","do_trial","352","2256144","0.0-327.0-0.0","1019.0000000004657","","","","50","1,0,0","6","blank","280","null","0.4382856817821164","0.12959843440136473","0.7443955669182324","0","","","","","",""
"","do_trial","353","2260682","0.0-328.0-0.0","1002","","","","50","1,0,0","6","blank","281","null","0.4756770039183613","0.2178016290090396","0.7215300756285218","0","","","","","",""
"","do_recog","354","2263741","0.0-329.0-0.0","1552","","","","55","","","","282","probe-02","","","","","1","[object Object]","167","4","1",""
"","do_trial","355","2268317","0.0-330.0-0.0","1041","","","","51","0,0,1","6","blank","283","null","0.2873736222171462","0.18149257255087037","1","1","","","","","",""
"","do_trial","356","2272993","0.0-331.0-0.0","1140","","","","50","0,0,1","6","blank","284","null","0.29988984082879355","0.10836427722426431","0.7248019540978491","0","","","","","",""
"","do_recog","357","2276053","0.0-332.0-0.0","1553.9999999995343","","","","55","","","","285","probe-203","","","","","1","[object Object]","81","2","1",""
"","do_trial","358","2280550","0.0-333.0-0.0","963","","","","50","0,0,1","6","blank","286","null","0.3507912048987853","0.16842453077349576","0.7087485793984304","0","","","","","",""
"","do_recog","359","2283398","0.0-334.0-0.0","1340.9999999995343","","","","55","","","","287","probe-247","","","","","0","[object Object]","null","null","0",""
"","do_trial","360","2288118","0.0-335.0-0.0","1183","","","","50","1,0,0","6","blank","288","null","0.4356878272806782","0.09746955028616135","0.8532643464287831","0","","","","","",""
"","do_trial","361","2292219","0.0-336.0-0.0","567","","","","50","1,0,0","6","blank","289","null","0.3575648670135203","0.056760264102923695","0.9249305690755172","0","","","","","",""
"","do_recog","362","2295024","0.0-337.0-0.0","1297","","","","55","","","","290","probe-56","","","","","1","[object Object]","203","5","1",""
"","do_trial","363","2299888","0.0-338.0-0.0","1328","","","","49","0,0,1","6","blank","291","null","0.39227304337539265","0.08706117488738732","0.7850228002940325","0","","","","","",""
"","do_trial","364","2304549","0.0-339.0-0.0","1124","","","","51","1,0,1","6","blank","292","null","0.45298565917560857","0.22653000054189357","0.9318948406128902","1","","","","","",""
"","do_trial","365","2308789","0.0-340.0-0.0","705","","","","51","1,0,1","6","blank","293","null","0.5090476308301163","0.06816564127621032","0.8920604144449606","1","","","","","",""
"","do_trial","366","2313390","0.0-341.0-0.0","1064","","","","51","0,0,1","6","blank","294","null","0.5570197327589029","0.19189114581506267","0.6879820148959809","1","","","","","",""
"","do_recog","367","2316131","0.0-342.0-0.0","1234","","","","55","","","","295","probe-146","","","","","1","[object Object]","48","1","1",""
"","do_trial","368","2322167","0.0-343.0-0.0","null","","","","null","1,0,0","6","blank","296","null","0.6250771152987944","0.1094600281715","0.7003140878950257","","","","","","",""
"","do_recog","369","2324959","0.0-344.0-0.0","1283","","","","56","","","","297","probe-22","","","","","1","[object Object]","47","1","1",""
"","do_trial","370","2329843","0.0-345.0-0.0","1348","","","","50","1,1,1","6","blank","298","null","0.663028760534477","0.28007311426906","0.7582244187388905","1","","","","","",""
"","do_trial","371","2334056","0.0-346.0-0.0","679","","","","49","0,0,0","6","blank","299","null","0.5718948783862887","0.2147118781701341","0.7494033212616504","0","","","","","",""
"","do_recog","372","2336757","0.0-347.0-0.0","1193","","","","55","","","","300","probe-58","","","","","1","[object Object]","88","2","1",""
"","do_trial","373","2341490","0.0-348.0-0.0","1196","","","","50","1,0,0","6","blank","301","null","0.4844667388992837","0.47682334800133347","0.47167087968392085","0","","","","","",""
"","do_trial","374","2345874","0.0-349.0-0.0","849","","","","51","0,1,0","6","blank","302","null","0.3412516588321614","0.5117860916175794","0.26086500227881587","0","","","","","",""
"","do_trial","375","2350712","0.0-350.0-0.0","1303","","","","50","0,1,0","6","blank","303","null","0.430234457708463","0.6697715023387834","0.2509436142514264","1","","","","","",""
"","do_trial","376","2355139","0.0-351.0-0.0","891","","","","50","0,1,0","6","blank","304","null","0.4196606719036782","0.790247534500467","0.14093845587698292","1","","","","","",""
"","do_recog","377","2357588","0.0-352.0-0.0","943.0000000004657","","","","55","","","","305","probe-205","","","","","1","[object Object]","46","1","1",""
"","do_trial","378","2363725","0.0-353.0-0.0","2601","","","","50","0,0,0","6","blank","306","null","0.2745915622391695","0.7640336670021991","0.21974722362148127","0","","","","","",""
"","do_recog","379","2366390","0.0-354.0-0.0","1158","","","","55","","","","307","probe-112","","","","","1","[object Object]","83","2","1",""
"","do_trial","380","2371231","0.0-355.0-0.0","1305","","","","50","0,1,0","6","blank","308","null","0.3329273285045264","0.7880438290004855","0.05451444476152606","1","","","","","",""
"","do_recog","381","2373765","0.0-356.0-0.0","1026","","","","55","","","","309","probe-218","","","","","1","[object Object]","128","3","1",""
"","do_trial","382","2378479","0.0-357.0-0.0","1179","","","","50","0,1,0","6","blank","310","null","0.4578249609945146","0.8166500616865071","0.06942452719534634","1","","","","","",""
"","do_trial","383","2382908","0.0-358.0-0.0","892.0000000004657","","","","50","0,1,0","6","blank","311","null","0.4057940728970523","0.6614923179538319","0.06960882744157601","1","","","","","",""
"","do_trial","384","2387281","0.0-359.0-0.0","839.0000000004657","","","","51","0,1,0","6","blank","312","null","0.45882370796398536","0.82831855710967","0.15455006346887717","0","","","","","",""
"","do_trial","385","2391452","0.0-360.0-0.0","634","","","","51","0,1,0","6","blank","313","null","0.37550365067867747","0.7781168861131318","0.23032655005685967","0","","","","","",""
"","do_recog","386","2393830","0.0-361.0-0.0","870","","","","55","","","","314","probe-142","","","","","1","[object Object]","44","1","1",""
"","do_trial","387","2399104","0.0-362.0-0.0","1738","","","","49","0,0,0","6","blank","315","null","0.48795788879265384","0.7918241974521779","0.12363442540785431","0","","","","","",""
"","do_trial","388","2403310","0.0-363.0-0.0","671","","","","51","1,1,0","6","blank","316","null","0.48075047988695135","0.8824679980700016","0.0785394647307608","0","","","","","",""
"","do_recog","389","2406133","0.0-364.0-0.0","1315","","","","55","","","","317","probe-202","","","","","1","[object Object]","80","2","1",""
"","do_trial","390","2412106","0.0-365.0-0.0","2437","","","","51","0,1,0","6","blank","318","null","0.29025545183625256","0.8917016893274693","0.12363553797127766","0","","","","","",""
"","do_recog","391","2414810","0.0-366.0-0.0","1198","","","","55","","","","319","probe-92","","","","","1","[object Object]","87","2","1",""
"","do_trial","392","2419275","0.0-367.0-0.0","930","","","","50","0,1,0","6","blank","320","null","0.24488215640564137","0.8628493159449859","0.2124448862153699","1","","","","","",""
"","do_recog","393","2421967","0.0-368.0-0.0","1184","","","","55","","","","321","probe-83","","","","","1","[object Object]","202","5","1",""
"","do_trial","394","2426489","0.0-369.0-0.0","988","","","","50","0,1,0","6","blank","322","null","0.35442350493623287","0.8477540658247413","0.08151024826790298","1","","","","","",""
"","do_recog","395","2428993","0.0-370.0-0.0","995","","","","55","","","","323","probe-88","","","","","1","[object Object]","164","4","1",""
"","do_trial","396","2433842","0.0-371.0-0.0","1313","","","","51","1,1,0","6","blank","324","null","0.28358083636473824","0.8684962461909292","0.17841869289448528","0","","","","","",""
"","do_recog","397","2436219","0.0-372.0-0.0","868.9999999995343","","","","55","","","","325","probe-130","","","","","1","[object Object]","125","3","1",""
"","do_trial","398","2440838","0.0-373.0-0.0","1083.9999999995343","","","","51","1,1,0","6","blank","326","null","0.42534980195858824","0.6910890845229858","0.07527468416962836","0","","","","","",""
"","do_trial","399","2445472","0.0-374.0-0.0","1097","","","","51","1,1,0","6","blank","327","null","0.41967015884920034","0.8102964194173744","0.054414747566817294","0","","","","","",""
"","do_recog","400","2448343","0.0-375.0-0.0","1363","","","","55","","","","328","probe-248","","","","","0","[object Object]","null","null","0",""
"","do_trial","401","2454223","0.0-376.0-0.0","2344","","","","51","1,1,0","6","blank","329","null","0.42583231230920493","1","0.16195157367406515","0","","","","","",""
"","do_trial","402","2458532","0.0-377.0-0.0","773","","","","50","0,1,0","6","blank","330","null","0.41675163584912644","0.9386294006050928","0.15763587955057248","1","","","","","",""
"","do_trial","403","2462841","0.0-378.0-0.0","772","","","","51","1,0,0","6","blank","331","null","0.6085586154666239","0.9205759790383963","0.09650343447712587","0","","","","","",""
"","do_recog","404","2465253","0.0-379.0-0.0","905","","","","55","","","","332","probe-57","","","","","1","[object Object]","162","4","1",""
"","do_trial","405","2469591","0.0-380.0-0.0","803","","","","51","1,1,0","6","blank","333","null","0.4927074169037303","0.7114134063916281","0.1420969124214413","0","","","","","",""
"","do_trial","406","2474030","0.0-381.0-0.0","902","","","","51","0,1,0","6","blank","334","null","0.35395372864116403","0.6256955112599137","0.1754510433020047","0","","","","","",""
"","do_recog","407","2476465","0.0-382.0-0.0","928","","","","55","","","","335","probe-116","","","","","1","[object Object]","126","3","1",""
"","do_trial","408","2480844","0.0-383.0-0.0","844","","","","51","1,0,0","6","blank","336","null","0.358461092687392","0.7485951237205499","0.10358769679062381","0","","","","","",""
"","do_trial","409","2485393","0.0-384.0-0.0","1014","","","","51","0,1,0","6","blank","337","null","0.28979380718333553","0.85486216378434","0.09258311000214059","0","","","","","",""
"","do_trial","410","2489517","0.0-385.0-0.0","589","","","","50","1,1,1","6","blank","338","null","0.4127427218647094","0.8920543693663491","0.06264976181832267","1","","","","","",""
"","do_recog","411","2492561","0.0-386.0-0.0","1537","","","","55","","","","339","probe-224","","","","","1","[object Object]","41","1","1",""
"","do_trial","412","2497127","0.0-387.0-0.0","1030","","","","50","0,1,1","6","blank","340","null","0.3695201260064055","0.7927418721466761","0.14699811587865264","1","","","","","",""
"","do_recog","413","2499692","0.0-388.0-0.0","1059","","","","55","","","","341","probe-65","","","","","1","[object Object]","161","4","1",""
"","do_trial","414","2504652","0.0-389.0-0.0","1425.0000000004657","","","","50","0,1,0","6","blank","342","null","0.448062312489432","0.8584410113129799","0.17834943064431663","1","","","","","",""
"","do_trial","415","2509100","0.0-390.0-0.0","913","","","","50","0,1,1","6","blank","343","null","0.5570048318126068","0.4667805657589641","0.1439905040027453","1","","","","","",""
"","do_trial","416","2513520","0.0-391.0-0.0","884","","","","49","1,1,0","6","blank","344","null","0.6787849723251671","0.4896908138869599","0.37227313569852294","1","","","","","",""
"","do_trial","417","2517935","0.0-392.0-0.0","880","","","","49","1,0,1","6","blank","345","null","0.6664464314471629","0.3550255307009631","0.46778172304111965","1","","","","","",""
"","do_recog","418","2520393","0.0-393.0-0.0","950","","","","55","","","","346","probe-155","","","","","1","[object Object]","127","3","1",""
"","do_trial","419","2525398","0.0-394.0-0.0","1469","","","","50","0,0,0","6","blank","347","null","0.9361608979071364","0.27891305972957425","0.3702096034587292","0","","","","","",""
"","do_recog","420","2527882","0.0-395.0-0.0","977.0000000004657","","","","55","","","","348","probe-185","","","","","1","[object Object]","169","4","1",""
"","do_trial","421","2532518","0.0-396.0-0.0","1100","","","","49","1,1,1","6","blank","349","null","0.9298264323801931","0.3943878584193112","0.3486535549239413","1","","","","","",""
"","do_trial","422","2536941","0.0-397.0-0.0","888","","","","49","1,0,0","6","blank","350","null","0.7428119811708345","0.2388255097397108","0.4967594524644578","1","","","","","",""
"","do_trial","423","2541291","0.0-398.0-0.0","815","","","","49","1,0,0","6","blank","351","null","0.8526679855006198","0.07939607208475424","0.44369384784495647","1","","","","","",""
"","do_trial","424","2545783","0.0-399.0-0.0","957","","","","51","1,0,0","6","blank","352","null","0.7036214395160109","0.178716978390677","0.3429363110659786","0","","","","","",""
"","do_recog","425","2548030","0.0-400.0-0.0","737","","","","55","","","","353","probe-231","","","","","1","[object Object]","49","1","1",""
"","do_trial","426","2553367","0.0-401.0-0.0","1801","","","","49","1,1,0","6","blank","354","null","0.6662467643213777","0.23634447951145718","0.3353724933167135","1","","","","","",""
"","do_trial","427","2557791","0.0-402.0-0.0","890","","","","49","1,1,1","6","blank","355","null","0.8179809610826273","0.25041916914571694","0.42945940731218385","1","","","","","",""
"","do_recog","428","2560235","0.0-403.0-0.0","936","","","","55","","","","356","probe-01","","","","","1","[object Object]","129","3","1",""
"","do_trial","429","2565298","0.0-404.0-0.0","1528","","","","49","1,0,1","6","blank","357","null","0.7055780249464292","0.05450756317841787","0.44902180398232266","1","","","","","",""
"","do_trial","430","2569602","0.0-405.0-0.0","769","","","","51","0,0,0","6","blank","358","null","0.7881509022379463","0.18002298738789033","0.5444600569389975","0","","","","","",""
"","do_trial","431","2574033","0.0-406.0-0.0","897","","","","51","1,0,1","6","blank","359","null","0.8968511510822541","0.16753719424677788","0.5197836516910412","1","","","","","",""
"","do_recog","432","2576779","0.0-407.0-0.0","1238","","","","55","","","","360","probe-123","","","","","1","[object Object]","42","1","1",""
"","do_trial","433","2581495","0.0-408.0-0.0","1181","","","","50","1,0,0","6","blank","361","null","0.8326998526494233","0.11171707243745882","0.4745681154540216","0","","","","","",""
"","do_trial","434","2585704","0.0-409.0-0.0","671","","","","50","1,0,1","6","blank","362","null","0.7900832483681662","0.10037181173794064","0.5193699766934843","0","","","","","",""
"","do_trial","435","2589955","0.0-410.0-0.0","715.9999999995343","","","","50","1,0,0","6","blank","363","null","0.8401922500941079","0.10675692026590977","0.5057547026567946","0","","","","","",""
"","do_trial","436","2594401","0.0-411.0-0.0","910","","","","51","1,0,1","6","blank","364","null","0.7512295497103954","0.12528984798415832","0.39866614634946673","1","","","","","",""
"","do_recog","437","2596880","0.0-412.0-0.0","973","","","","55","","","","365","probe-10","","","","","1","[object Object]","122","3","1",""
"","do_trial","438","2601476","0.0-413.0-0.0","1059","","","","50","1,0,0","6","blank","366","null","0.6290856585498428","0.10005942590762468","0.3821505639695914","0","","","","","",""
"","do_trial","439","2605504","0.0-414.0-0.0","494","","","","50","1,0,1","6","blank","367","null","0.6428338411409772","0.1464564781947751","0.2678572592453212","0","","","","","",""
"","do_trial","440","2609624","0.0-415.0-0.0","583","","","","50","1,0,0","6","blank","368","null","0.7581737203517517","0.13381553173317215","0.3217383130853835","0","","","","","",""
"","do_recog","441","2612416","0.0-416.0-0.0","1285","","","","55","","","","369","probe-67","","","","","1","[object Object]","40","1","1",""
"","do_trial","442","2617188","0.0-417.0-0.0","1235.9999999995343","","","","49","1,0,0","6","blank","370","null","1","0.1407215433942017","0.3255029475319109","1","","","","","",""
"","do_trial","443","2621583","0.0-418.0-0.0","859","","","","50","1,0,1","6","blank","371","null","0.862495222077356","0.21910983736217304","0.3705024521457307","0","","","","","",""
"","do_trial","444","2626082","0.0-419.0-0.0","965","","","","51","1,1,0","6","blank","372","null","0.7931299716853697","0.3932383719613916","0.3391548591176097","0","","","","","",""
"","do_recog","445","2628488","0.0-420.0-0.0","897","","","","55","","","","373","probe-51","","","","","1","[object Object]","166","4","1",""
"","do_trial","446","2633152","0.0-421.0-0.0","1129","","","","51","1,0,0","6","blank","374","null","0.785718068461613","0.19727887162808577","0.30600273172894715","0","","","","","",""
"","do_recog","447","2636543","0.0-422.0-0.0","1882","","","","55","","","","375","probe-137","","","","","1","[object Object]","163","4","1",""
"","do_trial","448","2641014","0.0-423.0-0.0","937","","","","51","1,0,1","6","blank","376","null","0.7745678703724954","0.17791251674219152","0.30179216523178964","1","","","","","",""
"","do_trial","449","2645834","0.0-424.0-0.0","1282","","","","50","1,0,1","6","blank","377","null","0.8582314439695407","0.21865667671875688","0.3978176382807037","0","","","","","",""
"","do_recog","450","2648440","0.0-425.0-0.0","1098","","","","55","","","","378","probe-05","","","","","1","[object Object]","123","3","1",""
"","do_trial","451","2653487","0.0-426.0-0.0","1508","","","","49","0,1,0","6","blank","379","null","0.6458057926376388","0.1325116639719336","0.45037379785503723","0","","","","","",""
"","do_trial","452","2658075","0.0-427.0-0.0","1054","","","","49","1,0,1","6","blank","380","null","0.7117340834595131","0.11629085811588588","0.35394204944476115","1","","","","","",""
"","do_recog","453","2660548","0.0-428.0-0.0","966.0000000004657","","","","55","","","","381","probe-151","","","","","1","[object Object]","89","2","1",""
"","do_trial","454","2665637","0.0-429.0-0.0","1555","","","","50","1,0,1","6","blank","382","null","0.6797555586166611","0.13319375980154258","0.3257210926816787","0","","","","","",""
"","do_recog","455","2668242","0.0-430.0-0.0","1098","","","","56","","","","383","probe-254","","","","","0","[object Object]","null","null","0",""
"","do_trial","456","2673529","0.0-431.0-0.0","1752","","","","49","1,0,0","6","blank","384","null","0.8319669734312268","0.132112965702331","0.49724618172124024","1","","","","","",""
"","do_recog","457","2676254","0.0-432.0-0.0","1219","","","","56","","","","385","probe-249","","","","","0","[object Object]","null","null","0",""
"","do_trial","458","2681242","0.0-433.0-0.0","1452.0000000004657","","","","49","0,0,1","6","blank","386","null","0.5785850145473911","0.19015369018501685","0.5582717776131275","0","","","","","",""
"","do_recog","459","2683897","0.0-434.0-0.0","1149","","","","55","","","","387","probe-102","","","","","1","[object Object]","43","1","1",""
"","do_trial","460","2688910","0.0-435.0-0.0","1478","","","","49","0,1,1","6","blank","388","null","0.5669140893581175","0.10484910891492216","0.6563745123742107","0","","","","","",""
"","do_trial","461","2693464","0.0-436.0-0.0","1018","","","","49","0,0,1","6","blank","389","null","0.5406709682640429","0.10543464646116756","0.681276067875488","0","","","","","",""
"","do_recog","462","2695930","0.0-437.0-0.0","959","","","","56","","","","390","probe-144","","","","","1","[object Object]","200","5","1",""
"","do_trial","463","2700557","0.0-438.0-0.0","1094.0000000004657","","","","50","0,0,1","6","blank","391","null","0.43762639522496766","0.06897451439410113","0.7351056068308032","0","","","","","",""
"","do_recog","464","2702997","0.0-439.0-0.0","933","","","","55","","","","392","probe-141","","","","","1","[object Object]","45","1","1",""
"","do_trial","465","2707441","0.0-440.0-0.0","908.9999999995343","","","","50","0,1,1","6","blank","393","null","0.34453047798326497","0.2463135239200204","0.6478578449810766","1","","","","","",""
"","do_trial","466","2711600","0.0-441.0-0.0","624","","","","50","1,1,1","6","blank","394","null","0.45995847365865294","0.2350878980038932","0.8144937907633232","1","","","","","",""
"","do_trial","467","2715739","0.0-442.0-0.0","603","","","","50","0,1,1","6","blank","395","null","0.5036900288694737","0.2060650837675908","0.8559900258751251","1","","","","","",""
"","do_trial","468","2720077","0.0-443.0-0.0","803","","","","50","1,0,1","6","blank","396","null","0.3524459892226487","0.2356537528297508","0.8548037543997167","0","","","","","",""
"","do_recog","469","2722610","0.0-444.0-0.0","1026","","","","55","","","","397","probe-103","","","","","1","[object Object]","84","2","1",""
"","do_trial","470","2726868","0.0-445.0-0.0","722.0000000004657","","","","49","0,0,1","6","blank","398","null","0.27055441080754417","0.367976119432371","0.7371950573849023","0","","","","","",""
"","do_recog","471","2729659","0.0-446.0-0.0","1285","","","","55","","","","399","probe-33","","","","","1","[object Object]","120","3","1",""
"","do_trial","472","2734696","0.0-447.0-0.0","1500","","","","51","0,1,1","6","blank","400","null","0.3150023011949139","0.16880166833968663","0.9030591133486517","1","","","","","",""
"","do_trial","473","2739403","0.0-448.0-0.0","1170","","","","51","0,0,1","6","blank","401","null","0.29174388031582493","0.17565959900637984","0.8540670051810431","1","","","","","",""
"","do_trial","474","2743814","0.0-449.0-0.0","875","","","","51","0,0,1","6","blank","402","null","0.2866138525167006","0.23810141656091463","0.8584624228763791","1","","","","","",""
"","do_recog","475","2746674","0.0-450.0-0.0","1354","","","","55","","","","403","probe-189","","","","","1","[object Object]","160","4","1",""
"","do_trial","476","2751384","0.0-451.0-0.0","1175","","","","51","0,0,1","6","blank","404","null","0.3585973637735071","0.13985952177155575","0.8837215661817639","1","","","","","",""
"","do_recog","477","2753885","0.0-452.0-0.0","993","","","","55","","","","405","probe-97","","","","","1","[object Object]","85","2","1",""
"","do_trial","478","2758621","0.0-453.0-0.0","1202","","","","51","0,1,1","6","blank","406","null","0.39288980606581836","0.09666357908517598","0.8629677628177459","1","","","","","",""
"","do_recog","479","2761035","0.0-454.0-0.0","905.9999999995343","","","","55","","","","407","probe-173","","","","","1","[object Object]","86","2","1",""
"","do_trial","480","2766010","0.0-455.0-0.0","1440","","","","50","0,0,1","6","blank","408","null","0.3064425063389237","0.32209142758670445","0.8070121326020759","0","","","","","",""
"","do_recog","481","2768944","0.0-456.0-0.0","1426","","","","55","","","","409","probe-84","","","","","1","[object Object]","206","5","1",""
"","do_trial","482","2773792","0.0-457.0-0.0","1313","","","","51","0,0,1","6","blank","410","null","0.3410998403210331","0.08426917043860142","0.8944354378377097","1","","","","","",""
"","do_recog","483","2776238","0.0-458.0-0.0","938","","","","55","","","","411","probe-253","","","","","0","[object Object]","null","null","0",""
"","do_trial","484","2781226","0.0-459.0-0.0","1450.9999999995343","","","","50","1,0,1","6","blank","412","null","0.25937382947117776","0.12009432652699226","0.8938161930473784","0","","","","","",""
"","do_recog","485","2784512","0.0-460.0-0.0","1779","","","","54","","","","413","probe-256","","","","","0","[object Object]","null","null","1",""
"","do_trial","486","2789018","0.0-461.0-0.0","971","","","","50","0,0,1","6","blank","414","null","0.418624520649928","0.1067575070211637","0.8743089030599259","0","","","","","",""
"","do_recog","487","2791980","0.0-462.0-0.0","1453","","","","55","","","","415","probe-255","","","","","0","[object Object]","null","null","0",""
"","do_trial","488","2796511","0.0-463.0-0.0","994.9999999995343","","","","50","0,0,1","6","blank","416","null","0.41454216409757183","0.1382678298869436","0.7921875822725148","0","","","","","",""
"","do_recog","489","2798966","0.0-464.0-0.0","949","","","","55","","","","417","probe-246","","","","","0","[object Object]","null","null","0",""
"","do_trial","490","2803663","0.0-465.0-0.0","1162","","","","50","1,0,1","6","blank","418","null","0.3964378297875848","0.1489055468822842","0.6638240065112091","0","","","","","",""
"","do_recog","491","2806086","0.0-466.0-0.0","915","","","","55","","","","419","probe-251","","","","","0","[object Object]","null","null","0",""
"","do_pick_best_pirate","492","2809030","0.0-467.0-0.0","1936","","","","50","","","","","","","","","","","","","","",""
"","do_pick_best_pirate","493","2812611","0.0-468.0-0.0","2575.0000000004657","","","","49","","","","","","","","","","","","","","",""
"","do_pick_best_pirate","494","2815069","0.0-469.0-0.0","1450","","","","49","","","","","","","","","","","","","","",""
"","do_pick_best_pirate","495","2817491","0.0-470.0-0.0","1415","","","","49","","","","","","","","","","","","","","",""
"","do_pick_best_pirate","496","2819945","0.0-471.0-0.0","1447","","","","51","","","","","","","","","","","","","","",""
"","do_pick_best_pirate","497","2823966","0.0-472.0-0.0","3015.0000000004657","","","","49","","","","","","","","","","","","","","",""
"","html-keyboard-response","498","2829569","0.0-473.0-0.0","5600","<div class='center'>You are all done with the experiment! You made $15 plus $3 in bonus payment!! Thank you for participating. You will recieve your payment within 3 days<p><b>[Press the space bar to end the experiment]</b></p></div>","32","","","","","","","","","","","","","","","","",""
