"success","trial_type","trial_index","time_elapsed","internal_node_id","rt","stimulus","key_press","subject_id","response","choice_outcomes","context_n","context_img_id","trial_n","probe_img_id","pR_red","pR_white","pR_black","outcome","is_valid","image_to_show","probed_trial","probed_context","correct","context_id"
"true","fullscreen","0","2232","0.0-0.0","","","","","","","","","","","","","","","","","","","",""
"","pavlovia","1","2237","0.0-1.0","","","","","","","","","","","","","","","","","","","",""
"","html-keyboard-response","2","8606","0.0-2.0","6367.0999999940395","<div class='center'><p>Welcome! This experiment will last ~1 hour. In this experiment, you are the head captain of a pirate ship traveling around the world to different places. You will complete several different tasks during this experiment. Here is an overview of these tasks:</p><br><p>1. Tutorial and quiz</p><p>2. Pick a pirate game in 6 different places</p><p>3. Pick a pirate game and memory game</p><p>4. Final questions and payment</p><br><p>If you complete the entire experiment, you will receive $15 and a possible bonus payment.</p><p><b>[Press the space bar to begin the tutorial]</b></p></div>","32","6124232e0de36853de1edfa5","","","","","","","","","","","","","","","",""
"","html-keyboard-response","3","15711","0.0-3.0","7103.5","<div class='center'><p>You are the head captain of a pirate ship.</p><p> Your pirates rob other ships as they leave the marketplace port.</p> These ships have just sold all their goods at the marketplace, so they have lots and lots of gold on them.</p><p><img src='run_exp/static/images/ship_center.png' height='400'></p><p><b>[Press the space bar to continue]</b></p></div>","32","","","","","","","","","","","","","","","","",""
"","html-keyboard-response","4","22531","0.0-4.0","6818.9000000059605","<div class='center'><p>As the head captain, you do not have to rob any ships yourself.</p><p>You get to choose which pirate you want to rob the next ship. </p><p>If they are successful at robbing the ship, then you will get gold coins.</p><p> If they are not successful, then you will get no gold coins.</p><p> The more coins you collect, the more bonus money you will win. So, choose your pirate wisely.</p><p><img src='run_exp/static/images/goal.png' height='400'></p><p><b>[Press the space bar to continue]</b></p><div>","32","","","","","","","","","","","","","","","","",""
"","html-keyboard-response","5","31320","0.0-5.0","8787.60000000894","<div class='center'><p>Even the most skilled pirate will not be able to rob EVERY ship.</p><p> Some ships will have very strong defenses against attacks.</p><p> For example, blue beard, here,  is very good at robbing ships.</p><p> You can press the <b>‘1’</b> button on the keyboard to choose him.</p><p> Try choosing him 10 times to see how often he is successful at robbing ships. </p><p><img src='run_exp/static/images/blue.png' height='500'></p></div>","49","","","","","","","","","","","","","","","","",""
"","html-keyboard-response","6","32823","0.0-6.0","null","<br><br><br><br><p><img src='run_exp/static/images/blue_win.png' height='500'></p>","null","","","","","","","","","","","","","","","","",""
"","html-keyboard-response","7","34470","0.0-7.0","1645.5999999940395","<br><br><br><br><p><img src='run_exp/static/images/blue.png' height='500'></p>","49","","","","","","","","","","","","","","","","",""
"","html-keyboard-response","8","35972","0.0-8.0","null","<br><br><br><br><p><img src='run_exp/static/images/blue_win.png' height='500'></p>","null","","","","","","","","","","","","","","","","",""
"","html-keyboard-response","9","37730","0.0-9.0","1756.2000000029802","<br><br><br><br><p><img src='run_exp/static/images/blue.png' height='500'></p>","49","","","","","","","","","","","","","","","","",""
"","html-keyboard-response","10","39232","0.0-10.0","null","<br><br><br><br><p><img src='run_exp/static/images/blue_win.png' height='500'></p>","null","","","","","","","","","","","","","","","","",""
"","html-keyboard-response","11","39805","0.0-11.0","571.4000000059605","<br><br><br><br><p><img src='run_exp/static/images/blue.png' height='500'></p>","49","","","","","","","","","","","","","","","","",""
"","html-keyboard-response","12","41308","0.0-12.0","null","<br><br><br><br><p><img src='run_exp/static/images/blue_no_win.png' height='500'></p>","null","","","","","","","","","","","","","","","","",""
"","html-keyboard-response","13","41731","0.0-13.0","422.20000000298023","<br><br><br><br><p><img src='run_exp/static/images/blue.png' height='500'></p>","49","","","","","","","","","","","","","","","","",""
"","html-keyboard-response","14","43233","0.0-14.0","null","<br><br><br><br><p><img src='run_exp/static/images/blue_win.png' height='500'></p>","null","","","","","","","","","","","","","","","","",""
"","html-keyboard-response","15","43671","0.0-15.0","435.79999999701977","<br><br><br><br><p><img src='run_exp/static/images/blue.png' height='500'></p>","49","","","","","","","","","","","","","","","","",""
"","html-keyboard-response","16","45172","0.0-16.0","null","<br><br><br><br><p><img src='run_exp/static/images/blue_win.png' height='500'></p>","null","","","","","","","","","","","","","","","","",""
"","html-keyboard-response","17","45452","0.0-17.0","278.09999999403954","<br><br><br><br><p><img src='run_exp/static/images/blue.png' height='500'></p>","49","","","","","","","","","","","","","","","","",""
"","html-keyboard-response","18","46954","0.0-18.0","null","<br><br><br><br><p><img src='run_exp/static/images/blue_win.png' height='500'></p>","null","","","","","","","","","","","","","","","","",""
"","html-keyboard-response","19","47210","0.0-19.0","254.90000000596046","<br><br><br><br><p><img src='run_exp/static/images/blue.png' height='500'></p>","49","","","","","","","","","","","","","","","","",""
"","html-keyboard-response","20","48712","0.0-20.0","null","<br><br><br><br><p><img src='run_exp/static/images/blue_no_win.png' height='500'></p>","null","","","","","","","","","","","","","","","","",""
"","html-keyboard-response","21","49009","0.0-21.0","295.5","<br><br><br><br><p><img src='run_exp/static/images/blue.png' height='500'></p>","49","","","","","","","","","","","","","","","","",""
"","html-keyboard-response","22","50511","0.0-22.0","null","<br><br><br><br><p><img src='run_exp/static/images/blue_win.png' height='500'></p>","null","","","","","","","","","","","","","","","","",""
"","html-keyboard-response","23","50773","0.0-23.0","261.90000000596046","<br><br><br><br><p><img src='run_exp/static/images/blue.png' height='500'></p>","49","","","","","","","","","","","","","","","","",""
"","html-keyboard-response","24","52277","0.0-24.0","null","<br><br><br><br><p><img src='run_exp/static/images/blue_win.png' height='500'></p>","null","","","","","","","","","","","","","","","","",""
"","html-keyboard-response","25","55081","0.0-25.0","2803.7999999970198","<div class='center'><p> See, he was successful at robbing the ships most of the time but not every time. </p><p><b>[Press the space bar to continue]</b></p></div>","32","","","","","","","","","","","","","","","","",""
"","html-keyboard-response","26","59308","0.0-26.0","4224.4000000059605","<div class='center'><p>In the game, you will get to choose which of three pirates you want to rob the next ship. <p>Press the <b>‘1’</b> button on your keyboard to pick the pirate with the red beard.</p><p> Press <b>‘2’</b> to pick the pirate with the white beard.</p><p> Press <b>‘3’</b> to pick the pirate with the black beard.</p><p>Try picking a pirate now!</p><p><img src='run_exp/static/images/all_pirates.png' height='500'></p></div>","51","","","","","","","","","","","","","","","","",""
"","html-keyboard-response","27","60668","0.0-27.0-0.0","1355.5999999940395","<div class='center'><p>This pirate was successful at robbing the ship!</p><p><img src='run_exp/static/images/black_win.png' height='500'></p><p><b>[Press the space bar to continue]</b></p></div>","32","","","","","","","","","","","","","","","","",""
"","html-keyboard-response","28","61451","0.0-27.0-1.0","782.2999999970198","<div class='center'><p>Now try choosing another</p><p><img src='run_exp/static/images/all_pirates.png' height='500'></p></div>","51","","","","","","","","","","","","","","","","",""
"","html-keyboard-response","29","62619","0.0-28.0-0.0","1166.5","<div class='center'><p>This pirate was not successful at robbing the ship!</p><p><img src='run_exp/static/images/black_no_win.png' height='500'></p><p><b>[Press the space bar to continue]</b></p></div>","32","","","","","","","","","","","","","","","","",""
"","html-keyboard-response","30","67329","0.0-29.0-0.0","4708.4000000059605","<div class='center'><p>You’ll stop at these 6 places on your journey.</p><p><img src='run_exp/static/images/all_contexts.png' height='500'></p><p><b>[Press the space bar to continue]</b></p></div>","32","","","","","","","","","","","","","","","","",""
"","html-keyboard-response","31","70851","0.0-29.0-1.0","3521.5999999940395","<div class='center'><p>How good a pirate is at robbing ships will depend on the current place.</p><p> Some pirates will have been to the place before, and will have more experience robbing ships there.</p><p>So, they will be more successful at stealing gold and bringing it back to you.</p><p><b>[Press the space bar to continue]</b></p></div>","32","","","","","","","","","","","","","","","","",""
"","html-keyboard-response","32","81515","0.0-29.0-2.0","10662.90000000596","<div class='center'><p>How successful a pirate is at robbing ships can also change in a place.<p> Ships may hear about the pirates coming and will improve their defenses. This may make it more difficult to rob them.</p><p> Ships may also grow lazy and lower their defenses. This may make it easier to rob them.</p><br><p>Things are always changing on the high seas! So, try your best to pay attention!</p><p><img src='run_exp/static/images/contingency.png' height='500'></p><p><b>[Press the space bar to continue]</b></p></div>","32","","","","","","","","","","","","","","","","",""
"","html-keyboard-response","33","95330","0.0-29.0-3.0","13814.39999999106","<div class='center'><p>Once you choose a pirate to rob a ship, you’ll be shown the ship they are robbing.</p><p>The ship will have a picture of the item they sold at the marketplace.</p><p> Try your best to remember the ship and where you saw the ship.</p><p> You’ll have to remember this for later, and remembering this correctly will help you win more bonus money!</p><p>You can remember the ship by remembering the item they sold at the marketplace</p><p>A helpful strategy is to try to come up with a story of the chosen pirate and ship’s item interacting with the scene.</p><p> For example, a ship might have sold travel mugs and you could imagine red beard walking through the city with a travel mug. </p><p>Or imagine an apple falling from a tree into white beard's hands in the forest.</p><p><img src='run_exp/static/images/example_probe.png' height='500'></p><p><b>[Press the space bar to continue]</b></p></div>","32","","","","","","","","","","","","","","","","",""
"","html-keyboard-response","34","101094","0.0-29.0-4.0","5762.79999999702","<div class='center'><p>If you don’t make your choice fast enough, you’ll have to wait a few seconds before you can make another one. </p><p>You can’t win more gold. You just have to sit and wait.</p><p><img src='run_exp/static/images/hurry_up.png' height='500'></p><p><b>[Press the space bar to continue]</b></p></div>","32","","","","","","","","","","","","","","","","",""
"","html-keyboard-response","35","117058","0.0-29.0-5.0","15963.70000000298","<div class='center'><p>Again, you have two important things to do: </p><b><p> 1. Pick the pirate who you think will be most successful at robbing the next ship.</p></b><b><p> 2. Remember where a pirate robbed a ship.</p> </b><p>Both are important in determining how much bonus money you’ll win.</p><br><p>Let’s try a practice game. The game will start by showing you the pirates. First pick a pirate using the <b> 1, 2, 3 </b> buttons on your keyboard. When you are shown a ship, try to remember the place you’re in by making up a story.</p><p> You only have 3 seconds to pick a pirate, so please make a choice quickly! If you are too slow, you’ll have to wait a bit during the time out.</p><p> Don’t feel rushed, but please do try to make a choice every time.</p><p>How good a pirate is at robbing a ship will change depending on the place they are in and how good the defenses are of the ship.</p> <p>This is just a practice game, so you’re not playing for money. </p><p>You’ll receive a bag which may or may not contain gold coins.</p><p> In the real game, though, you’ll be able to see whether or not you received the gold coins.</p><p> Good luck, remember press <b>'1'</b> to choose red beard, <b>'2'</b> to choose white beard, and <b>'3'</b> to choose black beard</p><p><b>[Press the space bar to begin the practice game]</b></p></div>","32","","","","","","","","","","","","","","","","",""
"","do_trial_prac","36","122602","0.0-29.0-6.0","1028.5999999940395","","","","51","","","","","","","","","","","","","","",""
"","do_trial_prac","37","129068","0.0-29.0-7.0","1958.2999999970198","","","","50","","","","","","","","","","","","","","",""
"","do_trial_prac","38","134148","0.0-29.0-8.0","571.2999999970198","","","","49","","","","","","","","","","","","","","",""
"","do_trial_prac","39","139559","0.0-29.0-9.0","903.3999999910593","","","","51","","","","","","","","","","","","","","",""
"","do_trial_prac","40","144600","0.0-29.0-10.0","529.3999999910593","","","","51","","","","","","","","","","","","","","",""
"","html-keyboard-response","41","147861","0.0-29.0-11.0","3261.0999999940395","<div class='center'><p>Great job on the practice game!</p><p> Now, you will be asked you some true or false questions to make sure you really understand the rules of the game.</p><p> Press <b>'1'</b> on the keyboard for true and press <b>'2'</b> for false.</p><p><b>[Press the space bar to begin the quiz]</b></p></div>","32","","","","","","","","","","","","","","","","",""
"","html-keyboard-response","42","150494","0.0-29.0-12.0","2630.7999999970198","<div class='center'><p>You win bonus money by making choices as fast as possible.</p><p>Press 1 for true and press  2 for false.</p></div>","50","","","","","","","","","","","","","","","","",""
"","html-keyboard-response","43","151351","0.0-30.0-0.0","854.8000000119209","<br><br><br><br><p>That's correct!</p> <p><b>[press the space bar to continue with the quiz]</b></p>","32","","","","","","","","","","","","","","","","",""
"","html-keyboard-response","44","155591","0.0-30.0-1.0","4239.300000011921","<div class='center'><p>You press the <b>‘3’</b> button on the keyboard to choose the red bearded pirate? </p><p>Press 1 for true and press  2 for false.</p></div>","50","","","","","","","","","","","","","","","","",""
"","html-keyboard-response","45","156290","0.0-31.0-0.0","697.7000000029802","<br><br><br><br><p>That's correct!</p> <p><b>[press the space bar to continue with the quiz]</b></p>","32","","","","","","","","","","","","","","","","",""
"","html-keyboard-response","46","159342","0.0-31.0-1.0","3050.8999999910593","<div class='center'><p>A pirate will always be equally successful at robbing ships in each place</p><p>Press 1 for true and press  2 for false.</p></div>","50","","","","","","","","","","","","","","","","",""
"","html-keyboard-response","47","159801","0.0-32.0-0.0","458.19999998807907","<br><br><br><br><p>That's correct!</p> <p><b>[press the space bar to continue with the quiz]</b></p>","32","","","","","","","","","","","","","","","","",""
"","html-keyboard-response","48","161384","0.0-32.0-1.0","1582.5","<div class='center'><p>You should remember the place where a pirate robbed a ship.</p><p>Press 1 for true and press  2 for false.</p></div>","49","","","","","","","","","","","","","","","","",""
"","html-keyboard-response","49","161856","0.0-33.0-0.0","455","<br><br><br><br><p>That's correct!</p> <p><b>[press the space bar to continue with the quiz]</b></p>","32","","","","","","","","","","","","","","","","",""
"","html-keyboard-response","50","162845","0.0-34.0-0.0","987.3999999910593","<br><br><br><br><p>Good job! You’re now ready to move on to the real game!</p> <p><br>[press the space bar to begin!]</br></p>","32","","","","","","","","","","","","","","","","",""
"","do_welcome","51","164355","0.0-35.0-0.0","null","","","","null","","","","","","","","","","","","","","",""
"","do_trial","52","171317","0.0-36.0-0.0","1395.0999999940395","","","","50","1,1,0","0","countryside","0","probe-31","1","0.4","0.1","1","","","","","",""
"","do_trial","53","177631","0.0-37.0-0.0","750.3999999910593","","","","50","1,0,1","0","countryside","1","probe-227","1","0.5046607811068585","0.22442046629446938","0","","","","","",""
"","do_trial","54","183884","0.0-38.0-0.0","690.2999999970198","","","","51","1,0,1","0","countryside","2","probe-45","1","0.45168970253553936","0.28239557338867427","1","","","","","",""
"","do_trial","55","190383","0.0-39.0-0.0","937","","","","49","1,0,0","0","countryside","3","probe-82","1","0.44429693112497476","0.23063584349006858","1","","","","","",""
"","do_trial","56","196470","0.0-40.0-0.0","524.7000000029802","","","","49","1,0,0","0","countryside","4","probe-24","0.9291803883553149","0.4631848398281034","0.1391703943735723","1","","","","","",""
"","do_trial","57","202404","0.0-41.0-0.0","369.09999999403954","","","","49","1,0,0","0","countryside","5","probe-37","0.9295316924625879","0.4159609958944014","0.1310480499947227","1","","","","","",""
"","do_trial","58","208456","0.0-42.0-0.0","487.20000000298023","","","","49","0,1,0","0","countryside","6","probe-236","0.8489928950324562","0.4116206106981446","0.248259962261742","0","","","","","",""
"","do_trial","59","215638","0.0-43.0-0.0","1618.800000011921","","","","51","1,1,1","0","countryside","7","probe-231","0.7178195832146291","0.3728784443289922","0.1742220019694785","1","","","","","",""
"","do_trial","60","221651","0.0-44.0-0.0","447.5","","","","51","1,1,0","0","countryside","8","probe-202","0.7222702064951766","0.5631433779494361","0.11949458774677847","0","","","","","",""
"","do_trial","61","227793","0.0-45.0-0.0","577.1999999880791","","","","50","1,1,0","0","countryside","9","probe-229","0.7979055689558249","0.47641603281769684","0.08962886263381442","1","","","","","",""
"","do_trial","62","233737","0.0-46.0-0.0","378","","","","50","0,1,0","0","countryside","10","probe-27","0.5807371960826124","0.3790942652493126","0.33422612409381564","1","","","","","",""
"","do_trial","63","239593","0.0-47.0-0.0","292.80000001192093","","","","49","1,0,1","0","countryside","11","probe-89","0.580038003752412","0.23096229474316965","0.4156698909245792","1","","","","","",""
"","do_trial","64","245570","0.0-48.0-0.0","413.5","","","","49","1,0,1","0","countryside","12","probe-220","0.5933684638629102","0.22549946378300292","0.6542086911873556","1","","","","","",""
"","do_trial","65","251767","0.0-49.0-0.0","631.3000000119209","","","","50","1,0,1","0","countryside","13","probe-205","0.5727719542242142","0.12821502087391967","0.8916775019438816","0","","","","","",""
"","do_trial","66","257668","0.0-50.0-0.0","331.59999999403954","","","","49","1,0,0","0","countryside","14","probe-209","0.43484988159047505","0.20765344872076896","0.7315257200185856","1","","","","","",""
"","do_trial","67","264312","0.0-51.0-0.0","1075.8999999910593","","","","51","1,0,0","0","countryside","15","probe-79","0.32294947227451026","0.09738226099898452","0.709547056497298","0","","","","","",""
"","do_trial","68","270162","0.0-52.0-0.0","286.09999999403954","","","","49","0,0,0","0","countryside","16","probe-239","0.34943883414458266","0.10614604468446544","0.6445202385508629","0","","","","","",""
"","do_trial","69","275996","0.0-53.0-0.0","270.40000000596046","","","","50","0,0,1","0","countryside","17","probe-183","0.28201551378721185","0.10284262643239693","0.7233100243105207","0","","","","","",""
"","do_trial","70","281923","0.0-54.0-0.0","361.90000000596046","","","","51","1,0,1","0","countryside","18","probe-41","0.3422920598979273","0.11433309343989331","0.7302091123407849","1","","","","","",""
"","do_trial","71","287738","0.0-55.0-0.0","245.90000000596046","","","","49","1,0,1","0","countryside","19","probe-12","0.4176773378432334","0.0646243919010739","0.7040712453335993","1","","","","","",""
"","do_trial","72","293609","0.0-56.0-0.0","306.90000000596046","","","","49","0,0,1","0","countryside","20","probe-234","0.468899637497548","0.052301828029153105","0.8799145392601341","0","","","","","",""
"","do_trial","73","299740","0.0-57.0-0.0","567.4000000059605","","","","50","1,0,1","0","countryside","21","probe-18","0.41978984568538025","0.18835747031231415","0.9090194066171337","0","","","","","",""
"","do_trial","74","305574","0.0-58.0-0.0","270.40000000596046","","","","51","0,0,1","0","countryside","22","probe-66","0.4500513518737732","0.18610457843725992","0.9469351066679839","1","","","","","",""
"","do_trial","75","311939","0.0-59.0-0.0","795.5999999940395","","","","49","1,0,1","0","countryside","23","probe-22","0.35937667412968616","0.15256156410833438","0.9195631620036271","1","","","","","",""
"","do_trial","76","317849","0.0-60.0-0.0","353.20000000298023","","","","49","1,0,1","0","countryside","24","probe-92","0.28663395723717267","0.051837492870839254","0.8537320389086671","1","","","","","",""
"","do_trial","77","324076","0.0-61.0-0.0","661.5","","","","49","1,0,1","0","countryside","25","probe-130","0.30842967849964364","0.16430140063089188","0.8397000541745833","1","","","","","",""
"","do_trial","78","329954","0.0-62.0-0.0","313.30000001192093","","","","49","1,0,0","0","countryside","26","probe-17","0.44267138675866124","0.11168209449271327","0.7408192730894997","1","","","","","",""
"","do_trial","79","335807","0.0-63.0-0.0","284.5","","","","49","0,1,1","0","countryside","27","probe-116","0.5019687648645794","0.22355657208864402","0.6964820474243817","0","","","","","",""
"","do_trial","80","341674","0.0-64.0-0.0","303","","","","49","0,0,0","0","countryside","28","probe-112","0.54139438233172","0.22404499144742954","0.7079689470997387","0","","","","","",""
"","do_trial","81","347523","0.0-65.0-0.0","284.8999999910593","","","","50","1,0,1","0","countryside","29","probe-107","0.4681786541715524","0.07298054306003715","0.8338584312970683","0","","","","","",""
"","do_trial","82","353235","0.0-66.0-0.0","147","","","","51","0,0,0","0","countryside","30","probe-83","0.49118090643221707","0.06651338124140688","0.8095913994878018","0","","","","","",""
"","do_trial","83","359125","0.0-67.0-0.0","327.40000000596046","","","","49","0,0,1","0","countryside","31","probe-103","0.5072386500443182","0.07658081957021733","0.7131622128619306","0","","","","","",""
"","do_trial","84","364983","0.0-68.0-0.0","297.20000000298023","","","","49","1,0,0","0","countryside","32","probe-117","0.5250460199637526","0.13739053870408507","0.6987540294389315","1","","","","","",""
"","do_trial","85","371112","0.0-69.0-0.0","566.7999999970198","","","","49","0,0,1","0","countryside","33","probe-217","0.4433705418053635","0.08060959410709885","0.6716820999617051","0","","","","","",""
"","do_trial","86","376980","0.0-70.0-0.0","305.29999999701977","","","","50","1,0,1","0","countryside","34","probe-182","0.37696853377795003","0.09631961430343433","0.8562075467630887","0","","","","","",""
"","do_trial","87","383063","0.0-71.0-0.0","520.5999999940395","","","","49","1,0,1","0","countryside","35","probe-57","0.3879107927639289","0.06614936067789598","0.8251141073198263","1","","","","","",""
"","do_trial","88","388897","0.0-72.0-0.0","271.59999999403954","","","","49","0,0,1","0","countryside","36","probe-77","0.3809719381493827","0.1118739631130957","0.9129712526377687","0","","","","","",""
"","do_trial","89","394772","0.0-73.0-0.0","314","","","","51","0,1,1","0","countryside","37","probe-186","0.39018800911223883","0.0829174974966188","0.8364339422742729","1","","","","","",""
"","do_trial","90","400589","0.0-74.0-0.0","255.40000000596046","","","","51","0,0,1","0","countryside","38","probe-20","0.39043242919044013","0.08243831401052201","0.7753565705024273","1","","","","","",""
"","do_trial","91","406474","0.0-75.0-0.0","322.6000000089407","","","","51","0,0,0","0","countryside","39","probe-230","0.21014113198222475","0.09737076298623702","0.7524595832003744","0","","","","","",""
"","do_bye","92","407981","0.0-76.0-0.0","null","","","","null","","","","","","","","","","","","","","",""
"","do_travel","93","414431","0.0-77.0-0.0","null","","","","null","","","","","","","","","","","","","","",""
"","do_welcome","94","416750","0.0-77.0-1.0","null","","","","null","","","","","","","","","","","","","","",""
"","do_trial","95","424099","0.0-78.0-0.0","1779.7999999970198","","","","50","0,0,1","1","highway","40","probe-167","0.17046659376577747","0.1766744784571999","1","0","","","","","",""
"","do_trial","96","430006","0.0-79.0-0.0","342.40000000596046","","","","49","0,1,1","1","highway","41","probe-156","0.06362865468635434","0.1893880987412233","1","0","","","","","",""
"","do_trial","97","435936","0.0-80.0-0.0","391.29999999701977","","","","51","0,0,1","1","highway","42","probe-173","0.25539416348759575","0.13545382091577066","1","1","","","","","",""
"","do_trial","98","442059","0.0-81.0-0.0","560.0999999940395","","","","51","0,0,1","1","highway","43","probe-196","0.3054478883672638","0.06627859039057622","1","1","","","","","",""
"","do_trial","99","448218","0.0-82.0-0.0","596.7999999970198","","","","51","0,0,1","1","highway","44","probe-40","0.41744137648123697","0.18628279620695154","0.8055151299033293","1","","","","","",""
"","do_trial","100","454113","0.0-83.0-0.0","333.8999999910593","","","","51","0,0,1","1","highway","45","probe-132","0.5033198890703716","0.059160957249397426","0.848125900603063","1","","","","","",""
"","do_trial","101","460041","0.0-84.0-0.0","365.90000000596046","","","","51","0,0,1","1","highway","46","probe-125","0.6425941909675891","0.06098107479732494","0.8022274764393104","1","","","","","",""
"","do_trial","102","467101","0.0-85.0-0.0","1496.0999999940395","","","","51","1,0,1","1","highway","47","probe-159","0.6376394506693558","0.08311469048773958","0.7241590761198391","1","","","","","",""
"","do_trial","103","473241","0.0-86.0-0.0","579.8000000119209","","","","51","0,0,1","1","highway","48","probe-232","0.5538618151386548","0.07703612176189101","0.6144955369425074","1","","","","","",""
"","do_trial","104","479121","0.0-87.0-0.0","317.3999999910593","","","","51","0,0,1","1","highway","49","probe-115","0.4459383399489895","0.0784881417472775","0.6469907668029989","1","","","","","",""
"","do_trial","105","484982","0.0-88.0-0.0","300.09999999403954","","","","51","0,0,0","1","highway","50","probe-158","0.3625258355999161","0.32676072396506894","0.37165968307595315","0","","","","","",""
"","do_trial","106","490754","0.0-89.0-0.0","209.3999999910593","","","","51","1,1,0","1","highway","51","probe-70","0.47383225093011405","0.487134231989865","0.2549670366383973","0","","","","","",""
"","do_trial","107","496640","0.0-90.0-0.0","324.19999998807907","","","","49","1,1,1","1","highway","52","probe-160","0.5151907872145243","0.7128818950680861","0.2192531091346938","1","","","","","",""
"","do_trial","108","502542","0.0-91.0-0.0","340.20000000298023","","","","49","1,0,0","1","highway","53","probe-122","0.5343459989232935","0.6806598610171318","0.2048919032891201","1","","","","","",""
"","do_trial","109","508668","0.0-92.0-0.0","560.2999999970198","","","","49","1,0,1","1","highway","54","probe-181","0.3256310326314503","0.7309636048150714","0.2380117857557063","1","","","","","",""
"","do_trial","110","514468","0.0-93.0-0.0","238.20000000298023","","","","49","0,1,0","1","highway","55","probe-221","0.2526732364376068","0.8780046689173715","0.2225733137649062","0","","","","","",""
"","do_trial","111","520382","0.0-94.0-0.0","348.5","","","","49","0,1,1","1","highway","56","probe-218","0.3309816050028663","0.8799111652457462","0.3138355797063597","0","","","","","",""
"","do_trial","112","526357","0.0-95.0-0.0","441.90000000596046","","","","51","1,1,0","1","highway","57","probe-51","0.26800832563989896","0.8920923551374541","0.23883307853212962","0","","","","","",""
"","do_trial","113","532991","0.0-96.0-0.0","1071.800000011921","","","","51","0,1,0","1","highway","58","probe-52","0.3255765200343765","0.7594172428773529","0.10218394427465859","0","","","","","",""
"","do_trial","114","538809","0.0-97.0-0.0","251.29999999701977","","","","50","1,0,0","1","highway","59","probe-168","0.28685031963948654","0.7105487398226107","0.07631693239846288","0","","","","","",""
"","do_trial","115","544684","0.0-98.0-0.0","313.90000000596046","","","","51","0,0,0","1","highway","60","probe-73","0.2793466911556925","0.7450272677018954","0.17957124199246915","0","","","","","",""
"","do_trial","116","550449","0.0-99.0-0.0","184.29999999701977","","","","49","1,0,0","1","highway","61","probe-222","0.36497067149434825","0.8947766648387024","0.17919134688347557","1","","","","","",""
"","do_trial","117","556084","0.0-100.0-0.0","74","","","","49","0,1,0","1","highway","62","probe-210","0.36757355835339295","0.8295618294260322","0.18207039478573883","0","","","","","",""
"","do_trial","118","561964","0.0-101.0-0.0","318.90000000596046","","","","51","1,1,0","1","highway","63","probe-188","0.401559409605674","0.9165473910994573","0.16713901025836786","0","","","","","",""
"","do_trial","119","567876","0.0-102.0-0.0","351","","","","51","1,1,0","1","highway","64","probe-105","0.35614767505603384","0.897917851835309","0.1350217252949825","0","","","","","",""
"","do_trial","120","573457","0.0-103.0-0.0","17.69999998807907","","","","51","0,1,0","1","highway","65","probe-74","0.22594844489907837","0.740985983930158","0.11903220718433702","0","","","","","",""
"","do_trial","121","579149","0.0-104.0-0.0","126","","","","50","0,1,0","1","highway","66","probe-15","0.43372115455098986","0.8391668769693353","0.061699965671715325","1","","","","","",""
"","do_trial","122","584903","0.0-105.0-0.0","191.40000000596046","","","","50","1,0,0","1","highway","67","probe-33","0.5351172257465087","0.8812159016151404","0.0938952342634783","0","","","","","",""
"","do_trial","123","590617","0.0-106.0-0.0","149.8999999910593","","","","49","0,1,0","1","highway","68","probe-76","0.452307270804032","0.9390866504752681","0.198311447536112","0","","","","","",""
"","do_trial","124","596183","0.0-107.0-0.0","0.19999998807907104","","","","50","0,1,0","1","highway","69","probe-07","0.4696966259299837","0.9142615834461068","0.09134034265708142","1","","","","","",""
"","do_trial","125","601746","0.0-108.0-0.0","0.20000000298023224","","","","50","0,1,0","1","highway","70","probe-03","0.5160561636093772","0.8250790155411282","0.11045771690914706","1","","","","","",""
"","do_trial","126","607410","0.0-109.0-0.0","100.5","","","","50","0,1,1","1","highway","71","probe-23","0.34208167351878205","0.7665464115472884","0.0797896882271347","1","","","","","",""
"","do_trial","127","613007","0.0-110.0-0.0","34.5","","","","50","1,1,0","1","highway","72","probe-187","0.3754217012657119","0.8514160938156292","0.12078267947700468","1","","","","","",""
"","do_trial","128","618730","0.0-111.0-0.0","159.40000000596046","","","","50","0,0,0","1","highway","73","probe-106","0.339719890085874","0.685762265397718","0.12616371342311647","0","","","","","",""
"","do_trial","129","624598","0.0-112.0-0.0","305.5","","","","50","1,1,0","1","highway","74","probe-161","0.44624935548828404","0.6658333955131408","0.11533685003854659","1","","","","","",""
"","do_trial","130","630328","0.0-113.0-0.0","163","","","","51","1,1,0","1","highway","75","probe-39","0.36471935138825906","0.6327200547554288","0.1010612159511591","0","","","","","",""
"","do_trial","131","635891","0.0-114.0-0.0","0.20000000298023224","","","","50","0,1,0","1","highway","76","probe-47","0.2831181541121151","0.7591802067488258","0.23180336715009653","1","","","","","",""
"","do_trial","132","641578","0.0-115.0-0.0","123.5","","","","50","0,1,0","1","highway","77","probe-133","0.2916309840965115","0.774883602990171","0.20761997614964792","1","","","","","",""
"","do_trial","133","647678","0.0-116.0-0.0","537.4000000059605","","","","50","0,1,0","1","highway","78","probe-72","0.28072571507439564","0.8341268882942915","0.14157003282630776","1","","","","","",""
"","do_trial","134","653240","0.0-117.0-0.0","0.20000000298023224","","","","50","0,1,0","1","highway","79","probe-146","0.17286370496256737","0.8347335233599179","0.12565501125470072","1","","","","","",""
"","do_bye","135","654747","0.0-118.0-0.0","null","","","","null","","","","","","","","","","","","","","",""
"","do_travel","136","661650","0.0-119.0-0.0","null","","","","null","","","","","","","","","","","","","","",""
"","do_welcome","137","663740","0.0-119.0-1.0","null","","","","null","","","","","","","","","","","","","","",""
"","do_trial","138","669799","0.0-120.0-0.0","null","","","","null","0,1,0","2","city","80","probe-135","0.12861865699045563","1","0.1580444042708353","","","","","","",""
"","do_trial","139","675772","0.0-121.0-0.0","412.40000000596046","","","","51","0,1,0","2","city","81","probe-120","0.05097919462076265","1","0.17885165121805913","0","","","","","",""
"","do_trial","140","681619","0.0-122.0-0.0","284.40000000596046","","","","50","0,1,0","2","city","82","probe-194","0.31128543493735367","1","0.19485777550479447","1","","","","","",""
"","do_trial","141","687218","0.0-123.0-0.0","35","","","","50","1,1,0","2","city","83","probe-32","0.4177944840153768","1","0.21989045120641876","1","","","","","",""
"","do_trial","142","692866","0.0-124.0-0.0","85.90000000596046","","","","50","1,1,0","2","city","84","probe-87","0.43624281346254135","0.947484175282633","0.14975887296515655","1","","","","","",""
"","do_trial","143","698512","0.0-125.0-0.0","80.20000000298023","","","","50","0,1,0","2","city","85","probe-157","0.4193291859549049","0.8464015305905126","0.1786525329956665","1","","","","","",""
"","do_trial","144","704429","0.0-126.0-0.0","355.29999999701977","","","","50","1,1,1","2","city","86","probe-144","0.4383584534653053","0.8331497343812442","0.32350146120102635","1","","","","","",""
"","do_trial","145","710013","0.0-127.0-0.0","22.799999997019768","","","","50","0,1,0","2","city","87","probe-01","0.5440294954118141","0.6622457370783228","0.17184381779175728","1","","","","","",""
"","do_trial","146","715631","0.0-128.0-0.0","55.70000000298023","","","","50","0,1,0","2","city","88","probe-49","0.5546539974963556","0.7233938145560171","0.17764135480071747","1","","","","","",""
"","do_trial","147","721194","0.0-129.0-0.0","0.29999999701976776","","","","50","1,1,0","2","city","89","probe-172","0.5347547183628736","0.7744210573917504","0.2180287727099648","1","","","","","",""
"","do_trial","148","726758","0.0-130.0-0.0","0.20000000298023224","","","","50","1,1,0","2","city","90","probe-138","0.730327675794697","0.4927400175068793","0.27518630586839565","1","","","","","",""
"","do_trial","149","732476","0.0-131.0-0.0","157.8999999910593","","","","50","1,0,0","2","city","91","probe-140","0.7487385828967772","0.2116147688465496","0.26908329564803063","0","","","","","",""
"","do_trial","150","738040","0.0-132.0-0.0","0.20000000298023224","","","","49","1,1,0","2","city","92","probe-198","0.6556424184204512","0.12307526772794226","0.1410911875490293","1","","","","","",""
"","do_trial","151","743602","0.0-133.0-0.0","0.19999998807907104","","","","49","1,0,0","2","city","93","probe-226","0.7271205471948019","0.1681477570022884","0.3025570329156496","1","","","","","",""
"","do_trial","152","749165","0.0-134.0-0.0","0.20000000298023224","","","","49","0,0,0","2","city","94","probe-169","0.76407049070577","0.07123406034075737","0.4776431543795783","0","","","","","",""
"","do_trial","153","754783","0.0-135.0-0.0","53.70000000298023","","","","50","1,0,0","2","city","95","probe-109","0.7836781402571624","0.051603011460781445","0.2596746742989839","0","","","","","",""
"","do_trial","154","760366","0.0-136.0-0.0","22.5","","","","50","0,0,1","2","city","96","probe-28","0.7121928509938096","0.11168430075774892","0.31105347008984163","0","","","","","",""
"","do_trial","155","765927","0.0-137.0-0.0","0.29999999701976776","","","","51","1,1,0","2","city","97","probe-98","0.728987563534494","0.15559725251361453","0.4563768392054421","0","","","","","",""
"","do_trial","156","771490","0.0-138.0-0.0","0.20000000298023224","","","","50","1,0,1","2","city","98","probe-42","0.85216025175658","0.09739554035563198","0.4119602727064939","0","","","","","",""
"","do_trial","157","777124","0.0-139.0-0.0","71.79999999701977","","","","49","1,0,0","2","city","99","probe-142","0.9338748656337567","0.11192989550816047","0.3398280819451906","1","","","","","",""
"","do_trial","158","782778","0.0-140.0-0.0","90.8999999910593","","","","49","0,1,0","2","city","100","probe-71","0.8995924330600975","0.1515058436082035","0.4244499254327571","0","","","","","",""
"","do_trial","159","788432","0.0-141.0-0.0","94.29999999701977","","","","50","1,0,0","2","city","101","probe-35","0.8062101275369288","0.08020434257734411","0.35024352368805794","0","","","","","",""
"","do_trial","160","793993","0.0-142.0-0.0","0.29999999701976776","","","","51","1,0,1","2","city","102","probe-08","0.742534728619655","0.20992150720639227","0.5789151563692579","1","","","","","",""
"","do_trial","161","799555","0.0-143.0-0.0","0.09999999403953552","","","","51","1,0,1","2","city","103","probe-129","0.7444996581114863","0.32954660068467834","0.4840809320346848","1","","","","","",""
"","do_trial","162","805342","0.0-144.0-0.0","225","","","","51","1,1,1","2","city","104","probe-108","0.8113374523916629","0.2896563049364191","0.4926909401875114","1","","","","","",""
"","do_trial","163","810989","0.0-145.0-0.0","83.79999999701977","","","","51","1,0,1","2","city","105","probe-21","0.9215892475347185","0.22787276586209537","0.2649177624362399","1","","","","","",""
"","do_trial","164","816578","0.0-146.0-0.0","27.299999997019768","","","","51","1,0,0","2","city","106","probe-164","0.82001522397365","0.28728432137564264","0.17553149099855142","0","","","","","",""
"","do_trial","165","822141","0.0-147.0-0.0","0.29999999701976776","","","","50","1,0,0","2","city","107","probe-131","0.7480954800326398","0.34255786103058805","0.27261275949903907","0","","","","","",""
"","do_trial","166","827702","0.0-148.0-0.0","0.29999999701976776","","","","49","1,0,0","2","city","108","probe-110","0.9217345577776734","0.24844318287968514","0.34407903173239235","1","","","","","",""
"","do_trial","167","833351","0.0-149.0-0.0","87.3999999910593","","","","49","1,0,1","2","city","109","probe-60","0.8423288754089475","0.22108776037276812","0.33125164870084794","1","","","","","",""
"","do_trial","168","839249","0.0-150.0-0.0","335.70000000298023","","","","49","0,1,1","2","city","110","probe-75","0.8020069118990688","0.2652638566505665","0.18475204845698553","0","","","","","",""
"","do_trial","169","844874","0.0-151.0-0.0","92.90000000596046","","","","49","1,1,1","2","city","111","probe-63","0.9288934972633479","0.23346346720081998","0.5369527171237354","1","","","","","",""
"","do_trial","170","850603","0.0-152.0-0.0","167.3999999910593","","","","50","1,0,0","2","city","112","probe-05","0.9072699324901271","0.2512830694118124","0.4638517609760689","0","","","","","",""
"","do_trial","171","856263","0.0-153.0-0.0","97.59999999403954","","","","51","0,0,1","2","city","113","probe-119","0.8747059088723005","0.050679331137422214","0.5818321874297067","1","","","","","",""
"","do_trial","172","861860","0.0-154.0-0.0","34.599999994039536","","","","51","0,1,1","2","city","114","probe-147","0.85707637994196","0.13021912186343054","0.44784577762702676","1","","","","","",""
"","do_trial","173","867485","0.0-155.0-0.0","61.20000000298023","","","","51","1,0,1","2","city","115","probe-148","0.9092019627472644","0.15247913066641858","0.49875574201526357","1","","","","","",""
"","do_trial","174","873047","0.0-156.0-0.0","0.09999999403953552","","","","51","1,0,1","2","city","116","probe-55","0.828444520767794","0.05901635707370331","0.3639801206594842","1","","","","","",""
"","do_trial","175","878657","0.0-157.0-0.0","47.6000000089407","","","","51","1,0,1","2","city","117","probe-185","0.8581714565831072","0.09708866590296968","0.25271050714185106","1","","","","","",""
"","do_trial","176","884246","0.0-158.0-0.0","28.5","","","","51","1,0,0","2","city","118","probe-175","0.8688566293479822","0.219320051210675","0.48543923750704254","0","","","","","",""
"","do_trial","177","889809","0.0-159.0-0.0","0.20000000298023224","","","","51","0,0,0","2","city","119","probe-104","0.8043017258034577","0.14143441138606597","0.3802507218766983","0","","","","","",""
"","do_bye","178","891317","0.0-160.0-0.0","null","","","","null","","","","","","","","","","","","","","",""
"","do_travel","179","897320","0.0-161.0-0.0","null","","","","null","","","","","","","","","","","","","","",""
"","do_welcome","180","898827","0.0-161.0-1.0","null","","","","null","","","","","","","","","","","","","","",""
"","do_trial","181","905461","0.0-162.0-0.0","1073.5","","","","50","1,0,0","3","coast","120","probe-02","1","0.07275507905878438","0.413690916812772","0","","","","","",""
"","do_trial","182","911182","0.0-163.0-0.0","159","","","","49","1,0,0","3","coast","121","probe-195","1","0.07898742735993315","0.38780416859270717","1","","","","","",""
"","do_trial","183","917180","0.0-164.0-0.0","436.70000000298023","","","","49","1,0,0","3","coast","122","probe-95","1","0.08753473901500018","0.4307236625546692","1","","","","","",""
"","do_trial","184","922812","0.0-165.0-0.0","69.59999999403954","","","","49","1,0,1","3","coast","123","probe-189","1","0.05621856051592194","0.4194877576011529","1","","","","","",""
"","do_trial","185","928422","0.0-166.0-0.0","48.20000000298023","","","","49","1,0,0","3","coast","124","probe-44","0.9059705663222521","0.18390241142588168","0.27997537890461305","1","","","","","",""
"","do_trial","186","934000","0.0-167.0-0.0","15.200000002980232","","","","49","1,0,0","3","coast","125","probe-90","0.8746699821835959","0.2874917165600517","0.24277772496260178","1","","","","","",""
"","do_trial","187","939575","0.0-168.0-0.0","12.5","","","","49","0,1,0","3","coast","126","probe-53","0.7824959077758707","0.3377853716739169","0.22627160338139846","0","","","","","",""
"","do_trial","188","945172","0.0-169.0-0.0","36.900000005960464","","","","49","1,0,0","3","coast","127","probe-34","0.6956114713555229","0.16768753714687834","0.40900450770281227","1","","","","","",""
"","do_trial","189","950735","0.0-170.0-0.0","0.20000000298023224","","","","49","1,0,1","3","coast","128","probe-212","0.7535368461575395","0.1300447137939998","0.48531074837860644","1","","","","","",""
"","do_trial","190","956429","0.0-171.0-0.0","131.70000000298023","","","","49","0,0,0","3","coast","129","probe-100","0.714232326841707","0.094495147894868","0.37059283001640836","0","","","","","",""
"","do_trial","191","962037","0.0-172.0-0.0","45.5","","","","49","1,0,1","3","coast","130","probe-163","0.6255196911431646","0.11359142083880987","0.6807405102894377","1","","","","","",""
"","do_trial","192","967698","0.0-173.0-0.0","99.79999999701977","","","","49","0,0,1","3","coast","131","probe-225","0.5486275935793944","0.11281228868069393","0.7166940276093199","0","","","","","",""
"","do_trial","193","973316","0.0-174.0-0.0","55.30000001192093","","","","50","0,0,0","3","coast","132","probe-50","0.49486792286846537","0.10079242375792752","0.6195442048548648","0","","","","","",""
"","do_trial","194","978967","0.0-175.0-0.0","88.3999999910593","","","","51","0,0,1","3","coast","133","probe-128","0.37254734564941167","0.08423189038575567","0.7526915377697031","1","","","","","",""
"","do_trial","195","984569","0.0-176.0-0.0","39.70000000298023","","","","51","0,0,1","3","coast","134","probe-25","0.32699309419987754","0.1824174736820573","0.8328129971219346","1","","","","","",""
"","do_trial","196","990128","0.0-177.0-0.0","0.09999999403953552","","","","51","1,0,1","3","coast","135","probe-36","0.3784315139251111","0.18902018041032215","0.9448372088388907","1","","","","","",""
"","do_trial","197","995934","0.0-178.0-0.0","243.8999999910593","","","","51","1,0,1","3","coast","136","probe-199","0.4519359363302287","0.05050044437515261","0.9139510363866991","1","","","","","",""
"","do_trial","198","1001552","0.0-179.0-0.0","57.20000000298023","","","","51","0,0,1","3","coast","137","probe-97","0.4551995437828466","0.2433884007771114","0.8606593336244854","1","","","","","",""
"","do_trial","199","1007183","0.0-180.0-0.0","70.90000000596046","","","","51","0,1,1","3","coast","138","probe-54","0.5221657027992366","0.17067871684049737","0.9423720936336767","1","","","","","",""
"","do_trial","200","1012897","0.0-181.0-0.0","152.5","","","","51","0,0,1","3","coast","139","probe-04","0.423243221726162","0.07930271165316817","0.9421272044616261","1","","","","","",""
"","do_trial","201","1018523","0.0-182.0-0.0","64.20000000298023","","","","51","0,0,1","3","coast","140","probe-93","0.31878743850044894","0.11967459262142956","0.9213116602782719","1","","","","","",""
"","do_trial","202","1024355","0.0-183.0-0.0","269.6000000089407","","","","51","0,1,1","3","coast","141","probe-29","0.4055489517996355","0.17310553387468378","0.9357069566119735","1","","","","","",""
"","do_trial","203","1030082","0.0-184.0-0.0","167.59999999403954","","","","51","1,0,1","3","coast","142","probe-170","0.3045714845812302","0.06934975563658936","0.8690461673470741","1","","","","","",""
"","do_trial","204","1035686","0.0-185.0-0.0","42.70000000298023","","","","51","0,0,1","3","coast","143","probe-111","0.3439027635103294","0.13029323332615594","0.878886443694357","1","","","","","",""
"","do_trial","205","1041345","0.0-186.0-0.0","96.70000000298023","","","","51","0,0,1","3","coast","144","probe-134","0.3228255844406195","0.060717180611926755","0.9048247325598522","1","","","","","",""
"","do_trial","206","1047032","0.0-187.0-0.0","126.3999999910593","","","","51","1,0,1","3","coast","145","probe-38","0.2753942003746844","0.08725351258313037","0.7809320250759723","1","","","","","",""
"","do_trial","207","1052595","0.0-188.0-0.0","0.09999999403953552","","","","51","0,0,1","3","coast","146","probe-207","0.3097841319475164","0.1799639849247565","0.7435463366958404","1","","","","","",""
"","do_trial","208","1058636","0.0-189.0-0.0","479.70000000298023","","","","51","0,0,1","3","coast","147","probe-240","0.2797156867709923","0.21670786683956203","0.9338032629456936","1","","","","","",""
"","do_trial","209","1064427","0.0-190.0-0.0","230.59999999403954","","","","51","0,0,1","3","coast","148","probe-179","0.30388450992501564","0.20281989698406697","0.8711534049652525","1","","","","","",""
"","do_trial","210","1070001","0.0-191.0-0.0","12.100000008940697","","","","51","0,0,1","3","coast","149","probe-81","0.4723980414606642","0.07922205060905647","0.8390836967991441","1","","","","","",""
"","do_trial","211","1077151","0.0-192.0-0.0","1588.2000000029802","","","","51","1,0,1","3","coast","150","probe-67","0.3859316708292511","0.12692313312489675","0.9003015330751356","1","","","","","",""
"","do_trial","212","1082735","0.0-193.0-0.0","23.600000008940697","","","","51","0,1,1","3","coast","151","probe-193","0.2956842874097486","0.07230594083630656","0.8241632163031318","1","","","","","",""
"","do_trial","213","1088345","0.0-194.0-0.0","48.79999999701977","","","","51","0,0,1","3","coast","152","probe-61","0.48046604643357393","0.09974084284423226","0.8013439495747037","1","","","","","",""
"","do_trial","214","1093907","0.0-195.0-0.0","0.20000000298023224","","","","51","0,0,1","3","coast","153","probe-126","0.4986461733667356","0.1305943837834048","0.8475223841707944","1","","","","","",""
"","do_trial","215","1099470","0.0-196.0-0.0","0.10000000894069672","","","","51","0,0,0","3","coast","154","probe-154","0.36410418070894524","0.0925493859157562","0.8419853588210885","0","","","","","",""
"","do_trial","216","1105312","0.0-197.0-0.0","280.79999999701977","","","","51","0,0,1","3","coast","155","probe-139","0.35838346585665","0.1900722119175328","0.8205174488460711","1","","","","","",""
"","do_trial","217","1110875","0.0-198.0-0.0","0.29999999701976776","","","","51","0,0,1","3","coast","156","probe-46","0.35183230975641705","0.07472696677566282","0.7191822255560304","1","","","","","",""
"","do_trial","218","1116527","0.0-199.0-0.0","89.5","","","","51","1,1,1","3","coast","157","probe-113","0.4367378735134822","0.11940825346355535","0.8274079976829042","1","","","","","",""
"","do_trial","219","1122089","0.0-200.0-0.0","0.19999998807907104","","","","51","0,0,1","3","coast","158","probe-84","0.32792691005387165","0.06710490031944871","0.7674948094698015","1","","","","","",""
"","do_trial","220","1127777","0.0-201.0-0.0","127.8999999910593","","","","51","0,0,1","3","coast","159","probe-145","0.30058435864060656","0.05651613878969863","0.9481644367935704","1","","","","","",""
"","do_bye","221","1129285","0.0-202.0-0.0","null","","","","null","","","","","","","","","","","","","","",""
"","do_travel","222","1135289","0.0-203.0-0.0","null","","","","null","","","","","","","","","","","","","","",""
"","do_welcome","223","1136796","0.0-203.0-1.0","null","","","","null","","","","","","","","","","","","","","",""
"","do_trial","224","1143308","0.0-204.0-0.0","949.5999999940395","","","","50","0,0,1","4","mountain","160","probe-58","0.16122047733415243","0.05932036576243396","1","0","","","","","",""
"","do_trial","225","1148923","0.0-205.0-0.0","51.599999994039536","","","","49","1,0,1","4","mountain","161","probe-201","0.3188463879440639","0.054100636870470904","1","1","","","","","",""
"","do_trial","226","1154487","0.0-206.0-0.0","0.29999999701976776","","","","49","0,0,1","4","mountain","162","probe-152","0.3274976564805326","0.1432091112578073","1","0","","","","","",""
"","do_trial","227","1160054","0.0-207.0-0.0","0.20000000298023224","","","","51","0,0,1","4","mountain","163","probe-88","0.3610108177989245","0.1277067790416179","1","1","","","","","",""
"","do_trial","228","1165617","0.0-208.0-0.0","0.20000000298023224","","","","51","1,0,1","4","mountain","164","probe-86","0.47367455566299915","0.07584158056302266","0.894914588203178","1","","","","","",""
"","do_trial","229","1171478","0.0-209.0-0.0","297.29999999701977","","","","51","0,0,0","4","mountain","165","probe-96","0.48252751161689644","0.22793017886130273","0.9009048673460295","0","","","","","",""
"","do_trial","230","1177135","0.0-210.0-0.0","94.20000000298023","","","","51","1,0,1","4","mountain","166","probe-99","0.38711370209756674","0.1001262431448602","0.9158112430168929","1","","","","","",""
"","do_trial","231","1182722","0.0-211.0-0.0","22.5","","","","51","1,0,1","4","mountain","167","probe-213","0.35478860103547816","0.14593248963780203","0.9149760229523953","1","","","","","",""
"","do_trial","232","1188361","0.0-212.0-0.0","73.19999998807907","","","","51","0,0,0","4","mountain","168","probe-155","0.33672399952386856","0.09673874394270099","0.8914964719768779","0","","","","","",""
"","do_trial","233","1193927","0.0-213.0-0.0","0.20000000298023224","","","","50","0,0,1","4","mountain","169","probe-204","0.28456683268356137","0.10529171727661375","0.8972040887374314","0","","","","","",""
"","do_trial","234","1199573","0.0-214.0-0.0","83","","","","49","0,0,1","4","mountain","170","probe-118","0.5916559108719877","0.16536081904389405","0.5572579458766721","0","","","","","",""
"","do_trial","235","1205239","0.0-215.0-0.0","103.40000000596046","","","","51","1,0,0","4","mountain","171","probe-184","0.7293221834852724","0.1885578619795242","0.3630563438805768","0","","","","","",""
"","do_trial","236","1210881","0.0-216.0-0.0","78.1000000089407","","","","51","0,0,0","4","mountain","172","probe-124","0.7005568295187699","0.18486553328328456","0.4528951217489473","0","","","","","",""
"","do_trial","237","1216573","0.0-217.0-0.0","131","","","","50","0,0,0","4","mountain","173","probe-211","0.7464949814262875","0.12335786423336291","0.33485690264198953","0","","","","","",""
"","do_trial","238","1222185","0.0-218.0-0.0","52.099999994039536","","","","49","1,1,1","4","mountain","174","probe-19","0.8175714978970513","0.06920891856916309","0.3355695841958454","1","","","","","",""
"","do_trial","239","1227898","0.0-219.0-0.0","146.69999998807907","","","","49","1,0,0","4","mountain","175","probe-14","0.948059051642512","0.05406140676400666","0.389720598164925","1","","","","","",""
"","do_trial","240","1233495","0.0-220.0-0.0","31.200000002980232","","","","49","1,0,0","4","mountain","176","probe-80","0.8269846597017341","0.09799596045756422","0.470375813265836","1","","","","","",""
"","do_trial","241","1239064","0.0-221.0-0.0","0.20000000298023224","","","","49","1,0,0","4","mountain","177","probe-64","0.7763157162212343","0.06345254299998666","0.5099792534864911","1","","","","","",""
"","do_trial","242","1244684","0.0-222.0-0.0","55.400000005960464","","","","49","1,0,0","4","mountain","178","probe-190","0.8240976264112","0.10761059672141138","0.5083723062067197","1","","","","","",""
"","do_trial","243","1250250","0.0-223.0-0.0","0.19999998807907104","","","","49","1,0,1","4","mountain","179","probe-69","0.8215348750992366","0.08408420518926057","0.36879947706391375","1","","","","","",""
"","do_trial","244","1255968","0.0-224.0-0.0","155.29999999701977","","","","49","1,1,0","4","mountain","180","probe-121","0.72976255590291","0.2687928232124897","0.33318181382245265","1","","","","","",""
"","do_trial","245","1261650","0.0-225.0-0.0","118.59999999403954","","","","49","1,0,0","4","mountain","181","probe-59","0.8642375397044237","0.15151858325595918","0.33992158921805093","1","","","","","",""
"","do_trial","246","1267231","0.0-226.0-0.0","19.80000001192093","","","","49","1,0,1","4","mountain","182","probe-65","0.8830913575914261","0.1878399269176695","0.40019287656467306","1","","","","","",""
"","do_trial","247","1272824","0.0-227.0-0.0","29.899999991059303","","","","49","0,0,0","4","mountain","183","probe-176","0.8838379043644214","0.11151449318241798","0.42265002944899993","0","","","","","",""
"","do_trial","248","1278566","0.0-228.0-0.0","176.6000000089407","","","","49","1,0,0","4","mountain","184","probe-102","0.8714809691194869","0.10183373056237914","0.27985293200245176","1","","","","","",""
"","do_trial","249","1284197","0.0-229.0-0.0","68","","","","49","1,1,0","4","mountain","185","probe-127","0.735828464067419","0.1345889926396574","0.31039118914213304","1","","","","","",""
"","do_trial","250","1289761","0.0-230.0-0.0","0.09999999403953552","","","","49","0,0,1","4","mountain","186","probe-215","0.8424487093548387","0.14550780081166514","0.33899112614784543","0","","","","","",""
"","do_trial","251","1295455","0.0-231.0-0.0","131.1000000089407","","","","49","0,0,0","4","mountain","187","probe-166","0.8155434537886528","0.14023756675255858","0.48728739020818496","0","","","","","",""
"","do_trial","252","1301086","0.0-232.0-0.0","64.19999998807907","","","","49","1,0,0","4","mountain","188","probe-180","0.8804911875411923","0.21114229062462514","0.4756926188431397","1","","","","","",""
"","do_trial","253","1306666","0.0-233.0-0.0","14.299999997019768","","","","49","0,0,0","4","mountain","189","probe-26","0.7448994516363365","0.1883108605193716","0.33951436029268","0","","","","","",""
"","do_trial","254","1312237","0.0-234.0-0.0","7.5","","","","50","0,0,0","4","mountain","190","probe-151","0.6581450775385826","0.11938841920759626","0.32681992241883423","0","","","","","",""
"","do_trial","255","1318175","0.0-235.0-0.0","375.69999998807907","","","","51","1,0,0","4","mountain","191","probe-233","0.678150648695498","0.23085079101406322","0.33601098869504525","0","","","","","",""
"","do_trial","256","1323761","0.0-236.0-0.0","26.5","","","","49","1,0,0","4","mountain","192","probe-56","0.6859576674796628","0.21602887524720302","0.3512868336878998","1","","","","","",""
"","do_trial","257","1329414","0.0-237.0-0.0","88.09999999403954","","","","49","1,0,0","4","mountain","193","probe-235","0.8323409917728988","0.15071170538428955","0.35849090249733123","1","","","","","",""
"","do_trial","258","1335029","0.0-238.0-0.0","53.20000000298023","","","","49","1,0,1","4","mountain","194","probe-48","0.8206484530358447","0.10436929130940405","0.36704288172160693","1","","","","","",""
"","do_trial","259","1340806","0.0-239.0-0.0","214.40000000596046","","","","49","1,0,1","4","mountain","195","probe-192","0.7164606940951821","0.056567888897799894","0.3847091961815889","1","","","","","",""
"","do_trial","260","1346371","0.0-240.0-0.0","1.2999999970197678","","","","49","1,1,0","4","mountain","196","probe-200","0.9149828391673003","0.1611283219282228","0.3786707262504894","1","","","","","",""
"","do_trial","261","1351934","0.0-241.0-0.0","0.30000001192092896","","","","49","0,1,0","4","mountain","197","probe-30","0.9263830554284267","0.25835276698358906","0.3835154774913852","0","","","","","",""
"","do_trial","262","1357570","0.0-242.0-0.0","69.5","","","","49","1,0,0","4","mountain","198","probe-68","0.9278944539302127","0.10203803232595453","0.4797448752525662","1","","","","","",""
"","do_trial","263","1363203","0.0-243.0-0.0","67.19999998807907","","","","49","1,1,0","4","mountain","199","probe-136","0.8281114872963545","0.28743876659748197","0.40779488322625845","1","","","","","",""
"","do_bye","264","1364710","0.0-244.0-0.0","null","","","","null","","","","","","","","","","","","","","",""
"","do_travel","265","1370714","0.0-245.0-0.0","null","","","","null","","","","","","","","","","","","","","",""
"","do_welcome","266","1372221","0.0-245.0-1.0","null","","","","null","","","","","","","","","","","","","","",""
"","do_trial","267","1380760","0.0-246.0-0.0","2973.5999999940395","","","","51","1,0,1","5","forest","200","probe-174","1","0.2966377084889086","0.5803454655106661","1","","","","","",""
"","do_trial","268","1386830","0.0-247.0-0.0","507.40000000596046","","","","51","1,0,1","5","forest","201","probe-177","1","0.4474912829422423","0.6524841304088619","1","","","","","",""
"","do_trial","269","1392517","0.0-248.0-0.0","124.70000000298023","","","","51","1,0,1","5","forest","202","probe-143","1","0.3694622997157842","0.6079518439332274","1","","","","","",""
"","do_trial","270","1398080","0.0-249.0-0.0","0.20000000298023224","","","","51","1,0,0","5","forest","203","probe-216","1","0.270444231707508","0.5468113465791153","0","","","","","",""
"","do_trial","271","1403750","0.0-250.0-0.0","108.5","","","","51","1,0,1","5","forest","204","probe-150","0.8990397938754201","0.17982173677686603","0.5415406610996538","1","","","","","",""
"","do_trial","272","1409370","0.0-251.0-0.0","58.20000000298023","","","","50","0,0,0","5","forest","205","probe-91","0.9177999191639392","0.2573558094600256","0.512430844318705","0","","","","","",""
"","do_trial","273","1414960","0.0-252.0-0.0","29.200000002980232","","","","49","1,0,1","5","forest","206","probe-114","0.777603820659685","0.150082527549105","0.5501006905461717","1","","","","","",""
"","do_trial","274","1420524","0.0-253.0-0.0","0.29999999701976776","","","","49","1,1,0","5","forest","207","probe-191","0.8805344683592486","0.27788833169717586","0.5437346439111653","1","","","","","",""
"","do_trial","275","1426258","0.0-254.0-0.0","175.19999998807907","","","","49","0,0,0","5","forest","208","probe-78","0.889923469179402","0.201160417491086","0.48811290185372697","0","","","","","",""
"","do_trial","276","1431840","0.0-255.0-0.0","20.700000002980232","","","","51","1,0,1","5","forest","209","probe-16","0.8823924754740946","0.19189836144460515","0.49417281508715805","1","","","","","",""
"","do_trial","277","1437463","0.0-256.0-0.0","58.69999998807907","","","","51","1,0,0","5","forest","210","probe-165","0.5087428192816782","0.4746146161387879","0.3934768180170222","0","","","","","",""
"","do_trial","278","1443026","0.0-257.0-0.0","0.10000000894069672","","","","49","0,0,1","5","forest","211","probe-43","0.3775743982635094","0.7204991936650388","0.29864433634136317","0","","","","","",""
"","do_trial","279","1448585","0.0-258.0-0.0","0.20000000298023224","","","","51","0,0,1","5","forest","212","probe-94","0.2786392873975545","0.6818848916458883","0.25772054289209745","1","","","","","",""
"","do_trial","280","1454366","0.0-259.0-0.0","217.6000000089407","","","","51","0,0,0","5","forest","213","probe-101","0.1272424509046241","0.6266926709881327","0.19202249454920187","0","","","","","",""
"","do_trial","281","1460061","0.0-260.0-0.0","131.40000000596046","","","","49","0,0,0","5","forest","214","probe-214","0.19245254732049857","0.6515655704892032","0.16716129766147403","0","","","","","",""
"","do_trial","282","1465623","0.0-261.0-0.0","0.19999998807907104","","","","50","1,1,0","5","forest","215","probe-178","0.15659979452617084","0.6648488829482228","0.06765801576324589","1","","","","","",""
"","do_trial","283","1471556","0.0-262.0-0.0","370.8999999910593","","","","50","0,0,0","5","forest","216","probe-206","0.16855203093073803","0.7263158617092635","0.1804410050688022","0","","","","","",""
"","do_trial","284","1477118","0.0-263.0-0.0","0.20000000298023224","","","","50","0,0,0","5","forest","217","probe-10","0.2644569036520282","0.7230796405397326","0.21961670272543643","0","","","","","",""
"","do_trial","285","1482856","0.0-264.0-0.0","175.70000000298023","","","","51","0,1,1","5","forest","218","probe-62","0.3586004948634564","0.6341916021295946","0.24415714090713395","1","","","","","",""
"","do_trial","286","1488419","0.0-265.0-0.0","0.10000000894069672","","","","51","0,0,0","5","forest","219","probe-238","0.2092001122960371","0.6145501793462665","0.29245079456303585","0","","","","","",""
"","do_trial","287","1493980","0.0-266.0-0.0","0.09999999403953552","","","","49","0,1,0","5","forest","220","probe-162","0.20552436370519786","0.8800459245356956","0.37612746576602235","0","","","","","",""
"","do_trial","288","1499620","0.0-267.0-0.0","78.69999998807907","","","","51","0,1,0","5","forest","221","probe-09","0.19235535029086814","0.8789987843254999","0.3788081885497087","0","","","","","",""
"","do_trial","289","1505249","0.0-268.0-0.0","66.8999999910593","","","","49","0,0,0","5","forest","222","probe-141","0.0667351797095978","0.708857255809606","0.4564763502380233","0","","","","","",""
"","do_trial","290","1510907","0.0-269.0-0.0","96.8999999910593","","","","51","0,1,0","5","forest","223","probe-203","0.19667211201745866","0.7728264595828298","0.37926367249593573","0","","","","","",""
"","do_trial","291","1516469","0.0-270.0-0.0","0.20000000298023224","","","","50","0,1,0","5","forest","224","probe-171","0.17750555055211187","0.8426265393548991","0.5139494364070701","1","","","","","",""
"","do_trial","292","1522053","0.0-271.0-0.0","21.700000002980232","","","","50","0,0,0","5","forest","225","probe-228","0.20230450760043656","0.8023882239132972","0.5232891112402129","0","","","","","",""
"","do_trial","293","1527712","0.0-272.0-0.0","98.09999999403954","","","","49","1,1,0","5","forest","226","probe-197","0.12483780146517959","0.8232394457879727","0.42406146746992696","1","","","","","",""
"","do_trial","294","1533401","0.0-273.0-0.0","127","","","","49","0,1,1","5","forest","227","probe-208","0.0697314162336276","0.8819479399541428","0.42319633186421274","0","","","","","",""
"","do_trial","295","1538967","0.0-274.0-0.0","0.20000000298023224","","","","50","0,1,0","5","forest","228","probe-137","0.13575614687895182","0.7467718924222644","0.45224532363140385","1","","","","","",""
"","do_trial","296","1545069","0.0-275.0-0.0","539.1000000089407","","","","50","0,1,0","5","forest","229","probe-153","0.21582815493708005","0.7610193139700374","0.4280160824096016","1","","","","","",""
"","do_trial","297","1550769","0.0-276.0-0.0","137.5","","","","50","0,0,0","5","forest","230","probe-219","0.1925657301960307","0.7444250151744738","0.42218300283286203","0","","","","","",""
"","do_trial","298","1556505","0.0-277.0-0.0","171.29999999701977","","","","51","0,1,1","5","forest","231","probe-237","0.19291183388764016","0.8257335728797187","0.4037182265136911","1","","","","","",""
"","do_trial","299","1562167","0.0-278.0-0.0","98.1000000089407","","","","51","0,1,1","5","forest","232","probe-85","0.15052349508189808","0.8238930512840408","0.34513291823787046","1","","","","","",""
"","do_trial","300","1567775","0.0-279.0-0.0","46.19999998807907","","","","51","0,1,1","5","forest","233","probe-13","0.14595140071613197","0.9041051096017004","0.3372686667192395","1","","","","","",""
"","do_trial","301","1573355","0.0-280.0-0.0","19.100000008940697","","","","51","0,0,0","5","forest","234","probe-224","0.1344872939943121","0.8558269369491103","0.39493215456822794","0","","","","","",""
"","do_trial","302","1578916","0.0-281.0-0.0","0.09999999403953552","","","","50","0,1,0","5","forest","235","probe-123","0.1948060082613259","0.7941304853338028","0.3522741612175457","1","","","","","",""
"","do_trial","303","1584481","0.0-282.0-0.0","0.19999998807907104","","","","50","0,1,0","5","forest","236","probe-06","0.11831464686637133","0.8505806607844479","0.48583812013008926","1","","","","","",""
"","do_trial","304","1590079","0.0-283.0-0.0","37.400000005960464","","","","50","0,1,0","5","forest","237","probe-223","0.05390187499519639","0.7813734407994809","0.4728812994393405","1","","","","","",""
"","do_trial","305","1595710","0.0-284.0-0.0","68.5","","","","50","1,1,0","5","forest","238","probe-11","0.11833124898519576","0.6886420432919539","0.3489203301121925","1","","","","","",""
"","do_trial","306","1601295","0.0-285.0-0.0","21.900000005960464","","","","50","0,1,0","5","forest","239","probe-149","0.05002511562795777","0.7959084112807433","0.3921984481816936","1","","","","","",""
"","do_bye","307","1602801","0.0-286.0-0.0","null","","","","null","","","","","","","","","","","","","","",""
"","html-keyboard-response","308","1607006","0.0-286.0-1.0","4203.300000011921","<div class='center'><p>You may take a break now!</p><p> Stretch for a little bit. Get a glass of water.</p><p> You have two minutes to rest. Then, the game will automatically move on.</p><p>If you’d like to get started on the second half of the experiment sooner, then press the <b>space bar</b></p></div>","32","","","","","","","","","","","","","","","","",""
"","html-keyboard-response","309","1610995","0.0-286.0-2.0","3988.2000000029802","<div class='center'><p>You’ve arrived at the final destination of your journey! Unfortunately, it’s very foggy out, so you won’t be able to see it in the distance like in previous places you've visited.</p><p>You’ll still be deciding which pirates you want to rob ships. However, because of the fog you also won’t be able to see the ship in the distance. </p><p><b>[Press the space bar to continue]</b></p></div>","32","","","","","","","","","","","","","","","","",""
"","html-keyboard-response","310","1621087","0.0-286.0-3.0","10091","<div class='center'><p> Sometimes you’ll be asked if you’ve seen a ship before (see the example below). You will use the 5, 6, 7, 8 buttons on your keyboard to respond. </p><p> If you definitely did not see the ship, pick the the big red thumbs down by pressing <b>5</b>.</p><p> If you don’t think you saw it but aren’t sure, then pick the small red thumbs down by pressing <b>6</b>.</p><p> If you think you might have seen it, then pick the small green thumbs up by pressing <b>7</b>.</p><p> If you definitely did see this ship before, then pick the big thumb green thumbs up by pressing <b>8</b>.</p><p> If you recall correctly, then you’ll get a gold coin!</p><p><b>[Press the space bar to begin the next phase of the experiment]</b></p><p><img src='run_exp/static/images/example_recog_trial.png' height='500'></p></div>","32","","","","","","","","","","","","","","","","",""
"","do_welcome","311","1622590","0.0-286.0-4.0","null","","","","null","","","","","","","","","","","","","","",""
"","do_trial","312","1628629","0.0-287.0-0.0","null","","","","null","0,1,0","6","blank","240","null","0.05181190062315738","1","0.4226295093983438","","","","","","",""
"","do_recog","313","1632977","0.0-288.0-0.0","2842.2999999970198","","","","54","","","","241","probe-189","","","","","1","[object Object]","123","3","0",""
"","do_trial","314","1637651","0.0-289.0-0.0","1109.9000000059605","","","","51","0,1,0","6","blank","242","null","0.1128993006588348","0.913217867424319","0.3382425987923637","0","","","","","",""
"","do_recog","315","1641278","0.0-290.0-0.0","2118.0999999940395","","","","55","","","","243","probe-114","","","","","1","[object Object]","206","5","1",""
"","do_trial","316","1645112","0.0-291.0-0.0","271.70000000298023","","","","50","0,1,1","6","blank","244","null","0.07161149155101595","0.8238452882501623","0.3952055297046191","1","","","","","",""
"","do_trial","317","1649415","0.0-292.0-0.0","736.5","","","","50","0,1,0","6","blank","245","null","0.06581247676992233","0.8391815039475925","0.3003958564503391","1","","","","","",""
"","do_trial","318","1653372","0.0-293.0-0.0","393.70000000298023","","","","50","0,1,1","6","blank","246","null","0.09655149875842797","0.8056892296779568","0.27934476567651445","1","","","","","",""
"","do_recog","319","1656496","0.0-294.0-0.0","1614.4000000059605","","","","56","","","","247","probe-174","","","","","1","[object Object]","200","5","1",""
"","do_trial","320","1660180","0.0-295.0-0.0","118.6000000089407","","","","50","0,1,0","6","blank","248","null","0.13088114799149075","0.8709407956100058","0.27901961186184826","1","","","","","",""
"","do_recog","321","1663778","0.0-296.0-0.0","2089","","","","55","","","","249","probe-201","","","","","1","[object Object]","161","4","1",""
"","do_trial","322","1668003","0.0-297.0-0.0","660.9000000059605","","","","50","0,0,0","6","blank","250","null","0.08514693120466298","0.9125614956333071","0.32277080660871654","0","","","","","",""
"","do_trial","323","1671733","0.0-298.0-0.0","167.80000001192093","","","","49","0,1,0","6","blank","251","null","0.06617155820115132","0.7758552911877956","0.21964985184312114","0","","","","","",""
"","do_trial","324","1675745","0.0-299.0-0.0","445.20000000298023","","","","51","0,1,0","6","blank","252","null","0.21168794557753134","0.7435407719370223","0.3746797256133988","0","","","","","",""
"","do_trial","325","1679620","0.0-300.0-0.0","310.59999999403954","","","","50","0,1,0","6","blank","253","null","0.08819657866113445","0.6143913701724296","0.3852450398939026","1","","","","","",""
"","do_trial","326","1683547","0.0-301.0-0.0","362.70000000298023","","","","50","1,1,1","6","blank","254","null","0.18908825465208623","0.4071734251144284","0.47772591006467613","1","","","","","",""
"","do_trial","327","1687154","0.0-302.0-0.0","44.099999994039536","","","","50","1,0,1","6","blank","255","null","0.37615514661471827","0.2501171441194127","0.6234181036182748","0","","","","","",""
"","do_recog","328","1690893","0.0-303.0-0.0","2229.6000000089407","","","","55","","","","256","probe-172","","","","","1","[object Object]","89","2","1",""
"","do_trial","329","1695023","0.0-304.0-0.0","566.6000000089407","","","","50","0,0,1","6","blank","257","null","0.3672697963498665","0.16868761107766606","0.7259674704701035","0","","","","","",""
"","do_recog","330","1698033","0.0-305.0-0.0","1497.2000000029802","","","","56","","","","258","probe-95","","","","","1","[object Object]","122","3","1",""
"","do_trial","331","1702073","0.0-306.0-0.0","475.29999999701977","","","","51","1,0,0","6","blank","259","null","0.4043867087429966","0.13930299454183467","0.7791406215615715","0","","","","","",""
"","do_trial","332","1705948","0.0-307.0-0.0","312.59999999403954","","","","51","0,0,1","6","blank","260","null","0.5266590577941128","0.09077968126219423","0.7739411410172342","1","","","","","",""
"","do_recog","333","1709176","0.0-308.0-0.0","1717.5","","","","56","","","","261","probe-78","","","","","1","[object Object]","208","5","1",""
"","do_trial","334","1712923","0.0-309.0-0.0","185","","","","51","1,0,0","6","blank","262","null","0.5114970881660326","0.10774569153829258","0.5300341548873304","0","","","","","",""
"","do_trial","335","1716804","0.0-310.0-0.0","317.40000000596046","","","","49","0,0,1","6","blank","263","null","0.5133750900272998","0.10017151103896466","0.7564119749429299","0","","","","","",""
"","do_recog","336","1720348","0.0-311.0-0.0","2033.7999999970198","","","","54","","","","264","probe-32","","","","","1","[object Object]","83","2","0",""
"","do_trial","337","1724265","0.0-312.0-0.0","382.79999999701977","","","","50","0,0,1","6","blank","265","null","0.5274442468281597","0.060430462444156244","0.7646796449360558","0","","","","","",""
"","do_recog","338","1727612","0.0-313.0-0.0","1837.7000000029802","","","","54","","","","266","probe-246","","","","","0","[object Object]","null","null","1",""
"","do_trial","339","1731495","0.0-314.0-0.0","315.5","","","","51","1,0,1","6","blank","267","null","0.6263949752042369","0.05110842175772484","0.7648717035547966","1","","","","","",""
"","do_trial","340","1735556","0.0-315.0-0.0","496.5","","","","51","1,0,1","6","blank","268","null","0.6315544529303299","0.062168844610754954","0.8604943781168883","1","","","","","",""
"","do_trial","341","1739468","0.0-316.0-0.0","344.8999999910593","","","","51","1,0,1","6","blank","269","null","0.6492445003310894","0.11185285118341914","0.8322643577869495","1","","","","","",""
"","do_trial","342","1743394","0.0-317.0-0.0","363.30000001192093","","","","51","0,0,1","6","blank","270","null","0.49122947859747196","0.09138080286071404","0.6215182035744836","1","","","","","",""
"","do_recog","343","1746396","0.0-318.0-0.0","1489.3999999910593","","","","56","","","","271","probe-86","","","","","1","[object Object]","164","4","1",""
"","do_trial","344","1750343","0.0-319.0-0.0","380.70000000298023","","","","51","0,0,1","6","blank","272","null","0.42913954587051545","0.05347406219829619","0.6586908590950279","1","","","","","",""
"","do_recog","345","1753550","0.0-320.0-0.0","1693.5999999940395","","","","55","","","","273","probe-125","","","","","1","[object Object]","46","1","1",""
"","do_trial","346","1757113","0.0-321.0-0.0","0.20000000298023224","","","","51","0,0,1","6","blank","274","null","0.30206615783587176","0.1150227529780251","0.7298249064112846","1","","","","","",""
"","do_trial","347","1760677","0.0-322.0-0.0","0.29999999701976776","","","","51","0,0,0","6","blank","275","null","0.2470794404807753","0.17394235955330506","0.5815802658303629","0","","","","","",""
"","do_trial","348","1764566","0.0-323.0-0.0","318.90000000596046","","","","50","1,0,1","6","blank","276","null","0.3904410160708369","0.13796841010761632","0.6832730345888097","0","","","","","",""
"","do_trial","349","1768268","0.0-324.0-0.0","142.79999999701977","","","","49","1,0,1","6","blank","277","null","0.29140204746282544","0.16679336224670863","0.7415920223889836","1","","","","","",""
"","do_trial","350","1771983","0.0-325.0-0.0","150.29999999701977","","","","49","1,0,1","6","blank","278","null","0.2792150210385714","0.0816759955594383","0.69364890071229","1","","","","","",""
"","do_trial","351","1775970","0.0-326.0-0.0","423.29999999701977","","","","49","0,0,1","6","blank","279","null","0.29841381293318114","0.1538268608683854","0.6563556533075965","0","","","","","",""
"","do_recog","352","1779505","0.0-327.0-0.0","2020.0999999940395","","","","54","","","","280","probe-53","","","","","1","[object Object]","126","3","0",""
"","do_trial","353","1783414","0.0-328.0-0.0","346.40000000596046","","","","50","1,0,1","6","blank","281","null","0.4071356271312984","0.05564244749635347","0.7880354399167864","0","","","","","",""
"","do_trial","354","1787240","0.0-329.0-0.0","257.20000000298023","","","","51","1,0,1","6","blank","282","null","0.3729618744875258","0.1770641260100277","1","1","","","","","",""
"","do_trial","355","1790806","0.0-330.0-0.0","0.20000000298023224","","","","51","1,0,0","6","blank","283","null","0.4747412077192138","0.14643646465248897","0.9231367690836279","0","","","","","",""
"","do_trial","356","1794718","0.0-331.0-0.0","348.29999999701977","","","","49","1,0,1","6","blank","284","null","0.5269181621495757","0.2916900741618985","0.8293484510824692","1","","","","","",""
"","do_recog","357","1798501","0.0-332.0-0.0","2272.2999999970198","","","","55","","","","285","probe-244","","","","","0","[object Object]","null","null","0",""
"","do_trial","358","1802277","0.0-333.0-0.0","213","","","","50","1,0,1","6","blank","286","null","0.48490149143992045","0.17191859649078708","0.8570204546635103","0","","","","","",""
"","do_trial","359","1805929","0.0-334.0-0.0","86.19999998807907","","","","50","0,0,1","6","blank","287","null","0.42489129243590307","0.13971710007094384","0.9434895904667719","0","","","","","",""
"","do_trial","360","1810053","0.0-335.0-0.0","563.5999999940395","","","","51","1,0,1","6","blank","288","null","0.3792550156668076","0.13484797243859528","0.878242693958729","1","","","","","",""
"","do_trial","361","1813901","0.0-336.0-0.0","283.70000000298023","","","","51","0,0,1","6","blank","289","null","0.4149119740667693","0.10798608651737963","0.7502821725532887","1","","","","","",""
"","do_trial","362","1817653","0.0-337.0-0.0","188.29999999701977","","","","51","1,0,1","6","blank","290","null","0.3085325102527225","0.0847359475399647","0.7101046638439124","1","","","","","",""
"","do_recog","363","1820657","0.0-338.0-0.0","1495.2999999970198","","","","56","","","","291","probe-212","","","","","1","[object Object]","128","3","1",""
"","do_trial","364","1824746","0.0-339.0-0.0","520","","","","51","0,1,1","6","blank","292","null","0.3660368170786278","0.08109997574015446","0.6756350499099673","1","","","","","",""
"","do_trial","365","1828354","0.0-340.0-0.0","45.400000005960464","","","","51","0,0,1","6","blank","293","null","0.3078466312301901","0.09728463524231167","0.6441143982097981","1","","","","","",""
"","do_trial","366","1832040","0.0-341.0-0.0","124.3999999910593","","","","51","0,1,0","6","blank","294","null","0.3109067666359896","0.10625870429707038","0.7480582875278229","0","","","","","",""
"","do_recog","367","1835345","0.0-342.0-0.0","1796.2000000029802","","","","54","","","","295","probe-157","","","","","1","[object Object]","85","2","0",""
"","do_trial","368","1839037","0.0-343.0-0.0","129","","","","51","1,0,0","6","blank","296","null","0.3193472206752416","0.12982682837707235","0.7642297655842528","0","","","","","",""
"","do_recog","369","1842319","0.0-344.0-0.0","1772.9000000059605","","","","54","","","","297","probe-213","","","","","1","[object Object]","167","4","0",""
"","do_trial","370","1846310","0.0-345.0-0.0","427.19999998807907","","","","50","1,0,1","6","blank","298","null","0.3152462500150265","0.3896749938038188","0.6871300205320353","0","","","","","",""
"","do_trial","371","1850193","0.0-346.0-0.0","317.5","","","","49","0,0,1","6","blank","299","null","0.3371677707597684","0.6246651810194248","0.4229152467220491","0","","","","","",""
"","do_trial","372","1853760","0.0-347.0-0.0","0.20000000298023224","","","","50","0,1,0","6","blank","300","null","0.3005284812726327","0.7043614058806458","0.29555747760749446","1","","","","","",""
"","do_trial","373","1858013","0.0-348.0-0.0","691.2999999970198","","","","50","0,1,0","6","blank","301","null","0.35919118837110836","0.8152538744291569","0.12728976379764595","1","","","","","",""
"","do_recog","374","1861355","0.0-349.0-0.0","1830.7999999970198","","","","55","","","","302","probe-216","","","","","1","[object Object]","203","5","1",""
"","do_trial","375","1866807","0.0-350.0-0.0","1890","","","","51","0,1,0","6","blank","303","null","0.47790543597693913","0.7591246661205557","0.10240015044734596","0","","","","","",""
"","do_trial","376","1871130","0.0-351.0-0.0","760.9000000059605","","","","50","1,1,0","6","blank","304","null","0.4941524399963852","0.8647733271859093","0.08387448850102965","1","","","","","",""
"","do_trial","377","1875066","0.0-352.0-0.0","328.59999999403954","","","","50","0,1,0","6","blank","305","null","0.4200128228623582","0.9184897294001064","0.07188319834660335","1","","","","","",""
"","do_trial","378","1878973","0.0-353.0-0.0","345.59999999403954","","","","50","0,1,0","6","blank","306","null","0.3710144975708907","0.8878659969850005","0.23385515031480336","1","","","","","",""
"","do_recog","379","1882301","0.0-354.0-0.0","1818.7000000029802","","","","55","","","","307","probe-132","","","","","1","[object Object]","45","1","1",""
"","do_trial","380","1886499","0.0-355.0-0.0","636.2999999970198","","","","50","1,1,0","6","blank","308","null","0.3309653845046412","0.8314222717497072","0.13207878826708253","1","","","","","",""
"","do_recog","381","1889979","0.0-356.0-0.0","1969.300000011921","","","","54","","","","309","probe-255","","","","","0","[object Object]","null","null","1",""
"","do_trial","382","1894019","0.0-357.0-0.0","476.8999999910593","","","","50","0,1,0","6","blank","310","null","0.2721139741677327","0.8717294632593757","0.06394113815153654","1","","","","","",""
"","do_recog","383","1897160","0.0-358.0-0.0","1632.2000000029802","","","","55","","","","311","probe-204","","","","","1","[object Object]","169","4","1",""
"","do_trial","384","1901385","0.0-359.0-0.0","659","","","","51","1,1,0","6","blank","312","null","0.28677610617240046","0.9161273666344028","0.13670412170814938","0","","","","","",""
"","do_recog","385","1904449","0.0-360.0-0.0","1553.6000000089407","","","","56","","","","313","probe-99","","","","","1","[object Object]","166","4","1",""
"","do_trial","386","1908300","0.0-361.0-0.0","286.29999999701977","","","","50","1,1,0","6","blank","314","null","0.27374187651412335","0.8929049702599724","0.10873401588346598","1","","","","","",""
"","do_trial","387","1912149","0.0-362.0-0.0","284.59999999403954","","","","50","0,1,0","6","blank","315","null","0.26801560782802797","0.8612351910729215","0.1954083741178053","1","","","","","",""
"","do_recog","388","1915190","0.0-363.0-0.0","1530.3999999910593","","","","54","","","","316","probe-155","","","","","1","[object Object]","168","4","0",""
"","do_trial","389","1918804","0.0-364.0-0.0","50.5","","","","50","0,0,1","6","blank","317","null","0.3769294683518472","0.7491272424802686","0.19656284155579834","0","","","","","",""
"","do_recog","390","1922336","0.0-365.0-0.0","2023.9000000059605","","","","56","","","","318","probe-49","","","","","1","[object Object]","88","2","1",""
"","do_trial","391","1925909","0.0-366.0-0.0","10.299999997019768","","","","49","1,1,0","6","blank","319","null","0.5355399494634709","0.9159841859503464","0.10651178433601001","1","","","","","",""
"","do_recog","392","1929345","0.0-367.0-0.0","1926.2999999970198","","","","54","","","","320","probe-150","","","","","1","[object Object]","204","5","0",""
"","do_trial","393","1932908","0.0-368.0-0.0","0.20000000298023224","","","","49","0,1,0","6","blank","321","null","0.5848541494747633","0.8182125832729155","0.22484564761623638","0","","","","","",""
"","do_recog","394","1936139","0.0-369.0-0.0","1721.300000011921","","","","54","","","","322","probe-251","","","","","0","[object Object]","null","null","1",""
"","do_trial","395","1939877","0.0-370.0-0.0","176.69999998807907","","","","50","1,1,0","6","blank","323","null","0.518863624497141","0.7050912522230637","0.05005102726207387","1","","","","","",""
"","do_recog","396","1943193","0.0-371.0-0.0","1805.7000000029802","","","","55","","","","324","probe-195","","","","","1","[object Object]","121","3","1",""
"","do_trial","397","1946756","0.0-372.0-0.0","0.30000001192092896","","","","50","0,0,0","6","blank","325","null","0.3651337638038374","0.668057886709978","0.110181720372894","0","","","","","",""
"","do_recog","398","1949799","0.0-373.0-0.0","1534","","","","55","","","","326","probe-167","","","","","1","[object Object]","40","1","1",""
"","do_trial","399","1953571","0.0-374.0-0.0","209.30000001192093","","","","51","0,1,0","6","blank","327","null","0.39864216887429893","1","0.1481124462976822","0","","","","","",""
"","do_trial","400","1957532","0.0-375.0-0.0","397.59999999403954","","","","50","1,1,0","6","blank","328","null","0.6243466398322326","0.8764727173439496","0.1481979266508357","1","","","","","",""
"","do_recog","401","1960614","0.0-376.0-0.0","1572.9000000059605","","","","56","","","","329","probe-01","","","","","1","[object Object]","87","2","1",""
"","do_trial","402","1964345","0.0-377.0-0.0","169.5","","","","51","1,1,0","6","blank","330","null","0.5198345784014755","0.6498822499351264","0.13465641775800513","0","","","","","",""
"","do_recog","403","1967398","0.0-378.0-0.0","1544","","","","55","","","","331","probe-159","","","","","1","[object Object]","47","1","1",""
"","do_trial","404","1970960","0.0-379.0-0.0","0.30000001192092896","","","","50","1,1,0","6","blank","332","null","0.5990894653343941","0.5783079304950737","0.15650771161039015","1","","","","","",""
"","do_recog","405","1975194","0.0-380.0-0.0","2723","","","","54","","","","333","probe-248","","","","","0","[object Object]","null","null","1",""
"","do_trial","406","1979120","0.0-381.0-0.0","362.20000000298023","","","","49","1,1,0","6","blank","334","null","0.5234304858220638","0.6930518241785824","0.2404939647396995","1","","","","","",""
"","do_trial","407","1982898","0.0-382.0-0.0","214.40000000596046","","","","49","0,0,0","6","blank","335","null","0.44365042099595686","0.7429980944965482","0.14916870714790367","0","","","","","",""
"","do_recog","408","1985927","0.0-383.0-0.0","1519.7000000029802","","","","55","","","","336","probe-173","","","","","1","[object Object]","42","1","1",""
"","do_trial","409","1989504","0.0-384.0-0.0","15.200000002980232","","","","50","0,1,0","6","blank","337","null","0.5490781034835144","0.7941463555420099","0.18925246366766105","1","","","","","",""
"","do_trial","410","1993405","0.0-385.0-0.0","336.79999999701977","","","","50","1,1,0","6","blank","338","null","0.5927533057681708","0.8834726062946102","0.0799125698655692","1","","","","","",""
"","do_trial","411","1997400","0.0-386.0-0.0","433.20000000298023","","","","50","0,1,0","6","blank","339","null","0.5986185766806296","0.7704432805146516","0.12679535319573848","1","","","","","",""
"","do_recog","412","2000754","0.0-387.0-0.0","1844.5","","","","54","","","","340","probe-115","","","","","1","[object Object]","49","1","0",""
"","do_trial","413","2004316","0.0-388.0-0.0","0.20000000298023224","","","","51","0,1,0","6","blank","341","null","0.5236407158455016","0.8570158804541375","0.194824992187294","0","","","","","",""
"","do_recog","414","2007458","0.0-389.0-0.0","1630","","","","53","","","","342","probe-156","","","","","1","[object Object]","41","1","0",""
"","do_trial","415","2011811","0.0-390.0-0.0","789","","","","50","1,0,0","6","blank","343","null","0.6790564201533763","0.6207869031863114","0.1827339559268512","0","","","","","",""
"","do_trial","416","2015495","0.0-391.0-0.0","123","","","","51","1,0,1","6","blank","344","null","0.7999906617114461","0.4427711085412939","0.17121892480665798","1","","","","","",""
"","do_trial","417","2019523","0.0-392.0-0.0","459.30000001192093","","","","51","1,0,0","6","blank","345","null","0.671225779809588","0.21115600977600335","0.32939828768823587","0","","","","","",""
"","do_trial","418","2023357","0.0-393.0-0.0","272.5","","","","49","1,0,0","6","blank","346","null","0.7770049714902635","0.21466233540812046","0.33707952644523276","1","","","","","",""
"","do_recog","419","2026865","0.0-394.0-0.0","1997.5","","","","55","","","","347","probe-96","","","","","1","[object Object]","165","4","1",""
"","do_trial","420","2030529","0.0-395.0-0.0","97.70000000298023","","","","49","0,1,1","6","blank","348","null","0.6704880518369549","0.054570660669760025","0.29755532457167055","0","","","","","",""
"","do_recog","421","2033727","0.0-396.0-0.0","1688.7000000029802","","","","54","","","","349","probe-143","","","","","1","[object Object]","202","5","0",""
"","do_trial","422","2037291","0.0-397.0-0.0","0.19999998807907104","","","","50","1,0,0","6","blank","350","null","0.6982535686178684","0.07700610778413614","0.27442840072535407","0","","","","","",""
"","do_recog","423","2040505","0.0-398.0-0.0","1703.2000000029802","","","","55","","","","351","probe-144","","","","","1","[object Object]","86","2","1",""
"","do_trial","424","2044166","0.0-399.0-0.0","94.59999999403954","","","","51","1,0,1","6","blank","352","null","0.635518256805753","0.08861531763998365","0.33569333215629665","1","","","","","",""
"","do_recog","425","2047291","0.0-400.0-0.0","1615.0999999940395","","","","56","","","","353","probe-191","","","","","1","[object Object]","207","5","1",""
"","do_trial","426","2051345","0.0-401.0-0.0","490.79999999701977","","","","51","0,0,0","6","blank","354","null","0.6591299698651605","0.087929916963694","0.3821309975815524","0","","","","","",""
"","do_recog","427","2055776","0.0-402.0-0.0","2920.4000000059605","","","","55","","","","355","probe-120","","","","","1","[object Object]","81","2","1",""
"","do_trial","428","2059905","0.0-403.0-0.0","564.5","","","","51","1,0,0","6","blank","356","null","0.8110601505602776","0.08069896592324302","0.44410906834527214","0","","","","","",""
"","do_recog","429","2063204","0.0-404.0-0.0","1789.2000000029802","","","","55","","","","357","probe-40","","","","","1","[object Object]","44","1","1",""
"","do_trial","430","2066912","0.0-405.0-0.0","144.5","","","","50","1,0,0","6","blank","358","null","0.8160341798500693","0.0792001039693848","0.4797448144378126","0","","","","","",""
"","do_trial","431","2070473","0.0-406.0-0.0","0.20000000298023224","","","","49","1,0,0","6","blank","359","null","0.7839860337482898","0.10166723896557489","0.5495666727837307","1","","","","","",""
"","do_trial","432","2074060","0.0-407.0-0.0","25.399999991059303","","","","49","0,0,1","6","blank","360","null","0.7280450503263322","0.1681730428610905","0.5742195875328585","0","","","","","",""
"","do_trial","433","2077922","0.0-408.0-0.0","298.40000000596046","","","","50","1,1,0","6","blank","361","null","0.7140971587144372","0.15518246847897468","0.669225062042163","1","","","","","",""
"","do_recog","434","2081163","0.0-409.0-0.0","1731.5","","","","54","","","","362","probe-257","","","","","0","[object Object]","null","null","1",""
"","do_trial","435","2084726","0.0-410.0-0.0","0.10000000894069672","","","","50","1,0,0","6","blank","363","null","0.7821077181401163","0.21831082770844973","0.4346156765337416","0","","","","","",""
"","do_recog","436","2088200","0.0-411.0-0.0","1962","","","","55","","","","364","probe-91","","","","","1","[object Object]","205","5","1",""
"","do_trial","437","2091873","0.0-412.0-0.0","106.30000001192093","","","","51","1,0,1","6","blank","365","null","0.8752664978658011","0.13452953307993312","0.4733598216545664","1","","","","","",""
"","do_recog","438","2095244","0.0-413.0-0.0","1861.7000000029802","","","","55","","","","366","probe-16","","","","","1","[object Object]","209","5","1",""
"","do_trial","439","2099125","0.0-414.0-0.0","316.59999999403954","","","","51","1,1,1","6","blank","367","null","0.884371595121762","0.1933450689224305","0.34833709180545186","1","","","","","",""
"","do_recog","440","2102141","0.0-415.0-0.0","1507","","","","55","","","","368","probe-88","","","","","1","[object Object]","163","4","1",""
"","do_trial","441","2105806","0.0-416.0-0.0","99.20000000298023","","","","49","1,1,0","6","blank","369","null","0.9336696906534997","0.07656124580032538","0.25387713202839585","1","","","","","",""
"","do_trial","442","2109551","0.0-417.0-0.0","183.5","","","","49","1,0,0","6","blank","370","null","0.7690215293186126","0.1000668672157005","0.2763028625771237","1","","","","","",""
"","do_trial","443","2113365","0.0-418.0-0.0","160.29999999701977","","","","49","1,0,0","6","blank","371","null","0.767971697877845","0.21532206241672167","0.20098376603361578","1","","","","","",""
"","do_recog","444","2117714","0.0-419.0-0.0","2840.2000000029802","","","","54","","","","372","probe-232","","","","","1","[object Object]","48","1","0",""
"","do_trial","445","2121309","0.0-420.0-0.0","29.299999997019768","","","","50","1,0,1","6","blank","373","null","0.9417107577327718","0.055199678075997946","0.2888280218651316","0","","","","","",""
"","do_trial","446","2125222","0.0-421.0-0.0","350.79999999701977","","","","51","1,0,0","6","blank","374","null","1","0.16852457400313223","0.4240914823434929","0","","","","","",""
"","do_trial","447","2129221","0.0-422.0-0.0","436.70000000298023","","","","50","1,0,1","6","blank","375","null","0.9045050224976287","0.10265227328149201","0.4640220607056624","0","","","","","",""
"","do_trial","448","2133121","0.0-423.0-0.0","336.20000000298023","","","","49","1,0,1","6","blank","376","null","0.8561244919480417","0.1270954720024195","0.3521638247104515","1","","","","","",""
"","do_recog","449","2136422","0.0-424.0-0.0","1791.4000000059605","","","","54","","","","377","probe-90","","","","","1","[object Object]","125","3","0",""
"","do_trial","450","2140023","0.0-425.0-0.0","39.400000005960464","","","","50","1,0,1","6","blank","378","null","0.7085936446675348","0.0780723467686265","0.36624879945134015","0","","","","","",""
"","do_recog","451","2143126","0.0-426.0-0.0","1594.7000000029802","","","","56","","","","379","probe-87","","","","","1","[object Object]","84","2","1",""
"","do_trial","452","2146771","0.0-427.0-0.0","79.70000000298023","","","","51","1,0,0","6","blank","380","null","0.7518363827121683","0.20091265246484327","0.2508813291244001","0","","","","","",""
"","do_recog","453","2150453","0.0-428.0-0.0","2171.5","","","","54","","","","381","probe-44","","","","","1","[object Object]","124","3","0",""
"","do_trial","454","2154017","0.0-429.0-0.0","0.20000000298023224","","","","50","1,0,0","6","blank","382","null","0.6974806774395954","0.13083671042837242","0.38498627156761417","0","","","","","",""
"","do_recog","455","2156994","0.0-430.0-0.0","1467.7000000029802","","","","55","","","","383","probe-58","","","","","1","[object Object]","160","4","1",""
"","do_trial","456","2160655","0.0-431.0-0.0","97.80000001192093","","","","49","1,1,0","6","blank","384","null","0.7728677026847802","0.1823742263296481","0.329259012489202","1","","","","","",""
"","do_recog","457","2164104","0.0-432.0-0.0","1939.5","","","","54","","","","385","probe-34","","","","","1","[object Object]","127","3","0",""
"","do_trial","458","2167671","0.0-433.0-0.0","0.10000000894069672","","","","51","1,0,1","6","blank","386","null","0.8610461469236036","0.1239192350692466","0.3041208423676083","1","","","","","",""
"","do_recog","459","2170738","0.0-434.0-0.0","1557.5999999940395","","","","55","","","","387","probe-194","","","","","1","[object Object]","82","2","1",""
"","do_trial","460","2174303","0.0-435.0-0.0","0.20000000298023224","","","","51","1,0,1","6","blank","388","null","0.8251461810974425","0.19633168552164457","0.4522168235659773","1","","","","","",""
"","do_trial","461","2178284","0.0-436.0-0.0","417.5","","","","51","1,0,1","6","blank","389","null","0.8547218702265238","0.21163757036119507","0.33922457581923615","1","","","","","",""
"","do_trial","462","2182132","0.0-437.0-0.0","284.70000000298023","","","","51","1,0,0","6","blank","390","null","0.6994105603425166","0.12550706047807095","0.5267284534427545","0","","","","","",""
"","do_recog","463","2185010","0.0-438.0-0.0","1364.7999999970198","","","","55","","","","391","probe-02","","","","","1","[object Object]","120","3","1",""
"","do_trial","464","2188632","0.0-439.0-0.0","59.79999999701977","","","","50","1,0,1","6","blank","392","null","0.6181257161575381","0.06553159339326317","0.6315187093852668","0","","","","","",""
"","do_trial","465","2192493","0.0-440.0-0.0","298.5","","","","49","0,0,1","6","blank","393","null","0.5198888934103733","0.10386391982071107","0.7939131412213664","0","","","","","",""
"","do_trial","466","2196134","0.0-441.0-0.0","81.29999999701977","","","","51","1,0,1","6","blank","394","null","0.41873447552679127","0.17143146684431315","0.821099045451395","1","","","","","",""
"","do_trial","467","2200175","0.0-442.0-0.0","479","","","","51","1,0,0","6","blank","395","null","0.3494656004871798","0.11693796278687427","0.7648751658624731","0","","","","","",""
"","do_trial","468","2203843","0.0-443.0-0.0","105.40000000596046","","","","50","0,0,1","6","blank","396","null","0.5040189823253813","0.16714402251134225","0.6349505750421992","0","","","","","",""
"","do_trial","469","2207406","0.0-444.0-0.0","0.20000000298023224","","","","49","0,1,1","6","blank","397","null","0.36277549553438404","0.24054614045652625","0.7881158562253363","0","","","","","",""
"","do_recog","470","2210759","0.0-445.0-0.0","1843.2000000029802","","","","55","","","","398","probe-100","","","","","1","[object Object]","129","3","1",""
"","do_trial","471","2214326","0.0-446.0-0.0","0.20000000298023224","","","","50","0,0,0","6","blank","399","null","0.4821376677939202","0.212325200097991","0.6922440842912024","0","","","","","",""
"","do_recog","472","2218191","0.0-447.0-0.0","2355","","","","54","","","","400","probe-196","","","","","1","[object Object]","43","1","0",""
"","do_trial","473","2221932","0.0-448.0-0.0","177.40000000596046","","","","51","1,0,0","6","blank","401","null","0.31116103656317884","0.1687460521039154","0.7140425458571348","0","","","","","",""
"","do_trial","474","2226433","0.0-449.0-0.0","937.8999999910593","","","","51","1,0,1","6","blank","402","null","0.33846630576349823","0.29447889106412956","0.6982306187811022","1","","","","","",""
"","do_trial","475","2230507","0.0-450.0-0.0","511.09999999403954","","","","51","1,0,0","6","blank","403","null","0.4554398415113879","0.22532291318048114","0.683244745339051","0","","","","","",""
"","do_recog","476","2233651","0.0-451.0-0.0","1633.5","","","","55","","","","404","probe-152","","","","","1","[object Object]","162","4","1",""
"","do_trial","477","2237319","0.0-452.0-0.0","101.59999999403954","","","","50","0,0,0","6","blank","405","null","0.3164368003380808","0.06561099329556397","0.6784960016122782","0","","","","","",""
"","do_recog","478","2240206","0.0-453.0-0.0","1377.7000000029802","","","","55","","","","406","probe-177","","","","","1","[object Object]","201","5","1",""
"","do_trial","479","2243857","0.0-454.0-0.0","88.19999998807907","","","","49","1,0,1","6","blank","407","null","0.41779751502218615","0.07936750839419549","0.7141703696024376","1","","","","","",""
