"success","trial_type","trial_index","time_elapsed","internal_node_id","rt","stimulus","key_press","subject_id","participant_id","age","gender","prompt","response","choice_outcomes","context_n","context_img_id","trial_n","probe_img_id","pR_red","pR_white","pR_black","outcome","contextArray_ind","validImageProbes","invalidImageProbes","pRew_Red","pRew_White","pRew_Black","availableForMemProbe","choice_blocks"
"true","fullscreen","0","10009","0.0-0.0","","","","","","","","","","","","","","","","","","","","","","","","","",""
"","pavlovia","1","10013","0.0-1.0","","","","","","","","","","","","","","","","","","","","","","","","","",""
"","instruc1","2","61102","0.0-2.0","null","run_exp/static/audio/clip_1_welcome.m4a","null","000","000","10","female","<div class='center'><p>Welcome! This is the first part of the experiment. It will last ~30 minutes. In this experiment, you are the head captain of a pirate ship traveling around the world to different islands. You will play a few different games during this experiment. Here is an overview of these games:</p><br><p>Part 1 (today)</p><p>1. Instructions, practice game, and quiz</p><p>2. Pick a pirate game on 6 different islands</p><br><p>Part 2 (1 day later)</p><p>3. Pick a pirate game and memory game</p><p>4. Where did I see this ship? game</p><p>5. Which pirate was the best? game</p><br><p>Part 3 (1 week later)</p><p>6. Memory game</p></div>","","","","","","","","","","","","","","","","","",""
"","html-keyboard-response","3","72469","0.0-3.0","11365.074999979697","<div class='center'><p>Welcome! This is the first part of the experiment. It will last ~30 minutes. In this experiment, you are the head captain of a pirate ship traveling around the world to different islands. You will play a few different games during this experiment. Here is an overview of these games:</p><br><p>Part 1 (today)</p><p>1. Instructions, practice game, and quiz</p><p>2. Pick a pirate game on 6 different islands</p><br><p>Part 2 (1 day later)</p><p>3. Pick a pirate game and memory game</p><p>4. Where did I see this ship? game</p><p>5. Which pirate was the best? game</p><br><p>Part 3 (1 week later)</p><p>6. Memory game</p><p><b>[Press the space bar to continue]</b></p></div>","32","","","","","","","","","","","","","","","","","","","","","","",""
"","instruc2","4","80436","0.0-4.0","null","run_exp/static/audio/clip_2_different_places.m4a","null","","","","","<div class='center'><p>Today, you’ll visit these 6 islands on your journey. You'll be able to see these islands from your ship.</p><p><img src='run_exp/static/images/contexts/all_contexts.png' height='500'></p></div>","","","","","","","","","","","","","","","","","",""
"","html-keyboard-response","5","107624","0.0-5.0","27187.345000100322","<div class='center'><p>Today, you’ll visit these 6 islands on your journey. You'll be able to see these islands from your ship.</p><p><img src='run_exp/static/images/contexts/all_contexts.png' height='500'></p><p><b>[Press the space bar to continue]</b></p></div>","32","","","","","","","","","","","","","","","","","","","","","","",""
"","instruc3","6","120154","0.0-6.0","null","run_exp/static/audio/clip_3_goal_of_game_1.m4a","null","","","","","<div class='center'><p> The pirates on your ship will rob other ships as they leave the island</p> These ships have just sold their things to people on the island, so they will be filled with lots and lots of gold.</p><p><img src='run_exp/static/images/tutorial/ship_center.png' height='400'></p></div>","","","","","","","","","","","","","","","","","",""
"","html-keyboard-response","7","149450","0.0-7.0","29294.815000030212","<div class='center'><p> The pirates on your ship will rob other ships as they leave the island</p> These ships have just sold their things to people on the island, so they will be filled with lots and lots of gold.</p><p><img src='run_exp/static/images/tutorial/ship_center.png' height='400'></p><p><b>[Press the space bar to continue]</b></p></div>","32","","","","","","","","","","","","","","","","","","","","","","",""
"","instruc4","8","182729","0.0-8.0","null","run_exp/static/audio/clip_4_goal_of_game_2.m4a","null","","","","","<div class='center'><p>As the head captain, you do not have to rob any ships yourself.</p><p>Another pirate will be doing the robbing for you. </p><p>First, you will  choose a pirate to rob the next ship.</p><p><img src='run_exp/static/images/tutorial/pirates_all_crop.png' height='200'></p><p>Then, you'll see if the pirate successfully robbed the ship of their gold. If they were successful, then you'll  get a stack of gold coins like this:</p><p><img src='run_exp/static/images/tutorial/reward.png' height='150'></p><p> If they were <b>not</b> successful, then you'll get no gold coins, and you'll see a big red x like this: </p><p><img src='run_exp/static/images/tutorial/reward_no.png' height='150'></p><p> How much bonus money you make is based on how many gold coins you collect.</p><div>","","","","","","","","","","","","","","","","","",""
"","html-keyboard-response","9","185011","0.0-9.0","2280.4000000469387","<div class='center'><p>As the head captain, you do not have to rob any ships yourself.</p><p>Another pirate will be doing the robbing for you. </p><p>First, you will  choose a pirate to rob the next ship.</p><p><img src='run_exp/static/images/tutorial/pirates_all_crop.png' height='200'></p><p>Then, you'll see if the pirate successfully robbed the ship of their gold. If they were successful, then you'll  get a stack of gold coins like this:</p><p><img src='run_exp/static/images/tutorial/reward.png' height='150'></p><p> If they were <b>not</b> successful, then you'll get no gold coins, and you'll see a big red x like this: </p><p><img src='run_exp/static/images/tutorial/reward_no.png' height='150'></p><p> How much bonus money you make is based on how many gold coins you collect.</p<p><b>[Press the space bar to continue]</b></p></div>","32","","","","","","","","","","","","","","","","","","","","","","",""
"","instruc5","10","188418","0.0-10.0","3404.850000049919","run_exp/static/audio/clip_5_probabilistic.m4a","49","","","","","<div class='center'><p>Even the most skilled pirate can not rob EVERY ship.</p><p> Some ships will have very strong protections against pirate attacks.</p><p> Blue beard, here, is very, very good at robbing ships, but he won't be successful every time he tries to rob one.</p><p> You can press the <b>‘1’</b> key on the keyboard to choose him.</p><p> Try choosing him 10 times to see how often he succeeds at robbing a ship. </p><p><img src='run_exp/static/images/tutorial/blue.png' height='500'></p></div>","","","","","","","","","","","","","","","","","",""
"","html-keyboard-response","11","189922","0.0-11.0","null","<div class='center'><p><img src='run_exp/static/images/tutorial/blue_win.png' height='500'></p></div>","null","","","","","","","","","","","","","","","","","","","","","","",""
"","html-keyboard-response","12","191096","0.0-12.0","1172.939999960363","<div class='center'><img src='run_exp/static/images/tutorial/blue.png' height='500'></p></div>","49","","","","","","","","","","","","","","","","","","","","","","",""
"","html-keyboard-response","13","192601","0.0-13.0","null","<div class='center'><p><img src='run_exp/static/images/tutorial/blue_win.png' height='500'></p></div>","null","","","","","","","","","","","","","","","","","","","","","","",""
"","html-keyboard-response","14","192943","0.0-14.0","341.734999907203","<div class='center'><img src='run_exp/static/images/tutorial/blue.png' height='500'></p></div>","49","","","","","","","","","","","","","","","","","","","","","","",""
"","html-keyboard-response","15","194444","0.0-15.0","null","<div class='center'><p><img src='run_exp/static/images/tutorial/blue_win.png' height='500'></p></div>","null","","","","","","","","","","","","","","","","","","","","","","",""
"","html-keyboard-response","16","194733","0.0-16.0","287.6049999613315","<div class='center'><img src='run_exp/static/images/tutorial/blue.png' height='500'></p></div>","49","","","","","","","","","","","","","","","","","","","","","","",""
"","html-keyboard-response","17","196234","0.0-17.0","null","<div class='center'><p><img src='run_exp/static/images/tutorial/blue_no_win.png' height='500'></p></div>","null","","","","","","","","","","","","","","","","","","","","","","",""
"","html-keyboard-response","18","196505","0.0-18.0","270.31000005081296","<div class='center'><img src='run_exp/static/images/tutorial/blue.png' height='500'></p></div>","49","","","","","","","","","","","","","","","","","","","","","","",""
"","html-keyboard-response","19","198007","0.0-19.0","null","<div class='center'><p><img src='run_exp/static/images/tutorial/blue_win.png' height='500'></p></div>","null","","","","","","","","","","","","","","","","","","","","","","",""
"","html-keyboard-response","20","198284","0.0-20.0","276.80999995209277","<div class='center'><img src='run_exp/static/images/tutorial/blue.png' height='500'></p></div>","49","","","","","","","","","","","","","","","","","","","","","","",""
"","html-keyboard-response","21","199786","0.0-21.0","null","<div class='center'><p><img src='run_exp/static/images/tutorial/blue_win.png' height='500'></p></div>","null","","","","","","","","","","","","","","","","","","","","","","",""
"","html-keyboard-response","22","200051","0.0-22.0","263.87000002432615","<div class='center'><img src='run_exp/static/images/tutorial/blue.png' height='500'></p></div>","49","","","","","","","","","","","","","","","","","","","","","","",""
"","html-keyboard-response","23","201557","0.0-23.0","null","<div class='center'><p><img src='run_exp/static/images/tutorial/blue_win.png' height='500'></p></div>","null","","","","","","","","","","","","","","","","","","","","","","",""
"","html-keyboard-response","24","201884","0.0-24.0","325.539999990724","<div class='center'><img src='run_exp/static/images/tutorial/blue.png' height='500'></p></div>","49","","","","","","","","","","","","","","","","","","","","","","",""
"","html-keyboard-response","25","203390","0.0-25.0","null","<div class='center'><p><img src='run_exp/static/images/tutorial/blue_no_win.png' height='500'></p></div>","null","","","","","","","","","","","","","","","","","","","","","","",""
"","html-keyboard-response","26","203903","0.0-26.0","511.61000004503876","<div class='center'><img src='run_exp/static/images/tutorial/blue.png' height='500'></p></div>","49","","","","","","","","","","","","","","","","","","","","","","",""
"","html-keyboard-response","27","205405","0.0-27.0","null","<div class='center'><p><img src='run_exp/static/images/tutorial/blue_win.png' height='500'></p></div>","null","","","","","","","","","","","","","","","","","","","","","","",""
"","html-keyboard-response","28","205699","0.0-28.0","293.15499996300787","<div class='center'><img src='run_exp/static/images/tutorial/blue.png' height='500'></p></div>","49","","","","","","","","","","","","","","","","","","","","","","",""
"","html-keyboard-response","29","207201","0.0-29.0","null","<div class='center'><p><img src='run_exp/static/images/tutorial/blue_win.png' height='500'></p></div>","null","","","","","","","","","","","","","","","","","","","","","","",""
"","instruc6","30","213803","0.0-30.0","null","run_exp/static/audio/clip_6_blue_beard_outcome.m4a","null","","","","","<div class='center'><p> See, he succeeded in robbing the ships most of the time but not every time. </p></div>","","","","","","","","","","","","","","","","","",""
"","html-keyboard-response","31","220902","0.0-31.0","7097.7300000377","<div class='center'><p> See, he succeeded in robbing the ships most of the time but not every time. </p><p><b>[Press the space bar to continue]</b></p></div>","32","","","","","","","","","","","","","","","","","","","","","","",""
"","audio-keyboard-response","32","222912","0.0-32.0","2009.2599999625236","run_exp/static/audio/clip_7_pick_pirate.m4a","49","","","","","","","","","","","","","","","","","","","","","","",""
"","audio-keyboard-response","33","223749","0.0-33.0-0.0","835.4200000176206","run_exp/static/audio/clip_8_chosen_pirate_win.m4a","32","","","","","","","","","","","","","","","","","","","","","","",""
"","audio-keyboard-response","34","224329","0.0-33.0-1.0","578.7600000621751","run_exp/static/audio/clip_9_pick_a_pirate_again.m4a","50","","","","","","","","","","","","","","","","","","","","","","",""
"","audio-keyboard-response","35","224681","0.0-34.0-0.0","351.2949999421835","run_exp/static/audio/clip_10_chosen_pirate_loss.m4a","32","","","","","","","","","","","","","","","","","","","","","","",""
"","instruc9","36","231829","0.0-35.0-0.0","null","run_exp/static/audio/clip_11_time_out.m4a","null","","","","","<div class='center'><p>If you don’t make your choice fast enough, you’ll have to wait a few seconds before you can make another one. </p><p><img src='run_exp/static/images/miscellaneous/hurry_up.png' height='500'></p></div>","","","","","","","","","","","","","","","","","",""
"","html-keyboard-response","37","267190","0.0-35.0-1.0","35360.010000062175","<div class='center'><p>If you don’t make your choice fast enough, you’ll have to wait a few seconds before you can make another one. </p><p><img src='run_exp/static/images/miscellaneous/hurry_up.png' height='500'></p><p><b>[Press the space bar to continue]</b></p></div>","32","","","","","","","","","","","","","","","","","","","","","","",""
"","instruc10","38","315778","0.0-35.0-2.0","null","run_exp/static/audio/clip_12_probe.m4a","null","","","","","<div class='center'><p>Once you've choose a pirate, you’ll be shown the ship they are robbing.</p><p>You will never rob the same ship twice. After all, ships that have already been robbed won’t have gold on them. </p><p>Ships can be told apart from one another by the image on them. See, this one has a travel mug on it. </p><p> You’ll have to remember which island you saw each ship on.You will win more bonus money if you remember correctly! To help you remember, you can imagine a story. For example, here, you could imagine a mug full of water in the desert. Or, as another example, if on the forest island, your pirate robbed a ship with an apple on it, you could imagine an apple falling from a tree in the forest. </p><p><img src='run_exp/static/images/tutorial/example_probe.png' height='500'></p></div>","","","","","","","","","","","","","","","","","",""
"","html-keyboard-response","39","322501","0.0-35.0-3.0","6720.770000014454","<div class='center'><p>Once you've choose a pirate, you’ll be shown the ship they are robbing.</p><p>You will never rob the same ship twice. After all, ships that have already been robbed won’t have gold on them. </p><p>Ships can be told apart from one another by the image on them. See, this one has a travel mug on it. </p><p> You’ll have to remember which island you saw each ship on.You will win more bonus money if you remember correctly! To help you remember, you can imagine a story. For example, here, you could imagine a mug full of water in the desert. Or, as another example, if on the forest island, your pirate robbed a ship with an apple on it, you could imagine an apple falling from a tree in the forest. </p><p><img src='run_exp/static/images/tutorial/example_probe.png' height='500'></p><p><b>[Press the space bar to continue]</b></p></div>","32","","","","","","","","","","","","","","","","","","","","","","",""
"","instruc11","40","343383","0.0-35.0-4.0","null","run_exp/static/audio/clip_13_changepoint.m4a","null","","","","","<div class='center'><p>How successful a pirate is at robbing ships will depend on the island you’re on.</p><p> A pirate may have visited this island many times before and gained a lot of practice robbing ships there.</p><p>So, they’re more likely to be successful than a pirate who has never visited the island before.</p></div>","","","","","","","","","","","","","","","","","",""
"","html-keyboard-response","41","373781","0.0-35.0-5.0","30397.819999954663","<div class='center'><p>How successful a pirate is at robbing ships will depend on the island you’re on.</p><p> A pirate may have visited this island many times before and gained a lot of practice robbing ships there.</p><p>So, they’re more likely to be successful than a pirate who has never visited the island before.</p><p><b>[Press the space bar to continue]</b></p></div>","32","","","","","","","","","","","","","","","","","","","","","","",""
"","instruc12","42","401762","0.0-35.0-6.0","null","run_exp/static/audio/clip_14_drift.m4a","null","","","","","<div class='center'><p>How successful a pirate is at robbing ships can also change over the time spent on the island. </p><p> Ships may hear from islanders about the pirates coming and will improve their protections against the attack. This may make it harder to rob them.</p><p> Ships may also become lazy and weaken the strength of their protections. This may make it easier to rob them.</p><br><p>Things are always changing on the high seas! So, try your best to pay attention!</p><p><img src='run_exp/static/images/tutorial/contingency.png' height='500'></p></div>","","","","","","","","","","","","","","","","","",""
"","html-keyboard-response","43","438113","0.0-35.0-7.0","36350.48500006087","<div class='center'><p>How successful a pirate is at robbing ships can also change over the time spent on the island. </p><p> Ships may hear from islanders about the pirates coming and will improve their protections against the attack. This may make it harder to rob them.</p><p> Ships may also become lazy and weaken the strength of their protections. This may make it easier to rob them.</p><br><p>Things are always changing on the high seas! So, try your best to pay attention!</p><p><img src='run_exp/static/images/tutorial/contingency.png' height='500'></p><p><b>[Press the space bar to continue]</b></p></div>","32","","","","","","","","","","","","","","","","","","","","","","",""
"","instruc13","44","483285","0.0-35.0-8.0","null","run_exp/static/audio/clip_15_summary.m4a","null","","","","","<div class='center'><p>Let's go over the instructions quickly again. You have two important things to do: </p><b><p> 1. Pick the pirate who is the best at robbing ships on the current island. This way you'll collect more gold coins!</p></b><b><p> 2. Remember on which island a ship was robbed.</p> </b><p>The amount of bonus money you can win depends on both.</p><p><br><p>Let’s try a practice game. The game will start by showing you the pirates. First, pick a pirate using the <b> 1, 2, 3 </b> keys on your keyboard. When you are shown a ship, try to remember which island you’re on by making up a story.</p><p>This is just a practice game, so you’re not playing for money. </p><p> Good luck! This game will be very difficult but try your best!</p></div>","","","","","","","","","","","","","","","","","",""
"","html-keyboard-response","45","533381","0.0-35.0-9.0","50095.57500004303","<div class='center'><p>Let's go over the instructions quickly again. You have two important things to do: </p><b><p> 1. Pick the pirate who is the best at robbing ships on the current island. This way you'll collect more gold coins!</p></b><b><p> 2. Remember on which island a ship was robbed.</p> </b><p>The amount of bonus money you can win depends on both.</p><p><br><p>Let’s try a practice game. The game will start by showing you the pirates. First, pick a pirate using the <b> 1, 2, 3 </b> keys on your keyboard. When you are shown a ship, try to remember which island you’re on by making up a story.</p><p>This is just a practice game, so you’re not playing for money. </p><p> Good luck! This game will be very difficult but try your best!</p><p><b>[Press the space bar to continue]</b></p></div>","32","","","","","","","","","","","","","","","","","","","","","","",""
"","do_welcome","46","537389","0.0-35.0-10.0","null","","","","","","","","null","","","","","","","","","","","","","","","","",""
"","do_trial","47","543334","0.0-35.0-11.0","1432.9150000121444","","","","","","","","49","1,0,0","","","","","","","","","","","","","","","",""
"","html-keyboard-response","48","544338","0.0-36.0-0.0","null","<p></p>","null","","","","","","","","","","","","","","","","","","","","","","",""
"","do_trial","49","550244","0.0-36.0-1.0","1393.104999908246","","","","","","","","49","1,1,0","","","","","","","","","","","","","","","",""
"","html-keyboard-response","50","551249","0.0-37.0-0.0","null","<p></p>","null","","","","","","","","","","","","","","","","","","","","","","",""
"","do_trial","51","556031","0.0-37.0-1.0","268.96000001579523","","","","","","","","49","1,0,1","","","","","","","","","","","","","","","",""
"","html-keyboard-response","52","557036","0.0-38.0-0.0","null","<p></p>","null","","","","","","","","","","","","","","","","","","","","","","",""
"","do_trial","53","562218","0.0-38.0-1.0","671.9550000270829","","","","","","","","49","0,1,0","","","","","","","","","","","","","","","",""
"","html-keyboard-response","54","563221","0.0-39.0-0.0","null","<p></p>","null","","","","","","","","","","","","","","","","","","","","","","",""
"","do_trial","55","567836","0.0-39.0-1.0","106.44000000320375","","","","","","","","49","1,0,0","","","","","","","","","","","","","","","",""
"","do_bye","56","569344","0.0-40.0-0.0","null","","","","","","","","null","","","","","","","","","","","","","","","","",""
"","do_travel","57","578350","0.0-40.0-1.0","null","","","","","","","","null","","","","","","","","","","","","","","","","",""
"","do_welcome","58","582359","0.0-40.0-2.0","null","","","","","","","","null","","","","","","","","","","","","","","","","",""
"","do_trial","59","587537","0.0-40.0-3.0","668.4849999146536","","","","","","","","49","1,0,0","","","","","","","","","","","","","","","",""
"","html-keyboard-response","60","588543","0.0-41.0-0.0","null","<p></p>","null","","","","","","","","","","","","","","","","","","","","","","",""
"","do_trial","61","593374","0.0-41.0-1.0","322.15000002179295","","","","","","","","49","1,0,1","","","","","","","","","","","","","","","",""
"","html-keyboard-response","62","594377","0.0-42.0-0.0","null","<p></p>","null","","","","","","","","","","","","","","","","","","","","","","",""
"","do_trial","63","599798","0.0-42.0-1.0","909.5499999821186","","","","","","","","49","1,1,0","","","","","","","","","","","","","","","",""
"","html-keyboard-response","64","600803","0.0-43.0-0.0","null","<p></p>","null","","","","","","","","","","","","","","","","","","","","","","",""
"","do_trial","65","605664","0.0-43.0-1.0","354.4199999887496","","","","","","","","49","0,0,1","","","","","","","","","","","","","","","",""
"","html-keyboard-response","66","606668","0.0-44.0-0.0","null","<p></p>","null","","","","","","","","","","","","","","","","","","","","","","",""
"","do_trial","67","611667","0.0-44.0-1.0","485.9250000445172","","","","","","","","49","1,0,1","","","","","","","","","","","","","","","",""
"","html-keyboard-response","68","612747","0.0-45.0-0.0","1078.0350000131875","<div class='center'><p><img src='run_exp/static/images/tutorial/prac_best_pirate.png'  height='500'></p></div>","49","","","","","","","","","","","","","","","","","","","","","","",""
"","html-keyboard-response","69","613533","0.0-46.0-0.0","785.5549999512732","<div class='center'><p>That's correct! Red beard was the best.</p><p><b>[Press the space bar to continue]</b></p></div>","32","","","","","","","","","","","","","","","","","","","","","","",""
"","html-keyboard-response","70","614266","0.0-46.0-1.0","732.8399999532849","<div class='center'><p><img src='run_exp/static/images/tutorial/prac_source.png'  height='500'></p></div>","50","","","","","","","","","","","","","","","","","","","","","","",""
"","html-keyboard-response","71","614783","0.0-47.0-0.0","515.914999996312","<div class='center'><p>That's correct! You saw this ship on the cavern island.</p><p><b>[Press the space bar to continue]</b></p></div>","32","","","","","","","","","","","","","","","","","","","","","","",""
"","quiz_beginning","72","628179","0.0-47.0-1.0","null","run_exp/static/audio/clip_16_quiz_intro.m4a","null","","","","","<div class='center'><p>Good job on the practice game! Now, you will be asked some true or false questions to make sure you really understand the rules of the game.</p><p> Press <b>'1'</b> on the keyboard for true and press <b>'2'</b> for false.</p></div>","","","","","","","","","","","","","","","","","",""
"","audio-keyboard-response","73","628663","0.0-47.0-2.0","482.81499999575317","run_exp/static/audio/clip_17_q1.m4a","50","","","","","","","","","","","","","","","","","","","","","","",""
"","correct","74","631614","0.0-48.0-0.0","null","run_exp/static/audio/clip_18_correct.m4a","null","","","","","<div class='center'><p>That's correct!</p></div>","","","","","","","","","","","","","","","","","",""
"","html-keyboard-response","75","632293","0.0-48.0-1.0","678.4200000111014","<div class='center'><p>That's correct!</p><p><b>[Press the space bar to continue]</b></p></div>","32","","","","","","","","","","","","","","","","","","","","","","",""
"","audio-keyboard-response","76","633502","0.0-48.0-2.0","1208.600000012666","run_exp/static/audio/clip_20_q2.m4a","50","","","","","","","","","","","","","","","","","","","","","","",""
"","correct","77","636458","0.0-49.0-0.0","null","run_exp/static/audio/clip_18_correct.m4a","null","","","","","<div class='center'><p>That's correct!</p></div>","","","","","","","","","","","","","","","","","",""
"","html-keyboard-response","78","636942","0.0-49.0-1.0","483.5200000088662","<div class='center'><p>That's correct!</p><p><b>[Press the space bar to continue]</b></p></div>","32","","","","","","","","","","","","","","","","","","","","","","",""
"","audio-keyboard-response","79","639268","0.0-49.0-2.0","2324.5800000149757","run_exp/static/audio/clip_22_q3.m4a","50","","","","","","","","","","","","","","","","","","","","","","",""
"","correct","80","642217","0.0-50.0-0.0","null","run_exp/static/audio/clip_18_correct.m4a","null","","","","","<div class='center'><p>That's correct!</p></div>","","","","","","","","","","","","","","","","","",""
"","html-keyboard-response","81","642826","0.0-50.0-1.0","607.9149999422953","<div class='center'><p>That's correct!</p><p><b>[Press the space bar to continue]</b></p></div>","32","","","","","","","","","","","","","","","","","","","","","","",""
"","audio-keyboard-response","82","643344","0.0-50.0-2.0","517.725000041537","run_exp/static/audio/clip_24_q4.m4a","49","","","","","","","","","","","","","","","","","","","","","","",""
"","correct","83","646335","0.0-51.0-0.0","null","run_exp/static/audio/clip_18_correct.m4a","null","","","","","<div class='center'><p>That's correct!</p></div>","","","","","","","","","","","","","","","","","",""
"","html-keyboard-response","84","646821","0.0-51.0-1.0","485.1699999999255","<div class='center'><p>That's correct!</p><p><b>[Press the space bar to continue]</b></p></div>","32","","","","","","","","","","","","","","","","","","","","","","",""
"","q_all_corr","85","655764","0.0-52.0-0.0","null","run_exp/static/audio/clip_27_quiz_all_correct.m4a","null","","","","","<div class='center'><p>Good job! You’re now ready to move on to the real game! Remember this game will be difficult but don't get discouraged and try your best!</p></div>","","","","","","","","","","","","","","","","","",""
"","html-keyboard-response","86","656554","0.0-52.0-1.0","789.5649999845773","<div class='center'><p>Good job! You’re now ready to move on to the real game! Remember this game will be difficult but don't get discouraged and try your best!</p><p><b>[Press the space bar to continue]</b></p></div>","32","","","","","","","","","","","","","","","","","","","","","","",""
"","do_welcome","87","660564","0.0-53.0-0.0","null","","","","","","","","null","","","","","","","","","","","","","","","","",""
"","do_trial","88","666649","0.0-54.0-0.0","1535.234999959357","","","","","","","","49","1,0,0","0","forest","0","probe-135","0.6","0.3","0.1","1","","","","","","","",""
"","html-keyboard-response","89","667654","0.0-54.0-1.0","null","<p></p>","null","","","","","","","","","","","","","","","","","","","","","","",""
"","do_trial","90","672437","0.0-55.0-0.0","234.33000000659376","","","","","","","","49","1,0,0","0","forest","1","probe-80","0.6695885140493737","0.19021097552294186","0.16167177130402055","1","","","","","","","",""
"","html-keyboard-response","91","673440","0.0-55.0-1.0","null","<p></p>","null","","","","","","","","","","","","","","","","","","","","","","",""
"","do_trial","92","678313","0.0-56.0-0.0","323.4049999155104","","","","","","","","49","1,0,0","0","forest","2","probe-69","0.8044733511375182","0.1813375614875695","0.12304056225070913","1","","","","","","","",""
"","html-keyboard-response","93","679318","0.0-56.0-1.0","null","<p></p>","null","","","","","","","","","","","","","","","","","","","","","","",""
"","do_trial","94","684331","0.0-57.0-0.0","463.4050000458956","","","","","","","","49","1,0,0","0","forest","3","probe-191","0.6560062305872201","0.3549038234157635","0.2432972058000601","1","","","","","","","",""
"","html-keyboard-response","95","685333","0.0-57.0-1.0","null","<p></p>","null","","","","","","","","","","","","","","","","","","","","","","",""
"","do_trial","96","690215","0.0-58.0-0.0","334.3049999093637","","","","","","","","49","1,0,0","0","forest","4","probe-199","0.6333409450747634","0.3654399127566535","0.12411729283923588","1","","","","","","","",""
"","html-keyboard-response","97","691220","0.0-58.0-1.0","null","<p></p>","null","","","","","","","","","","","","","","","","","","","","","","",""
"","do_trial","98","696261","0.0-59.0-0.0","490.30000006314367","","","","","","","","49","1,0,0","0","forest","5","probe-32","0.6162719152367373","0.39996603663120994","0.2260304077129035","1","","","","","","","",""
"","html-keyboard-response","99","697265","0.0-59.0-1.0","null","<p></p>","null","","","","","","","","","","","","","","","","","","","","","","",""
"","do_trial","100","702231","0.0-60.0-0.0","415.7300000078976","","","","","","","","49","1,1,0","0","forest","6","probe-93","0.6046191784483863","0.3590802745015074","0.054129354121888386","1","","","","","","","",""
"","html-keyboard-response","101","703233","0.0-60.0-1.0","null","<p></p>","null","","","","","","","","","","","","","","","","","","","","","","",""
"","do_trial","102","708450","0.0-61.0-0.0","663.7950000585988","","","","","","","","49","0,0,0","0","forest","7","probe-127","0.5323289883986883","0.4616859382434131","0.05535836378452822","0","","","","","","","",""
"","html-keyboard-response","103","709454","0.0-61.0-1.0","null","<p></p>","null","","","","","","","","","","","","","","","","","","","","","","",""
"","do_trial","104","714275","0.0-62.0-0.0","273.68500002194196","","","","","","","","49","1,0,0","0","forest","8","probe-182","0.621466154476674","0.225249833416128","0.09824787104910267","1","","","","","","","",""
"","html-keyboard-response","105","715280","0.0-62.0-1.0","null","<p></p>","null","","","","","","","","","","","","","","","","","","","","","","",""
"","do_trial","106","720062","0.0-63.0-0.0","235.02500005997717","","","","","","","","49","1,0,1","0","forest","9","probe-156","0.597772193273134","0.30032983004739994","0.2555526200509066","1","","","","","","","",""
"","html-keyboard-response","107","721067","0.0-63.0-1.0","null","<p></p>","null","","","","","","","","","","","","","","","","","","","","","","",""
"","do_trial","108","725959","0.0-64.0-0.0","346.67500003706664","","","","","","","","49","1,0,0","0","forest","10","probe-162","0.6536596600270616","0.19782009172946155","0.27787900856513625","1","","","","","","","",""
"","html-keyboard-response","109","726961","0.0-64.0-1.0","null","<p></p>","null","","","","","","","","","","","","","","","","","","","","","","",""
"","do_trial","110","731881","0.0-65.0-0.0","372.5550000090152","","","","","","","","49","0,0,0","0","forest","11","probe-116","0.7004437183335587","0.3317791711586987","0.22692846903957475","0","","","","","","","",""
"","html-keyboard-response","111","732886","0.0-65.0-1.0","null","<p></p>","null","","","","","","","","","","","","","","","","","","","","","","",""
"","do_trial","112","738071","0.0-66.0-0.0","636.3600000040606","","","","","","","","49","0,0,0","0","forest","12","probe-206","0.6840897030032198","0.2399074773588851","0.14144657411796865","0","","","","","","","",""
"","html-keyboard-response","113","739072","0.0-66.0-1.0","null","<p></p>","null","","","","","","","","","","","","","","","","","","","","","","",""
"","do_trial","114","743943","0.0-67.0-0.0","323.1099999975413","","","","","","","","49","0,1,0","0","forest","13","probe-203","0.7233095494567503","0.2728731254587099","0.061719108814176665","0","","","","","","","",""
"","html-keyboard-response","115","744947","0.0-67.0-1.0","null","<p></p>","null","","","","","","","","","","","","","","","","","","","","","","",""
"","do_trial","116","749985","0.0-68.0-0.0","490.0799999013543","","","","","","","","50","1,0,0","0","forest","14","probe-188","0.5348160883195201","0.18751508644083154","0.1947518492618485","0","","","","","","","",""
"","html-keyboard-response","117","750987","0.0-68.0-1.0","null","<p></p>","null","","","","","","","","","","","","","","","","","","","","","","",""
"","do_trial","118","755832","0.0-69.0-0.0","295.26499996427447","","","","","","","","50","0,1,0","0","forest","15","probe-212","0.43211797577252925","0.24502326540552954","0.1481838916390409","1","","","","","","","",""
"","html-keyboard-response","119","756839","0.0-69.0-1.0","null","<p></p>","null","","","","","","","","","","","","","","","","","","","","","","",""
"","do_trial","120","761625","0.0-70.0-0.0","237.89500002749264","","","","","","","","50","1,1,0","0","forest","16","probe-147","0.6214997731100275","0.10942358081914205","0.07045260757530204","1","","","","","","","",""
"","html-keyboard-response","121","762631","0.0-70.0-1.0","null","<p></p>","null","","","","","","","","","","","","","","","","","","","","","","",""
"","do_trial","122","768049","0.0-71.0-0.0","868.2600000174716","","","","","","","","50","0,1,0","0","forest","17","probe-125","0.6018048433441803","0.16056507972978204","0.055167735846255596","1","","","","","","","",""
"","html-keyboard-response","123","769054","0.0-71.0-1.0","null","<p></p>","null","","","","","","","","","","","","","","","","","","","","","","",""
"","do_trial","124","773989","0.0-72.0-0.0","390.3999999165535","","","","","","","","50","0,1,0","0","forest","18","probe-58","0.564302899708955","0.2658553590208124","0.1634079706788016","1","","","","","","","",""
"","html-keyboard-response","125","774994","0.0-72.0-1.0","null","<p></p>","null","","","","","","","","","","","","","","","","","","","","","","",""
"","do_trial","126","779913","0.0-73.0-0.0","366.75500008277595","","","","","","","","50","1,0,0","0","forest","19","probe-149","0.594527709769123","0.3120118972506788","0.14554349644268752","0","","","","","","","",""
"","html-keyboard-response","127","780918","0.0-73.0-1.0","null","<p></p>","null","","","","","","","","","","","","","","","","","","","","","","",""
"","do_trial","128","785916","0.0-74.0-0.0","451.30499999504536","","","","","","","","49","1,0,0","0","forest","20","probe-123","0.608623405779369","0.3614473790371934","0.0743482875289987","1","","","","","","","",""
"","html-keyboard-response","129","786918","0.0-74.0-1.0","null","<p></p>","null","","","","","","","","","","","","","","","","","","","","","","",""
"","do_trial","130","791521","0.0-75.0-0.0","54.18999993707985","","","","","","","","49","1,1,0","0","forest","21","probe-221","0.7166000515002063","0.3965473717500635","0.06326137421534896","1","","","","","","","",""
"","html-keyboard-response","131","792527","0.0-75.0-1.0","null","<p></p>","null","","","","","","","","","","","","","","","","","","","","","","",""
"","do_trial","132","797530","0.0-76.0-0.0","444.39499999862164","","","","","","","","49","1,1,0","0","forest","22","probe-25","0.7783502313796351","0.317065397922778","0.0590046200825138","1","","","","","","","",""
"","html-keyboard-response","133","798535","0.0-76.0-1.0","null","<p></p>","null","","","","","","","","","","","","","","","","","","","","","","",""
"","do_trial","134","803461","0.0-77.0-0.0","379.7149999300018","","","","","","","","49","0,0,1","0","forest","23","probe-164","0.589499516038656","0.22591010147487886","0.1846500678046275","0","","","","","","","",""
"","html-keyboard-response","135","804465","0.0-77.0-1.0","null","<p></p>","null","","","","","","","","","","","","","","","","","","","","","","",""
"","do_trial","136","809353","0.0-78.0-0.0","331.5300000831485","","","","","","","","49","1,0,0","0","forest","24","probe-104","0.49903264303106326","0.3513991669991809","0.21144766308498045","1","","","","","","","",""
"","html-keyboard-response","137","810354","0.0-78.0-1.0","null","<p></p>","null","","","","","","","","","","","","","","","","","","","","","","",""
"","do_trial","138","815291","0.0-79.0-0.0","389.7899999283254","","","","","","","","49","1,1,0","0","forest","25","probe-202","0.5174693244844312","0.26543877564512336","0.10084809528967398","1","","","","","","","",""
"","html-keyboard-response","139","816292","0.0-79.0-1.0","null","<p></p>","null","","","","","","","","","","","","","","","","","","","","","","",""
"","do_trial","140","821278","0.0-80.0-0.0","435.91499992180616","","","","","","","","49","1,1,0","0","forest","26","probe-108","0.38763744654309035","0.2867125127346361","0.10923987916010486","1","","","","","","","",""
"","html-keyboard-response","141","822283","0.0-80.0-1.0","null","<p></p>","null","","","","","","","","","","","","","","","","","","","","","","",""
"","do_trial","142","827579","0.0-81.0-0.0","747.6599999936298","","","","","","","","49","0,0,0","0","forest","27","probe-113","0.4325674044513839","0.2507003879443316","0.13378825860817492","0","","","","","","","",""
"","html-keyboard-response","143","828582","0.0-81.0-1.0","null","<p></p>","null","","","","","","","","","","","","","","","","","","","","","","",""
"","do_trial","144","833523","0.0-82.0-0.0","391.1599999992177","","","","","","","","49","1,0,0","0","forest","28","probe-190","0.5677448610220315","0.34448819860788016","0.10234311537752609","1","","","","","","","",""
"","html-keyboard-response","145","834529","0.0-82.0-1.0","null","<p></p>","null","","","","","","","","","","","","","","","","","","","","","","",""
"","do_trial","146","839692","0.0-83.0-0.0","613.4349999483675","","","","","","","","49","1,0,1","0","forest","29","probe-85","0.6014622870841344","0.28012611549575533","0.17995957647155764","1","","","","","","","",""
"","html-keyboard-response","147","840695","0.0-83.0-1.0","null","<p></p>","null","","","","","","","","","","","","","","","","","","","","","","",""
"","do_bye","148","842202","0.0-84.0-0.0","null","","","","","","","","null","","","","","","","","","","","","","","","","",""
"","break","149","847544","0.0-84.0-1.0","5341.720000025816","<div class='center'><p>Time to take a quick break! You have 2 minutes to rest, but you can move on sooner if you'd like.</p><p> Press the <b>space bar</b> to continue.</p></div>","32","","","","","","","","","","","","","","","","","","","","","","",""
"","do_travel","150","856551","0.0-85.0-0.0","null","","","","","","","","null","","","","","","","","","","","","","","","","",""
"","do_welcome","151","860560","0.0-85.0-1.0","null","","","","","","","","null","","","","","","","","","","","","","","","","",""
"","do_trial","152","866628","0.0-86.0-0.0","1522.440000087954","","","","","","","","49","1,1,0","1","countryside","30","probe-230","1","0.16512318623671754","0.13052696753032272","1","","","","","","","",""
"","html-keyboard-response","153","867631","0.0-86.0-1.0","null","<p></p>","null","","","","","","","","","","","","","","","","","","","","","","",""
"","do_trial","154","872785","0.0-87.0-0.0","603.4699999727309","","","","","","","","49","1,0,0","1","countryside","31","probe-01","1","0.20509308899232565","0.14049690704270654","1","","","","","","","",""
"","html-keyboard-response","155","873790","0.0-87.0-1.0","null","<p></p>","null","","","","","","","","","","","","","","","","","","","","","","",""
"","do_trial","156","878749","0.0-88.0-0.0","407.8250000020489","","","","","","","","49","1,0,0","1","countryside","32","probe-166","1","0.253203598379619","0.18773434075473064","1","","","","","","","",""
"","html-keyboard-response","157","879753","0.0-88.0-1.0","null","<p></p>","null","","","","","","","","","","","","","","","","","","","","","","",""
"","do_trial","158","884672","0.0-89.0-0.0","372.47499998193234","","","","","","","","49","1,0,0","1","countryside","33","probe-44","0.8832203231700961","0.24900962826984108","0.14129588289832126","1","","","","","","","",""
"","html-keyboard-response","159","885677","0.0-89.0-1.0","null","<p></p>","null","","","","","","","","","","","","","","","","","","","","","","",""
"","do_trial","160","890656","0.0-90.0-0.0","431.6950000356883","","","","","","","","49","1,0,0","1","countryside","34","probe-117","0.8271733551638762","0.1644984700784498","0.05831547292103046","1","","","","","","","",""
"","html-keyboard-response","161","891660","0.0-90.0-1.0","null","<p></p>","null","","","","","","","","","","","","","","","","","","","","","","",""
"","do_trial","162","896460","0.0-91.0-0.0","251.33499992080033","","","","","","","","49","1,1,0","1","countryside","35","probe-180","0.8849905067603433","0.18483083984241394","0.06943218239774067","1","","","","","","","",""
"","html-keyboard-response","163","897461","0.0-91.0-1.0","null","<p></p>","null","","","","","","","","","","","","","","","","","","","","","","",""
"","do_trial","164","902277","0.0-92.0-0.0","264.9949999758974","","","","","","","","49","1,1,0","1","countryside","36","probe-152","0.6588352812785686","0.3922992830334927","0.1685500520595393","1","","","","","","","",""
"","html-keyboard-response","165","903282","0.0-92.0-1.0","null","<p></p>","null","","","","","","","","","","","","","","","","","","","","","","",""
"","do_trial","166","908167","0.0-93.0-0.0","333.96499999798834","","","","","","","","49","1,1,0","1","countryside","37","probe-214","0.7160899468820715","0.3084781808383497","0.06850209188923612","1","","","","","","","",""
"","html-keyboard-response","167","909169","0.0-93.0-1.0","null","<p></p>","null","","","","","","","","","","","","","","","","","","","","","","",""
"","do_trial","168","913968","0.0-94.0-0.0","250.51499996334314","","","","","","","","49","0,0,0","1","countryside","38","probe-225","0.6896010518213062","0.38430514352667594","0.06663208576501639","0","","","","","","","",""
"","html-keyboard-response","169","914974","0.0-94.0-1.0","null","<p></p>","null","","","","","","","","","","","","","","","","","","","","","","",""
"","do_trial","170","919863","0.0-95.0-0.0","341.32500004488975","","","","","","","","49","1,0,0","1","countryside","39","probe-16","0.6046921352623805","0.39986212108618047","0.07125950072711351","1","","","","","","","",""
"","html-keyboard-response","171","920868","0.0-95.0-1.0","null","<p></p>","null","","","","","","","","","","","","","","","","","","","","","","",""
"","do_trial","172","925955","0.0-96.0-0.0","539.1999999992549","","","","","","","","49","1,0,1","1","countryside","40","probe-158","0.7674833965400473","0.35667833165358465","0.14022305488731399","1","","","","","","","",""
"","html-keyboard-response","173","926958","0.0-96.0-1.0","null","<p></p>","null","","","","","","","","","","","","","","","","","","","","","","",""
"","do_trial","174","931992","0.0-97.0-0.0","485.7749999500811","","","","","","","","49","0,0,1","1","countryside","41","probe-62","0.6202915040635912","0.3905662328013692","0.14047896799756196","0","","","","","","","",""
"","html-keyboard-response","175","932995","0.0-97.0-1.0","null","<p></p>","null","","","","","","","","","","","","","","","","","","","","","","",""
"","do_trial","176","937901","0.0-98.0-0.0","357.785000000149","","","","","","","","49","0,1,1","1","countryside","42","probe-63","0.40789881525408794","0.36765994984107747","0.32958273077612704","0","","","","","","","",""
"","html-keyboard-response","177","938905","0.0-98.0-1.0","null","<p></p>","null","","","","","","","","","","","","","","","","","","","","","","",""
"","do_trial","178","943749","0.0-99.0-0.0","292.879999964498","","","","","","","","49","1,0,0","1","countryside","43","probe-154","0.3576364072019655","0.48400703006067913","0.3156147414903596","1","","","","","","","",""
"","html-keyboard-response","179","944754","0.0-99.0-1.0","null","<p></p>","null","","","","","","","","","","","","","","","","","","","","","","",""
"","do_trial","180","949638","0.0-100.0-0.0","335.33000003080815","","","","","","","","49","1,1,0","1","countryside","44","probe-126","0.27077013489331464","0.6427798656860384","0.36045818583436917","1","","","","","","","",""
"","html-keyboard-response","181","950641","0.0-100.0-1.0","null","<p></p>","null","","","","","","","","","","","","","","","","","","","","","","",""
"","do_trial","182","955360","0.0-101.0-0.0","170.29000003822148","","","","","","","","49","0,0,0","1","countryside","45","probe-14","0.2103564551248411","0.7209955789587562","0.3758995391784694","0","","","","","","","",""
"","html-keyboard-response","183","956363","0.0-101.0-1.0","null","<p></p>","null","","","","","","","","","","","","","","","","","","","","","","",""
"","do_trial","184","961271","0.0-102.0-0.0","359.375","","","","","","","","49","0,0,0","1","countryside","46","probe-110","0.05633717304129258","0.6448703013509192","0.25392923505409115","0","","","","","","","",""
"","html-keyboard-response","185","962276","0.0-102.0-1.0","null","<p></p>","null","","","","","","","","","","","","","","","","","","","","","","",""
"","do_trial","186","967155","0.0-103.0-0.0","330.5949999485165","","","","","","","","49","0,1,0","1","countryside","47","probe-210","0.06828943714365171","0.6921815920818439","0.2811969865363025","0","","","","","","","",""
"","html-keyboard-response","187","968161","0.0-103.0-1.0","null","<p></p>","null","","","","","","","","","","","","","","","","","","","","","","",""
"","do_trial","188","973008","0.0-104.0-0.0","299.04000007081777","","","","","","","","49","0,1,0","1","countryside","48","probe-33","0.11760304413191486","0.5007002950205146","0.31484494991970485","0","","","","","","","",""
"","html-keyboard-response","189","974015","0.0-104.0-1.0","null","<p></p>","null","","","","","","","","","","","","","","","","","","","","","","",""
"","do_trial","190","978857","0.0-105.0-0.0","292.38999995868653","","","","","","","","49","0,0,0","1","countryside","49","probe-161","0.10057061612081944","0.5790346446062592","0.2202205240296898","0","","","","","","","",""
"","html-keyboard-response","191","979862","0.0-105.0-1.0","null","<p></p>","null","","","","","","","","","","","","","","","","","","","","","","",""
"","do_trial","192","984752","0.0-106.0-0.0","337.4550000298768","","","","","","","","49","0,1,0","1","countryside","50","probe-139","0.15274303035781356","0.6277188201868807","0.23661010529826915","0","","","","","","","",""
"","html-keyboard-response","193","985754","0.0-106.0-1.0","null","<p></p>","null","","","","","","","","","","","","","","","","","","","","","","",""
"","do_trial","194","990775","0.0-107.0-0.0","472.4949999945238","","","","","","","","49","0,1,0","1","countryside","51","probe-28","0.06639287811957986","0.6323762942187109","0.24691929978079802","0","","","","","","","",""
"","html-keyboard-response","195","991781","0.0-107.0-1.0","null","<p></p>","null","","","","","","","","","","","","","","","","","","","","","","",""
"","do_trial","196","996708","0.0-108.0-0.0","376.6850000247359","","","","","","","","49","0,0,0","1","countryside","52","probe-192","0.05281410193522277","0.4882636757277799","0.18238591454668082","0","","","","","","","",""
"","html-keyboard-response","197","997711","0.0-108.0-1.0","null","<p></p>","null","","","","","","","","","","","","","","","","","","","","","","",""
"","do_trial","198","1002690","0.0-109.0-0.0","428.650000016205","","","","","","","","49","0,0,1","1","countryside","53","probe-176","0.1355979166703399","0.4274105297671836","0.40380382953304206","0","","","","","","","",""
"","html-keyboard-response","199","1003694","0.0-109.0-1.0","null","<p></p>","null","","","","","","","","","","","","","","","","","","","","","","",""
"","do_trial","200","1009302","0.0-110.0-0.0","1061.0599999781698","","","","","","","","49","0,1,0","1","countryside","54","probe-112","0.11939832057302513","0.5602518301001669","0.30724742874092775","0","","","","","","","",""
"","html-keyboard-response","201","1010306","0.0-110.0-1.0","null","<p></p>","null","","","","","","","","","","","","","","","","","","","","","","",""
"","do_trial","202","1015176","0.0-111.0-0.0","318.6200000345707","","","","","","","","49","0,1,1","1","countryside","55","probe-96","0.06165099450514853","0.5687851491964261","0.3780005611566126","0","","","","","","","",""
"","html-keyboard-response","203","1016182","0.0-111.0-1.0","null","<p></p>","null","","","","","","","","","","","","","","","","","","","","","","",""
"","do_trial","204","1021160","0.0-112.0-0.0","429.0699999546632","","","","","","","","49","1,0,0","1","countryside","56","probe-141","0.18175916972829861","0.6291092727425972","0.3028258086976815","1","","","","","","","",""
"","html-keyboard-response","205","1022164","0.0-112.0-1.0","null","<p></p>","null","","","","","","","","","","","","","","","","","","","","","","",""
"","do_trial","206","1027051","0.0-113.0-0.0","338.1049999734387","","","","","","","","49","1,1,0","1","countryside","57","probe-08","0.10482129279250828","0.6443245609131999","0.29597064167769427","1","","","","","","","",""
"","html-keyboard-response","207","1028055","0.0-113.0-1.0","null","<p></p>","null","","","","","","","","","","","","","","","","","","","","","","",""
"","do_trial","208","1032934","0.0-114.0-0.0","328.71500006876886","","","","","","","","49","0,0,0","1","countryside","58","probe-18","0.13453484422267992","0.38561214908041463","0.4469066380366944","0","","","","","","","",""
"","html-keyboard-response","209","1033938","0.0-114.0-1.0","null","<p></p>","null","","","","","","","","","","","","","","","","","","","","","","",""
"","do_trial","210","1038852","0.0-115.0-0.0","366.52999999932945","","","","","","","","49","0,1,1","1","countryside","59","probe-97","0.058079572374981715","0.5779539482438987","0.40006960360800214","0","","","","","","","",""
"","html-keyboard-response","211","1039856","0.0-115.0-1.0","null","<p></p>","null","","","","","","","","","","","","","","","","","","","","","","",""
"","do_trial","212","1044710","0.0-116.0-0.0","306.7900000605732","","","","","","","","49","0,1,1","1","countryside","60","probe-31","0.14464537394363522","0.5541359349419616","0.3006535118961296","0","","","","","","","",""
"","html-keyboard-response","213","1045715","0.0-116.0-1.0","null","<p></p>","null","","","","","","","","","","","","","","","","","","","","","","",""
"","do_trial","214","1050544","0.0-117.0-0.0","278.4399999072775","","","","","","","","49","1,0,0","1","countryside","61","probe-128","0.29068405048346274","0.6161263599325981","0.2764642536229633","1","","","","","","","",""
"","html-keyboard-response","215","1051547","0.0-117.0-1.0","null","<p></p>","null","","","","","","","","","","","","","","","","","","","","","","",""
"","do_trial","216","1056100","0.0-118.0-0.0","3.2550001051276922","","","","","","","","49","0,1,1","1","countryside","62","probe-226","0.27532881830243755","0.690457731293701","0.3433925753174106","0","","","","","","","",""
"","html-keyboard-response","217","1057104","0.0-118.0-1.0","null","<p></p>","null","","","","","","","","","","","","","","","","","","","","","","",""
"","do_trial","218","1062110","0.0-119.0-0.0","454.0799999376759","","","","","","","","49","0,0,0","1","countryside","63","probe-171","0.2371986641006845","0.5175428191359324","0.3314802790999782","0","","","","","","","",""
"","html-keyboard-response","219","1063113","0.0-119.0-1.0","null","<p></p>","null","","","","","","","","","","","","","","","","","","","","","","",""
"","do_trial","220","1067999","0.0-120.0-0.0","334.7749999957159","","","","","","","","49","0,1,0","1","countryside","64","probe-100","0.3648401512558039","0.48846649781231727","0.2940217158397196","0","","","","","","","",""
"","html-keyboard-response","221","1069001","0.0-120.0-1.0","null","<p></p>","null","","","","","","","","","","","","","","","","","","","","","","",""
"","do_trial","222","1073554","0.0-121.0-0.0","0.1449999399483204","","","","","","","","49","0,1,0","1","countryside","65","probe-61","0.0749797429632638","0.5242961744796402","0.39922772662513","0","","","","","","","",""
"","html-keyboard-response","223","1074557","0.0-121.0-1.0","null","<p></p>","null","","","","","","","","","","","","","","","","","","","","","","",""
"","do_trial","224","1079488","0.0-122.0-0.0","380.85999991744757","","","","","","","","49","0,1,0","1","countryside","66","probe-10","0.07828756678592542","0.5767785909241157","0.30163481400499365","0","","","","","","","",""
"","html-keyboard-response","225","1080493","0.0-122.0-1.0","null","<p></p>","null","","","","","","","","","","","","","","","","","","","","","","",""
"","do_trial","226","1085370","0.0-123.0-0.0","329.0450000204146","","","","","","","","49","1,1,0","1","countryside","67","probe-218","0.24186309233562114","0.7084557318289514","0.32863801787185887","1","","","","","","","",""
"","html-keyboard-response","227","1086374","0.0-123.0-1.0","null","<p></p>","null","","","","","","","","","","","","","","","","","","","","","","",""
"","do_trial","228","1091314","0.0-124.0-0.0","390.9350000321865","","","","","","","","49","0,0,0","1","countryside","68","probe-51","0.22508318613644157","0.7094462074779674","0.32625383281096265","0","","","","","","","",""
"","html-keyboard-response","229","1092316","0.0-124.0-1.0","null","<p></p>","null","","","","","","","","","","","","","","","","","","","","","","",""
"","do_trial","230","1097305","0.0-125.0-0.0","441.76499999593943","","","","","","","","49","1,1,1","1","countryside","69","probe-205","0.1829179884720084","0.6725603669870875","0.3307240083090378","1","","","","","","","",""
"","html-keyboard-response","231","1098309","0.0-125.0-1.0","null","<p></p>","null","","","","","","","","","","","","","","","","","","","","","","",""
"","do_bye","232","1099815","0.0-126.0-0.0","null","","","","","","","","null","","","","","","","","","","","","","","","","",""
"","break","233","1104232","0.0-126.0-1.0","4415.954999974929","<div class='center'><p>Time to take a quick break! You have 2 minutes to rest, but you can move on sooner if you'd like.</p><p> Press the <b>space bar</b> to continue.</p></div>","32","","","","","","","","","","","","","","","","","","","","","","",""
"","do_travel","234","1113238","0.0-127.0-0.0","null","","","","","","","","null","","","","","","","","","","","","","","","","",""
"","do_welcome","235","1117246","0.0-127.0-1.0","null","","","","","","","","null","","","","","","","","","","","","","","","","",""
"","do_trial","236","1122720","0.0-128.0-0.0","922.8249998996034","","","","","","","","49","0,1,0","2","mountain","70","probe-65","0.1747705405585668","1","0.16303483142274774","0","","","","","","","",""
"","html-keyboard-response","237","1123725","0.0-128.0-1.0","null","<p></p>","null","","","","","","","","","","","","","","","","","","","","","","",""
"","do_trial","238","1128847","0.0-129.0-0.0","574.8250000178814","","","","","","","","49","0,1,0","2","mountain","71","probe-13","0.21237524113574047","1","0.3166193420470969","0","","","","","","","",""
"","html-keyboard-response","239","1129852","0.0-129.0-1.0","null","<p></p>","null","","","","","","","","","","","","","","","","","","","","","","",""
"","do_trial","240","1136372","0.0-130.0-0.0","1975.3799999598414","","","","","","","","49","0,0,1","2","mountain","72","probe-177","0.33222729598437567","0.8451383848634754","0.2957382161339498","0","","","","","","","",""
"","html-keyboard-response","241","1137377","0.0-130.0-1.0","null","<p></p>","null","","","","","","","","","","","","","","","","","","","","","","",""
"","do_trial","242","1142197","0.0-131.0-0.0","273.47999997437","","","","","","","","49","0,1,1","2","mountain","73","probe-34","0.27147323043791083","0.608189484096615","0.3701931568759939","0","","","","","","","",""
"","html-keyboard-response","243","1143202","0.0-131.0-1.0","null","<p></p>","null","","","","","","","","","","","","","","","","","","","","","","",""
"","do_trial","244","1148043","0.0-132.0-0.0","294.6249999804422","","","","","","","","49","0,1,1","2","mountain","74","probe-137","0.10671066832799292","0.5177588338571271","0.3244486341404085","0","","","","","","","",""
"","html-keyboard-response","245","1149048","0.0-132.0-1.0","null","<p></p>","null","","","","","","","","","","","","","","","","","","","","","","",""
"","do_trial","246","1153843","0.0-133.0-0.0","247.7550000185147","","","","","","","","49","1,1,0","2","mountain","75","probe-21","0.07021166856476842","0.7037362473388162","0.21810454730269618","1","","","","","","","",""
"","html-keyboard-response","247","1154848","0.0-133.0-1.0","null","<p></p>","null","","","","","","","","","","","","","","","","","","","","","","",""
"","do_trial","248","1159733","0.0-134.0-0.0","339.69499997328967","","","","","","","","49","0,1,0","2","mountain","76","probe-77","0.08405714229289038","0.7554814657624889","0.31468725029729355","0","","","","","","","",""
"","html-keyboard-response","249","1160738","0.0-134.0-1.0","null","<p></p>","null","","","","","","","","","","","","","","","","","","","","","","",""
"","do_trial","250","1165284","0.0-135.0-0.0","0.1799999736249447","","","","","","","","49","0,1,0","2","mountain","77","probe-211","0.1536029326223128","0.7188519832773967","0.3584318744336237","0","","","","","","","",""
"","html-keyboard-response","251","1166290","0.0-135.0-1.0","null","<p></p>","null","","","","","","","","","","","","","","","","","","","","","","",""
"","do_trial","252","1171305","0.0-136.0-0.0","465.3150000376627","","","","","","","","49","1,0,1","2","mountain","78","probe-183","0.3252382942156246","0.8096065480816492","0.35694155220323387","1","","","","","","","",""
"","html-keyboard-response","253","1172310","0.0-136.0-1.0","null","<p></p>","null","","","","","","","","","","","","","","","","","","","","","","",""
"","do_trial","254","1177217","0.0-137.0-0.0","355.81000009551644","","","","","","","","49","0,1,1","2","mountain","79","probe-165","0.18881292660567742","0.7213980490342581","0.31287801368286566","0","","","","","","","",""
"","html-keyboard-response","255","1178222","0.0-137.0-1.0","null","<p></p>","null","","","","","","","","","","","","","","","","","","","","","","",""
"","do_trial","256","1183072","0.0-138.0-0.0","299.5899999514222","","","","","","","","49","0,1,0","2","mountain","80","probe-76","0.1897382190626814","0.5923490322671922","0.3250185075279838","0","","","","","","","",""
"","html-keyboard-response","257","1184076","0.0-138.0-1.0","null","<p></p>","null","","","","","","","","","","","","","","","","","","","","","","",""
"","do_trial","258","1189135","0.0-139.0-0.0","506.4150000689551","","","","","","","","49","0,1,1","2","mountain","81","probe-184","0.1448329874380179","0.5547430842599205","0.34683610066541953","0","","","","","","","",""
"","html-keyboard-response","259","1190137","0.0-139.0-1.0","null","<p></p>","null","","","","","","","","","","","","","","","","","","","","","","",""
"","do_trial","260","1195044","0.0-140.0-0.0","357.0049999980256","","","","","","","","49","0,0,1","2","mountain","82","probe-71","0.15444069984385916","0.5068539911360043","0.4921494972984576","0","","","","","","","",""
"","html-keyboard-response","261","1196051","0.0-140.0-1.0","null","<p></p>","null","","","","","","","","","","","","","","","","","","","","","","",""
"","do_trial","262","1200875","0.0-141.0-0.0","275.5050000268966","","","","","","","","49","0,0,1","2","mountain","83","probe-142","0.07909474235165467","0.39075054610610105","0.7022392883566311","0","","","","","","","",""
"","html-keyboard-response","263","1201880","0.0-141.0-1.0","null","<p></p>","null","","","","","","","","","","","","","","","","","","","","","","",""
"","do_trial","264","1206848","0.0-142.0-0.0","420.70500005502254","","","","","","","","49","1,1,1","2","mountain","84","probe-215","0.2547281952071144","0.4145335433624247","0.8300053284192168","1","","","","","","","",""
"","html-keyboard-response","265","1207851","0.0-142.0-1.0","null","<p></p>","null","","","","","","","","","","","","","","","","","","","","","","",""
"","do_trial","266","1212899","0.0-143.0-0.0","496.8349999981001","","","","","","","","49","0,1,1","2","mountain","85","probe-124","0.13041221103112055","0.2958602664507085","0.7061334953889771","0","","","","","","","",""
"","html-keyboard-response","267","1213905","0.0-143.0-1.0","null","<p></p>","null","","","","","","","","","","","","","","","","","","","","","","",""
"","do_trial","268","1218825","0.0-144.0-0.0","370.6949999323115","","","","","","","","49","0,1,0","2","mountain","86","probe-59","0.09137678126881581","0.30372268479172326","0.6230677192626857","0","","","","","","","",""
"","html-keyboard-response","269","1219829","0.0-144.0-1.0","null","<p></p>","null","","","","","","","","","","","","","","","","","","","","","","",""
"","do_trial","270","1224447","0.0-145.0-0.0","65.8900000853464","","","","","","","","49","0,0,1","2","mountain","87","probe-187","0.10024852497104852","0.29313468487792343","0.7085084605803336","0","","","","","","","",""
"","html-keyboard-response","271","1225452","0.0-145.0-1.0","null","<p></p>","null","","","","","","","","","","","","","","","","","","","","","","",""
"","do_trial","272","1230581","0.0-146.0-0.0","577.7700000908226","","","","","","","","49","0,1,1","2","mountain","88","probe-23","0.10495829990845232","0.32893178790046357","0.675963701250403","0","","","","","","","",""
"","html-keyboard-response","273","1231588","0.0-146.0-1.0","null","<p></p>","null","","","","","","","","","","","","","","","","","","","","","","",""
"","do_trial","274","1236467","0.0-147.0-0.0","330.0600000657141","","","","","","","","49","0,1,1","2","mountain","89","probe-105","0.06159948092267024","0.2872600965527832","0.6234517426299752","0","","","","","","","",""
"","html-keyboard-response","275","1237470","0.0-147.0-1.0","null","<p></p>","null","","","","","","","","","","","","","","","","","","","","","","",""
"","do_trial","276","1242364","0.0-148.0-0.0","343.1300000520423","","","","","","","","49","0,0,0","2","mountain","90","probe-170","0.05636682145545166","0.15213670259601153","0.6954470144306055","0","","","","","","","",""
"","html-keyboard-response","277","1243371","0.0-148.0-1.0","null","<p></p>","null","","","","","","","","","","","","","","","","","","","","","","",""
"","do_trial","278","1248288","0.0-149.0-0.0","370.4300000099465","","","","","","","","49","0,0,1","2","mountain","91","probe-68","0.13955668873222973","0.14589298434572176","0.5459357525413194","0","","","","","","","",""
"","html-keyboard-response","279","1249294","0.0-149.0-1.0","null","<p></p>","null","","","","","","","","","","","","","","","","","","","","","","",""
"","do_trial","280","1254201","0.0-150.0-0.0","360.9899999573827","","","","","","","","49","0,0,1","2","mountain","92","probe-197","0.0760238381780719","0.052615644400744656","0.6611128165947033","0","","","","","","","",""
"","html-keyboard-response","281","1255203","0.0-150.0-1.0","null","<p></p>","null","","","","","","","","","","","","","","","","","","","","","","",""
"","do_trial","282","1259930","0.0-151.0-0.0","179.4949999311939","","","","","","","","49","0,0,0","2","mountain","93","probe-219","0.07971482501813422","0.25765808855343264","0.7192331179545262","0","","","","","","","",""
"","html-keyboard-response","283","1260932","0.0-151.0-1.0","null","<p></p>","null","","","","","","","","","","","","","","","","","","","","","","",""
"","do_trial","284","1266383","0.0-152.0-0.0","899.9049999983981","","","","","","","","49","0,0,1","2","mountain","94","probe-213","0.18424273851759893","0.3760113551206986","0.6011839219562388","0","","","","","","","",""
"","html-keyboard-response","285","1267389","0.0-152.0-1.0","null","<p></p>","null","","","","","","","","","","","","","","","","","","","","","","",""
"","do_trial","286","1271955","0.0-153.0-0.0","16.355000087060034","","","","","","","","49","0,0,1","2","mountain","95","probe-175","0.1692227504591605","0.35720885736997643","0.5195393887394448","0","","","","","","","",""
"","html-keyboard-response","287","1272960","0.0-153.0-1.0","null","<p></p>","null","","","","","","","","","","","","","","","","","","","","","","",""
"","do_trial","288","1277963","0.0-154.0-0.0","455.1099999807775","","","","","","","","50","0,1,1","2","mountain","96","probe-209","0.28449397137927557","0.44649123906607663","0.5747468351370034","1","","","","","","","",""
"","html-keyboard-response","289","1278968","0.0-154.0-1.0","null","<p></p>","null","","","","","","","","","","","","","","","","","","","","","","",""
"","do_trial","290","1283918","0.0-155.0-0.0","402.65499998349696","","","","","","","","50","0,0,0","2","mountain","97","probe-67","0.2723954552016381","0.34962306599103554","0.5356509969421854","0","","","","","","","",""
"","html-keyboard-response","291","1284922","0.0-155.0-1.0","null","<p></p>","null","","","","","","","","","","","","","","","","","","","","","","",""
"","do_trial","292","1289934","0.0-156.0-0.0","461.805000086315","","","","","","","","50","0,0,0","2","mountain","98","probe-66","0.14065585716852777","0.28564779814243","0.5373499341118343","0","","","","","","","",""
"","html-keyboard-response","293","1290939","0.0-156.0-1.0","null","<p></p>","null","","","","","","","","","","","","","","","","","","","","","","",""
"","do_trial","294","1295780","0.0-157.0-0.0","289.8649999406189","","","","","","","","50","0,0,1","2","mountain","99","probe-17","0.054586582392544276","0.2069613342677649","0.492472726168312","0","","","","","","","",""
"","html-keyboard-response","295","1296784","0.0-157.0-1.0","null","<p></p>","null","","","","","","","","","","","","","","","","","","","","","","",""
"","do_trial","296","1301613","0.0-158.0-0.0","280.52500006742775","","","","","","","","50","0,0,1","2","mountain","100","probe-167","0.08520373918538426","0.16170308731403737","0.5657468181454355","0","","","","","","","",""
"","html-keyboard-response","297","1302618","0.0-158.0-1.0","null","<p></p>","null","","","","","","","","","","","","","","","","","","","","","","",""
"","do_trial","298","1307407","0.0-159.0-0.0","243.01500001456589","","","","","","","","50","0,1,0","2","mountain","101","probe-82","0.1191766399503118","0.25190045522379384","0.5495330851655335","1","","","","","","","",""
"","html-keyboard-response","299","1308411","0.0-159.0-1.0","null","<p></p>","null","","","","","","","","","","","","","","","","","","","","","","",""
"","do_trial","300","1313291","0.0-160.0-0.0","329.57500009797513","","","","","","","","50","0,0,1","2","mountain","102","probe-172","0.09415509716391618","0.2926149289404999","0.6925559957121387","0","","","","","","","",""
"","html-keyboard-response","301","1314296","0.0-160.0-1.0","null","<p></p>","null","","","","","","","","","","","","","","","","","","","","","","",""
"","do_trial","302","1319486","0.0-161.0-0.0","638.9300000155345","","","","","","","","50","0,0,1","2","mountain","103","probe-151","0.05772060288551052","0.31920069032490483","0.6828490684638325","0","","","","","","","",""
"","html-keyboard-response","303","1320491","0.0-161.0-1.0","null","<p></p>","null","","","","","","","","","","","","","","","","","","","","","","",""
"","do_trial","304","1325632","0.0-162.0-0.0","593.1400000117719","","","","","","","","51","0,1,1","2","mountain","104","probe-78","0.07761259209586173","0.2982993946992376","0.6844741607589389","1","","","","","","","",""
"","html-keyboard-response","305","1326638","0.0-162.0-1.0","null","<p></p>","null","","","","","","","","","","","","","","","","","","","","","","",""
"","do_trial","306","1331829","0.0-163.0-0.0","639.3650000682101","","","","","","","","51","0,0,1","2","mountain","105","probe-55","0.06542335724776982","0.12613007985293542","0.6685478658187937","1","","","","","","","",""
"","html-keyboard-response","307","1332834","0.0-163.0-1.0","null","<p></p>","null","","","","","","","","","","","","","","","","","","","","","","",""
"","do_trial","308","1337792","0.0-164.0-0.0","407.1299999486655","","","","","","","","49","0,1,0","2","mountain","106","probe-107","0.10098844690595878","0.1500580417910981","0.6653871643277246","0","","","","","","","",""
"","html-keyboard-response","309","1338797","0.0-164.0-1.0","null","<p></p>","null","","","","","","","","","","","","","","","","","","","","","","",""
"","do_trial","310","1343787","0.0-165.0-0.0","439.52999997418374","","","","","","","","50","0,0,0","2","mountain","107","probe-94","0.0901327549929232","0.2690790468657049","0.6805145579383977","0","","","","","","","",""
"","html-keyboard-response","311","1344793","0.0-165.0-1.0","null","<p></p>","null","","","","","","","","","","","","","","","","","","","","","","",""
"","do_trial","312","1349824","0.0-166.0-0.0","483.6899999063462","","","","","","","","51","0,1,1","2","mountain","108","probe-228","0.08823329308570756","0.24548533855446544","0.7837879964044538","1","","","","","","","",""
"","html-keyboard-response","313","1350829","0.0-166.0-1.0","null","<p></p>","null","","","","","","","","","","","","","","","","","","","","","","",""
"","do_trial","314","1355651","0.0-167.0-0.0","271.62499993573874","","","","","","","","49","0,0,1","2","mountain","109","probe-56","0.17783684053965282","0.2697854958809823","0.6907084524496869","0","","","","","","","",""
"","html-keyboard-response","315","1356655","0.0-167.0-1.0","null","<p></p>","null","","","","","","","","","","","","","","","","","","","","","","",""
"","do_bye","316","1358165","0.0-168.0-0.0","null","","","","","","","","null","","","","","","","","","","","","","","","","",""
"","break","317","1362126","0.0-168.0-1.0","3959.9350000498816","<div class='center'><p>Time to take a quick break! You have 2 minutes to rest, but you can move on sooner if you'd like.</p><p> Press the <b>space bar</b> to continue.</p></div>","32","","","","","","","","","","","","","","","","","","","","","","",""
"","do_travel","318","1371132","0.0-169.0-0.0","null","","","","","","","","null","","","","","","","","","","","","","","","","",""
"","do_welcome","319","1375140","0.0-169.0-1.0","null","","","","","","","","null","","","","","","","","","","","","","","","","",""
"","do_trial","320","1380785","0.0-170.0-0.0","1098.6699999775738","","","","","","","","49","0,0,1","3","city","110","probe-130","0.058653661450945124","0.41124521440522244","1","0","","","","","","","",""
"","html-keyboard-response","321","1381789","0.0-170.0-1.0","null","<p></p>","null","","","","","","","","","","","","","","","","","","","","","","",""
"","do_trial","322","1386605","0.0-171.0-0.0","267.9250000510365","","","","","","","","49","0,0,1","3","city","111","probe-20","0.13318055755383904","0.2823934969882812","1","0","","","","","","","",""
"","html-keyboard-response","323","1387610","0.0-171.0-1.0","null","<p></p>","null","","","","","","","","","","","","","","","","","","","","","","",""
"","do_trial","324","1392416","0.0-172.0-0.0","255.0150000024587","","","","","","","","49","0,0,1","3","city","112","probe-193","0.14645040582994825","0.3487272834736265","0.7588208262187517","0","","","","","","","",""
"","html-keyboard-response","325","1393420","0.0-172.0-1.0","null","<p></p>","null","","","","","","","","","","","","","","","","","","","","","","",""
"","do_trial","326","1398255","0.0-173.0-0.0","288.8800000073388","","","","","","","","49","1,1,1","3","city","113","probe-15","0.08470143014942562","0.43119756663866043","0.6988792341707909","1","","","","","","","",""
"","html-keyboard-response","327","1399258","0.0-173.0-1.0","null","<p></p>","null","","","","","","","","","","","","","","","","","","","","","","",""
"","do_trial","328","1404148","0.0-174.0-0.0","341.5550000499934","","","","","","","","49","1,1,1","3","city","114","probe-173","0.10835746041997933","0.37457646780555065","0.6297175561627697","1","","","","","","","",""
"","html-keyboard-response","329","1405151","0.0-174.0-1.0","null","<p></p>","null","","","","","","","","","","","","","","","","","","","","","","",""
"","do_trial","330","1410307","0.0-175.0-0.0","602.7149999281392","","","","","","","","49","0,0,0","3","city","115","probe-06","0.06710324940551737","0.2789762456479965","0.5181298849909703","0","","","","","","","",""
"","html-keyboard-response","331","1411312","0.0-175.0-1.0","null","<p></p>","null","","","","","","","","","","","","","","","","","","","","","","",""
"","do_trial","332","1416270","0.0-176.0-0.0","409.9699999205768","","","","","","","","49","0,0,0","3","city","116","probe-75","0.10580911278522216","0.21454090569697548","0.5560731903948645","0","","","","","","","",""
"","html-keyboard-response","333","1417275","0.0-176.0-1.0","null","<p></p>","null","","","","","","","","","","","","","","","","","","","","","","",""
"","do_trial","334","1422090","0.0-177.0-0.0","269.61499999742955","","","","","","","","49","0,0,0","3","city","117","probe-216","0.0733186089464741","0.3026766906623887","0.5602168957677504","0","","","","","","","",""
"","html-keyboard-response","335","1423095","0.0-177.0-1.0","null","<p></p>","null","","","","","","","","","","","","","","","","","","","","","","",""
"","do_trial","336","1428192","0.0-178.0-0.0","547.2950000548735","","","","","","","","49","0,1,1","3","city","118","probe-81","0.05265322398375195","0.26468708119567164","0.5095022211771019","0","","","","","","","",""
"","html-keyboard-response","337","1429198","0.0-178.0-1.0","null","<p></p>","null","","","","","","","","","","","","","","","","","","","","","","",""
"","do_trial","338","1434219","0.0-179.0-0.0","473.1799999717623","","","","","","","","49","0,0,0","3","city","119","probe-227","0.14655096256739508","0.2903378522936047","0.6747557437830284","0","","","","","","","",""
"","html-keyboard-response","339","1435225","0.0-179.0-1.0","null","<p></p>","null","","","","","","","","","","","","","","","","","","","","","","",""
"","do_trial","340","1440356","0.0-180.0-0.0","583.2049999153242","","","","","","","","49","0,1,0","3","city","120","probe-163","0.10615458135495448","0.23689486559088058","0.691109890929926","0","","","","","","","",""
"","html-keyboard-response","341","1441362","0.0-180.0-1.0","null","<p></p>","null","","","","","","","","","","","","","","","","","","","","","","",""
"","do_trial","342","1446357","0.0-181.0-0.0","448.34000000264496","","","","","","","","49","0,1,1","3","city","121","probe-83","0.12032744954293852","0.27023248289125984","0.6038890441868271","0","","","","","","","",""
"","html-keyboard-response","343","1447360","0.0-181.0-1.0","null","<p></p>","null","","","","","","","","","","","","","","","","","","","","","","",""
"","do_trial","344","1452490","0.0-182.0-0.0","582.2700000135228","","","","","","","","49","0,1,0","3","city","122","probe-185","0.06225440417968845","0.4059793419036082","0.32298930895986944","0","","","","","","","",""
"","html-keyboard-response","345","1453497","0.0-182.0-1.0","null","<p></p>","null","","","","","","","","","","","","","","","","","","","","","","",""
"","do_trial","346","1458723","0.0-183.0-0.0","681.2899999786168","","","","","","","","49","0,0,0","3","city","123","probe-150","0.109900736953404","0.4642548206766506","0.1504505376541224","0","","","","","","","",""
"","html-keyboard-response","347","1459728","0.0-183.0-1.0","null","<p></p>","null","","","","","","","","","","","","","","","","","","","","","","",""
"","do_trial","348","1464926","0.0-184.0-0.0","647.9449999751523","","","","","","","","49","0,1,0","3","city","124","probe-157","0.1133058360818136","0.5205825284032235","0.21203584040611317","0","","","","","","","",""
"","html-keyboard-response","349","1465932","0.0-184.0-1.0","null","<p></p>","null","","","","","","","","","","","","","","","","","","","","","","",""
"","do_trial","350","1470992","0.0-185.0-0.0","512.3149999417365","","","","","","","","50","0,0,0","3","city","125","probe-208","0.13790582487264963","0.49968585814846195","0.2836237616532287","0","","","","","","","",""
"","html-keyboard-response","351","1471993","0.0-185.0-1.0","null","<p></p>","null","","","","","","","","","","","","","","","","","","","","","","",""
"","do_trial","352","1477550","0.0-186.0-0.0","1007.4500000337139","","","","","","","","50","0,0,0","3","city","126","probe-98","0.0837442193184767","0.4658908900106509","0.31749418049519307","0","","","","","","","",""
"","html-keyboard-response","353","1478556","0.0-186.0-1.0","null","<p></p>","null","","","","","","","","","","","","","","","","","","","","","","",""
"","do_trial","354","1483656","0.0-187.0-0.0","548.7300000386313","","","","","","","","50","0,0,1","3","city","127","probe-174","0.18853196682050438","0.5196645342926874","0.28733946250903225","0","","","","","","","",""
"","html-keyboard-response","355","1484658","0.0-187.0-1.0","null","<p></p>","null","","","","","","","","","","","","","","","","","","","","","","",""
"","do_trial","356","1489516","0.0-188.0-0.0","310.5999999679625","","","","","","","","49","0,0,0","3","city","128","probe-131","0.27107674772849794","0.6525341221955065","0.26172032858901256","0","","","","","","","",""
"","html-keyboard-response","357","1490520","0.0-188.0-1.0","null","<p></p>","null","","","","","","","","","","","","","","","","","","","","","","",""
"","do_trial","358","1495342","0.0-189.0-0.0","276.68999996967614","","","","","","","","51","0,1,0","3","city","129","probe-03","0.24805263193436727","0.5311131528124543","0.23957366181512207","0","","","","","","","",""
"","html-keyboard-response","359","1496346","0.0-189.0-1.0","null","<p></p>","null","","","","","","","","","","","","","","","","","","","","","","",""
"","do_trial","360","1501269","0.0-190.0-0.0","373.90000000596046","","","","","","","","51","0,1,0","3","city","130","probe-102","0.16297290018577365","0.572897806872883","0.23515730014313474","0","","","","","","","",""
"","html-keyboard-response","361","1502271","0.0-190.0-1.0","null","<p></p>","null","","","","","","","","","","","","","","","","","","","","","","",""
"","do_trial","362","1507304","0.0-191.0-0.0","483.60000003594905","","","","","","","","51","1,1,1","3","city","131","probe-195","0.09880047493772422","0.6706297636197127","0.24159531489388789","1","","","","","","","",""
"","html-keyboard-response","363","1508309","0.0-191.0-1.0","null","<p></p>","null","","","","","","","","","","","","","","","","","","","","","","",""
"","do_trial","364","1513080","0.0-192.0-0.0","219.71500001382083","","","","","","","","50","0,1,0","3","city","132","probe-30","0.1171605518425044","0.5291540020382925","0.30439999657234906","1","","","","","","","",""
"","html-keyboard-response","365","1514085","0.0-192.0-1.0","null","<p></p>","null","","","","","","","","","","","","","","","","","","","","","","",""
"","do_trial","366","1518970","0.0-193.0-0.0","333.77999998629093","","","","","","","","49","0,0,0","3","city","133","probe-122","0.15170757740882368","0.47934678756062243","0.27962933898182146","0","","","","","","","",""
"","html-keyboard-response","367","1519975","0.0-193.0-1.0","null","<p></p>","null","","","","","","","","","","","","","","","","","","","","","","",""
"","do_trial","368","1524941","0.0-194.0-0.0","420.285000000149","","","","","","","","49","1,1,1","3","city","134","probe-194","0.18993427485231656","0.3798082053616831","0.34509823497616426","1","","","","","","","",""
"","html-keyboard-response","369","1525947","0.0-194.0-1.0","null","<p></p>","null","","","","","","","","","","","","","","","","","","","","","","",""
"","do_trial","370","1530787","0.0-195.0-0.0","289.3700000131503","","","","","","","","49","0,0,1","3","city","135","probe-223","0.09890760912178939","0.43574538534902446","0.41982200877091347","0","","","","","","","",""
"","html-keyboard-response","371","1531790","0.0-195.0-1.0","null","<p></p>","null","","","","","","","","","","","","","","","","","","","","","","",""
"","do_trial","372","1536670","0.0-196.0-0.0","329.7249999595806","","","","","","","","49","0,1,0","3","city","136","probe-27","0.12102079650353222","0.5630024064225276","0.4996786768593748","0","","","","","","","",""
"","html-keyboard-response","373","1537676","0.0-196.0-1.0","null","<p></p>","null","","","","","","","","","","","","","","","","","","","","","","",""
"","do_trial","374","1542669","0.0-197.0-0.0","443.74999997671694","","","","","","","","49","0,0,1","3","city","137","probe-120","0.10735031813911441","0.44224221690702975","0.4256674230704314","0","","","","","","","",""
"","html-keyboard-response","375","1543674","0.0-197.0-1.0","null","<p></p>","null","","","","","","","","","","","","","","","","","","","","","","",""
"","do_trial","376","1548629","0.0-198.0-0.0","406.1499999370426","","","","","","","","49","0,0,1","3","city","138","probe-40","0.11574821699399598","0.6092612845766116","0.39195954908800656","0","","","","","","","",""
"","html-keyboard-response","377","1549634","0.0-198.0-1.0","null","<p></p>","null","","","","","","","","","","","","","","","","","","","","","","",""
"","do_trial","378","1554646","0.0-199.0-0.0","462.26499998010695","","","","","","","","49","0,1,0","3","city","139","probe-179","0.11472913366021638","0.6016854087165551","0.33179740881183045","0","","","","","","","",""
"","html-keyboard-response","379","1555651","0.0-199.0-1.0","null","<p></p>","null","","","","","","","","","","","","","","","","","","","","","","",""
"","do_trial","380","1561169","0.0-200.0-0.0","969.9999999720603","","","","","","","","49","0,0,0","3","city","140","probe-146","0.0548976896273037","0.5446303535365089","0.394055673256836","0","","","","","","","",""
"","html-keyboard-response","381","1562174","0.0-200.0-1.0","null","<p></p>","null","","","","","","","","","","","","","","","","","","","","","","",""
"","do_trial","382","1567022","0.0-201.0-0.0","303.6050000227988","","","","","","","","49","1,1,0","3","city","141","probe-201","0.17965021250783297","0.6294428690932196","0.3410208734238385","1","","","","","","","",""
"","html-keyboard-response","383","1568028","0.0-201.0-1.0","null","<p></p>","null","","","","","","","","","","","","","","","","","","","","","","",""
"","do_trial","384","1573071","0.0-202.0-0.0","496.24499992933124","","","","","","","","49","0,1,1","3","city","142","probe-144","0.11486216641263688","0.5581656350382802","0.34912018857786775","0","","","","","","","",""
"","html-keyboard-response","385","1574077","0.0-202.0-1.0","null","<p></p>","null","","","","","","","","","","","","","","","","","","","","","","",""
"","do_trial","386","1579277","0.0-203.0-0.0","651.1550000868738","","","","","","","","49","1,1,1","3","city","143","probe-148","0.13214828371310838","0.6383590786984789","0.34617991412931404","1","","","","","","","",""
"","html-keyboard-response","387","1580283","0.0-203.0-1.0","null","<p></p>","null","","","","","","","","","","","","","","","","","","","","","","",""
"","do_trial","388","1585217","0.0-204.0-0.0","386.6899999557063","","","","","","","","49","0,0,1","3","city","144","probe-84","0.10140359462590948","0.7270563604261099","0.3878552053748159","0","","","","","","","",""
"","html-keyboard-response","389","1586220","0.0-204.0-1.0","null","<p></p>","null","","","","","","","","","","","","","","","","","","","","","","",""
"","do_trial","390","1591423","0.0-205.0-0.0","653.6949999863282","","","","","","","","49","0,1,1","3","city","145","probe-118","0.09847431337375577","0.5392371091344503","0.2747073907101311","0","","","","","","","",""
"","html-keyboard-response","391","1592429","0.0-205.0-1.0","null","<p></p>","null","","","","","","","","","","","","","","","","","","","","","","",""
"","do_trial","392","1597584","0.0-206.0-0.0","608.0000000074506","","","","","","","","49","0,1,0","3","city","146","probe-145","0.2355792209839165","0.623890712728899","0.3168774820665719","0","","","","","","","",""
"","html-keyboard-response","393","1598589","0.0-206.0-1.0","null","<p></p>","null","","","","","","","","","","","","","","","","","","","","","","",""
"","do_trial","394","1603455","0.0-207.0-0.0","321.1650000885129","","","","","","","","49","1,0,1","3","city","147","probe-121","0.20210983073856256","0.5198852474067198","0.3632937759641503","1","","","","","","","",""
"","html-keyboard-response","395","1604458","0.0-207.0-1.0","null","<p></p>","null","","","","","","","","","","","","","","","","","","","","","","",""
"","do_trial","396","1609480","0.0-208.0-0.0","471.81999997701496","","","","","","","","49","0,1,1","3","city","148","probe-11","0.16112807030227783","0.5263389725058165","0.2475265139984572","0","","","","","","","",""
"","html-keyboard-response","397","1610486","0.0-208.0-1.0","null","<p></p>","null","","","","","","","","","","","","","","","","","","","","","","",""
"","do_trial","398","1615509","0.0-209.0-0.0","477.7499999618158","","","","","","","","49","0,1,0","3","city","149","probe-143","0.07962832204885094","0.6006793055445535","0.3695376631401463","0","","","","","","","",""
"","html-keyboard-response","399","1616513","0.0-209.0-1.0","null","<p></p>","null","","","","","","","","","","","","","","","","","","","","","","",""
"","do_bye","400","1618023","0.0-210.0-0.0","null","","","","","","","","null","","","","","","","","","","","","","","","","",""
"","break","401","1622915","0.0-210.0-1.0","4891.240000026301","<div class='center'><p>Time to take a quick break! You have 2 minutes to rest, but you can move on sooner if you'd like.</p><p> Press the <b>space bar</b> to continue.</p></div>","32","","","","","","","","","","","","","","","","","","","","","","",""
"","do_travel","402","1631923","0.0-211.0-0.0","null","","","","","","","","null","","","","","","","","","","","","","","","","",""
"","do_welcome","403","1635932","0.0-211.0-1.0","null","","","","","","","","null","","","","","","","","","","","","","","","","",""
"","do_trial","404","1641232","0.0-212.0-0.0","751.2900000438094","","","","","","","","49","0,1,1","4","highway","150","probe-57","0.19558342914655272","1","0.4271784450075156","0","","","","","","","",""
"","html-keyboard-response","405","1642236","0.0-212.0-1.0","null","<p></p>","null","","","","","","","","","","","","","","","","","","","","","","",""
"","do_trial","406","1647370","0.0-213.0-0.0","585.4149999795482","","","","","","","","49","0,1,0","4","highway","151","probe-04","0.0548284775538064","1","0.1746950698737529","0","","","","","","","",""
"","html-keyboard-response","407","1648376","0.0-213.0-1.0","null","<p></p>","null","","","","","","","","","","","","","","","","","","","","","","",""
"","do_trial","408","1653546","0.0-214.0-0.0","619.7850001044571","","","","","","","","49","0,1,0","4","highway","152","probe-153","0.059233660922518694","0.782810608355617","0.2623784037209034","0","","","","","","","",""
"","html-keyboard-response","409","1654549","0.0-214.0-1.0","null","<p></p>","null","","","","","","","","","","","","","","","","","","","","","","",""
"","do_trial","410","1659624","0.0-215.0-0.0","524.8399999691173","","","","","","","","49","0,1,0","4","highway","153","probe-133","0.059641885700998244","0.7216825688953713","0.22436664018239094","0","","","","","","","",""
"","html-keyboard-response","411","1660630","0.0-215.0-1.0","null","<p></p>","null","","","","","","","","","","","","","","","","","","","","","","",""
"","do_trial","412","1665810","0.0-216.0-0.0","632.2250000666827","","","","","","","","49","0,1,0","4","highway","154","probe-54","0.12204030277855417","0.7295192906754049","0.24591308572004447","0","","","","","","","",""
"","html-keyboard-response","413","1666815","0.0-216.0-1.0","null","<p></p>","null","","","","","","","","","","","","","","","","","","","","","","",""
"","do_trial","414","1671807","0.0-217.0-0.0","441.9700000435114","","","","","","","","49","0,1,1","4","highway","155","probe-26","0.13566549202552755","0.7606392379223583","0.3856566270361207","0","","","","","","","",""
"","html-keyboard-response","415","1672813","0.0-217.0-1.0","null","<p></p>","null","","","","","","","","","","","","","","","","","","","","","","",""
"","do_trial","416","1678933","0.0-218.0-0.0","1571.98500004597","","","","","","","","49","0,1,0","4","highway","156","probe-70","0.08775339651099756","0.7491795268949574","0.40896374615319864","0","","","","","","","",""
"","html-keyboard-response","417","1679938","0.0-218.0-1.0","null","<p></p>","null","","","","","","","","","","","","","","","","","","","","","","",""
"","do_trial","418","1684798","0.0-219.0-0.0","305.835000006482","","","","","","","","49","0,1,1","4","highway","157","probe-02","0.06920876504299944","0.8158554706174451","0.4877409646140615","0","","","","","","","",""
"","html-keyboard-response","419","1685799","0.0-219.0-1.0","null","<p></p>","null","","","","","","","","","","","","","","","","","","","","","","",""
"","do_trial","420","1690687","0.0-220.0-0.0","339.61000002454966","","","","","","","","49","0,1,1","4","highway","158","probe-72","0.05055438245018802","0.6720900580768345","0.4748985895282854","0","","","","","","","",""
"","html-keyboard-response","421","1691693","0.0-220.0-1.0","null","<p></p>","null","","","","","","","","","","","","","","","","","","","","","","",""
"","do_trial","422","1696799","0.0-221.0-0.0","556.734999991022","","","","","","","","49","0,0,0","4","highway","159","probe-89","0.17865557622518088","0.6553660886104915","0.3117520802469494","0","","","","","","","",""
"","html-keyboard-response","423","1697802","0.0-221.0-1.0","null","<p></p>","null","","","","","","","","","","","","","","","","","","","","","","",""
"","do_trial","424","1702770","0.0-222.0-0.0","418.4250000398606","","","","","","","","49","0,1,0","4","highway","160","probe-229","0.20550694766426006","0.5894977755797786","0.3209439304787389","0","","","","","","","",""
"","html-keyboard-response","425","1703773","0.0-222.0-1.0","null","<p></p>","null","","","","","","","","","","","","","","","","","","","","","","",""
"","do_trial","426","1709055","0.0-223.0-0.0","734.5199999399483","","","","","","","","49","1,1,1","4","highway","161","probe-136","0.1307664640558469","0.5899791446168626","0.447424433001275","1","","","","","","","",""
"","html-keyboard-response","427","1710061","0.0-223.0-1.0","null","<p></p>","null","","","","","","","","","","","","","","","","","","","","","","",""
"","do_trial","428","1715114","0.0-224.0-0.0","503.27999994624406","","","","","","","","49","0,0,1","4","highway","162","probe-38","0.15772219006427265","0.42017569904889585","0.6202106137565737","0","","","","","","","",""
"","html-keyboard-response","429","1716116","0.0-224.0-1.0","null","<p></p>","null","","","","","","","","","","","","","","","","","","","","","","",""
"","do_trial","430","1721066","0.0-225.0-0.0","401.7899999162182","","","","","","","","49","0,0,1","4","highway","163","probe-106","0.2544375468934871","0.19041021944345435","0.6943513738252021","0","","","","","","","",""
"","html-keyboard-response","431","1722071","0.0-225.0-1.0","null","<p></p>","null","","","","","","","","","","","","","","","","","","","","","","",""
"","do_trial","432","1727023","0.0-226.0-0.0","404.88000004552305","","","","","","","","49","0,0,0","4","highway","164","probe-49","0.35400258129218853","0.057609045828701806","0.7307589404514725","0","","","","","","","",""
"","html-keyboard-response","433","1728029","0.0-226.0-1.0","null","<p></p>","null","","","","","","","","","","","","","","","","","","","","","","",""
"","do_trial","434","1733226","0.0-227.0-0.0","649.1500000702217","","","","","","","","49","0,0,1","4","highway","165","probe-159","0.3351774294252909","0.07785379467797002","0.5883835779502485","0","","","","","","","",""
"","html-keyboard-response","435","1734231","0.0-227.0-1.0","null","<p></p>","null","","","","","","","","","","","","","","","","","","","","","","",""
"","do_trial","436","1739316","0.0-228.0-0.0","535.219999961555","","","","","","","","49","0,0,0","4","highway","166","probe-22","0.39837705631883585","0.13236566152985713","0.5507277599555771","0","","","","","","","",""
"","html-keyboard-response","437","1740321","0.0-228.0-1.0","null","<p></p>","null","","","","","","","","","","","","","","","","","","","","","","",""
"","do_trial","438","1745176","0.0-229.0-0.0","307.4100000085309","","","","","","","","49","1,0,1","4","highway","167","probe-138","0.46903662414690134","0.12762001132182713","0.6690715704883624","1","","","","","","","",""
"","html-keyboard-response","439","1746182","0.0-229.0-1.0","null","<p></p>","null","","","","","","","","","","","","","","","","","","","","","","",""
"","do_trial","440","1750995","0.0-230.0-0.0","263.6049999855459","","","","","","","","49","0,0,0","4","highway","168","probe-204","0.3720606953326659","0.15524172643175593","0.6667174130143824","0","","","","","","","",""
"","html-keyboard-response","441","1751999","0.0-230.0-1.0","null","<p></p>","null","","","","","","","","","","","","","","","","","","","","","","",""
"","do_trial","442","1757079","0.0-231.0-0.0","532.729999977164","","","","","","","","49","0,1,1","4","highway","169","probe-46","0.30113811575094335","0.19565876672109433","0.6733833249608833","0","","","","","","","",""
"","html-keyboard-response","443","1758084","0.0-231.0-1.0","null","<p></p>","null","","","","","","","","","","","","","","","","","","","","","","",""
"","do_trial","444","1763411","0.0-232.0-0.0","776.8449999857694","","","","","","","","49","0,0,1","4","highway","170","probe-103","0.23952272825615617","0.26634304246856966","0.5703653572028703","0","","","","","","","",""
"","html-keyboard-response","445","1764416","0.0-232.0-1.0","null","<p></p>","null","","","","","","","","","","","","","","","","","","","","","","",""
"","do_trial","446","1769643","0.0-233.0-0.0","677.4949999526143","","","","","","","","49","1,0,1","4","highway","171","probe-41","0.25121283117968424","0.17794889877621578","0.610094204625941","1","","","","","","","",""
"","html-keyboard-response","447","1770647","0.0-233.0-1.0","null","<p></p>","null","","","","","","","","","","","","","","","","","","","","","","",""
"","do_trial","448","1775551","0.0-234.0-0.0","355.1649999571964","","","","","","","","49","0,1,1","4","highway","172","probe-35","0.3305278464355656","0.23145316314643022","0.6733378016481123","0","","","","","","","",""
"","html-keyboard-response","449","1776555","0.0-234.0-1.0","null","<p></p>","null","","","","","","","","","","","","","","","","","","","","","","",""
"","do_trial","450","1781453","0.0-235.0-0.0","349.01999996509403","","","","","","","","49","0,0,0","4","highway","173","probe-140","0.2295479176157884","0.38553955702221276","0.5617760063837238","0","","","","","","","",""
"","html-keyboard-response","451","1782458","0.0-235.0-1.0","null","<p></p>","null","","","","","","","","","","","","","","","","","","","","","","",""
"","do_trial","452","1787944","0.0-236.0-0.0","938.9649999793619","","","","","","","","50","0,0,1","4","highway","174","probe-207","0.3685340199945982","0.1881827613644179","0.5247374347885283","0","","","","","","","",""
"","html-keyboard-response","453","1788948","0.0-236.0-1.0","null","<p></p>","null","","","","","","","","","","","","","","","","","","","","","","",""
"","do_trial","454","1793841","0.0-237.0-0.0","341.3149999687448","","","","","","","","51","1,0,1","4","highway","175","probe-181","0.445768663146671","0.1820193041012778","0.6114153014569503","1","","","","","","","",""
"","html-keyboard-response","455","1794847","0.0-237.0-1.0","null","<p></p>","null","","","","","","","","","","","","","","","","","","","","","","",""
"","do_trial","456","1799785","0.0-238.0-0.0","388.9150000177324","","","","","","","","49","0,0,1","4","highway","176","probe-196","0.34700262830586004","0.1190883922595167","0.6142835935332526","0","","","","","","","",""
"","html-keyboard-response","457","1800788","0.0-238.0-1.0","null","<p></p>","null","","","","","","","","","","","","","","","","","","","","","","",""
"","do_trial","458","1805628","0.0-239.0-0.0","289.99499999918044","","","","","","","","51","0,0,0","4","highway","177","probe-200","0.0834155973695664","0.09464124581048486","0.6100350200174673","0","","","","","","","",""
"","html-keyboard-response","459","1806634","0.0-239.0-1.0","null","<p></p>","null","","","","","","","","","","","","","","","","","","","","","","",""
"","do_trial","460","1811639","0.0-240.0-0.0","454.7899999888614","","","","","","","","50","1,1,0","4","highway","178","probe-132","0.416313474492239","0.12512055251593077","0.7047073571566188","1","","","","","","","",""
"","html-keyboard-response","461","1812643","0.0-240.0-1.0","null","<p></p>","null","","","","","","","","","","","","","","","","","","","","","","",""
"","do_trial","462","1817524","0.0-241.0-0.0","332.59999996516854","","","","","","","","49","0,0,1","4","highway","179","probe-115","0.3022954499757253","0.13020236257431006","0.439182403477915","0","","","","","","","",""
"","html-keyboard-response","463","1818529","0.0-241.0-1.0","null","<p></p>","null","","","","","","","","","","","","","","","","","","","","","","",""
"","do_trial","464","1823640","0.0-242.0-0.0","564.4800000591204","","","","","","","","50","0,0,1","4","highway","180","probe-48","0.1865461818597346","0.050048984655575515","0.614406508507216","0","","","","","","","",""
"","html-keyboard-response","465","1824643","0.0-242.0-1.0","null","<p></p>","null","","","","","","","","","","","","","","","","","","","","","","",""
"","do_trial","466","1829473","0.0-243.0-0.0","281.0849999077618","","","","","","","","51","0,0,1","4","highway","181","probe-189","0.22998960218645398","0.08973641707875374","0.7155562064090714","1","","","","","","","",""
"","html-keyboard-response","467","1830478","0.0-243.0-1.0","null","<p></p>","null","","","","","","","","","","","","","","","","","","","","","","",""
"","do_trial","468","1835327","0.0-244.0-0.0","301.3050000881776","","","","","","","","51","0,1,0","4","highway","182","probe-60","0.27101772201013347","0.1275590705894788","0.6638430522060348","0","","","","","","","",""
"","html-keyboard-response","469","1836333","0.0-244.0-1.0","null","<p></p>","null","","","","","","","","","","","","","","","","","","","","","","",""
