"success","trial_type","trial_index","time_elapsed","internal_node_id","interactions","blur_events","focus_events","fullscreenenter_events","fullscreenexit_events"
"true","fullscreen","0","6325","0.0-0.0","""event"",""trial"",""time""
""fullscreenenter"",""0"",""5383""
","
","
","""event"",""trial"",""time""
""fullscreenenter"",""0"",""5383""
","
"
"","pavlovia","1","6329","0.0-1.0","""event"",""trial"",""time""
""fullscreenenter"",""0"",""5383""
""blur"",""2"",""54011""
""focus"",""2"",""55563""
""blur"",""2"",""64763""
""fullscreenexit"",""2"",""64860""
""focus"",""2"",""64886""
""blur"",""2"",""109072""
""focus"",""2"",""110544""
""blur"",""2"",""111669""
""focus"",""2"",""122594""
""focus"",""2"",""122595""
""blur"",""2"",""124242""
""focus"",""2"",""134512""
""focus"",""2"",""134513""
""blur"",""2"",""137383""
""focus"",""2"",""165347""
""focus"",""2"",""165348""
""blur"",""2"",""168980""
""focus"",""2"",""176723""
""focus"",""2"",""176723""
""blur"",""2"",""214759""
""focus"",""2"",""249476""
""focus"",""2"",""249476""
""blur"",""2"",""250378""
""focus"",""2"",""287825""
""focus"",""2"",""287825""
""blur"",""2"",""291059""
""focus"",""2"",""325752""
""focus"",""2"",""325752""
""blur"",""2"",""326803""
""focus"",""2"",""337206""
""focus"",""2"",""337206""
""blur"",""2"",""347111""
""focus"",""2"",""406547""
""focus"",""2"",""406548""
""blur"",""2"",""409224""
""focus"",""2"",""483135""
""focus"",""2"",""483136""
""blur"",""2"",""487086""
""focus"",""2"",""719442""
""focus"",""2"",""719448""
""blur"",""2"",""1359460""
""focus"",""2"",""1363585""
""blur"",""2"",""1369130""
""focus"",""2"",""1369169""
","""event"",""trial"",""time""
""blur"",""2"",""54011""
""blur"",""2"",""64763""
""blur"",""2"",""109072""
""blur"",""2"",""111669""
""blur"",""2"",""124242""
""blur"",""2"",""137383""
""blur"",""2"",""168980""
""blur"",""2"",""214759""
""blur"",""2"",""250378""
""blur"",""2"",""291059""
""blur"",""2"",""326803""
""blur"",""2"",""347111""
""blur"",""2"",""409224""
""blur"",""2"",""487086""
""blur"",""2"",""1359460""
""blur"",""2"",""1369130""
","""event"",""trial"",""time""
""focus"",""2"",""55563""
""focus"",""2"",""64886""
""focus"",""2"",""110544""
""focus"",""2"",""122594""
""focus"",""2"",""122595""
""focus"",""2"",""134512""
""focus"",""2"",""134513""
""focus"",""2"",""165347""
""focus"",""2"",""165348""
""focus"",""2"",""176723""
""focus"",""2"",""176723""
""focus"",""2"",""249476""
""focus"",""2"",""249476""
""focus"",""2"",""287825""
""focus"",""2"",""287825""
""focus"",""2"",""325752""
""focus"",""2"",""325752""
""focus"",""2"",""337206""
""focus"",""2"",""337206""
""focus"",""2"",""406547""
""focus"",""2"",""406548""
""focus"",""2"",""483135""
""focus"",""2"",""483136""
""focus"",""2"",""719442""
""focus"",""2"",""719448""
""focus"",""2"",""1363585""
""focus"",""2"",""1369169""
","""event"",""trial"",""time""
""fullscreenenter"",""0"",""5383""
","""event"",""trial"",""time""
""fullscreenexit"",""2"",""64860""
"
