"success","trial_type","trial_index","time_elapsed","internal_node_id","interactions","blur_events","focus_events","fullscreenenter_events","fullscreenexit_events","rt","stimulus","key_press","subject_id","participant_id","age","gender","prompt","response","choice_outcomes","context_n","context_img_id","trial_n","probe_img_id","pR_red","pR_white","pR_black","outcome","contextArray_ind","validImageProbes","invalidImageProbes","pRew_Red","pRew_White","pRew_Black","availableForMemProbe","choice_blocks"
"true","fullscreen","0","3704","0.0-0.0","""event"",""trial"",""time""
""fullscreenenter"",""0"",""2742""
","
","
","""event"",""trial"",""time""
""fullscreenenter"",""0"",""2742""
","
","","","","","","","","","","","","","","","","","","","","","","","","","",""
"","pavlovia","1","3711","0.0-1.0","""event"",""trial"",""time""
""fullscreenenter"",""0"",""2742""
","
","
","""event"",""trial"",""time""
""fullscreenenter"",""0"",""2742""
","
","","","","","","","","","","","","","","","","","","","","","","","","","",""
"","instruc1","2","48863","0.0-2.0","""event"",""trial"",""time""
""fullscreenenter"",""0"",""2742""
","
","
","""event"",""trial"",""time""
""fullscreenenter"",""0"",""2742""
","
","null","run_exp/static/audio/clip_1_welcome.m4a","null","380","877","25","Male","<div class='center'><p>Welcome! This is the first part of the study. It will last ~30 minutes. In part 1 and part 2 of the study, you are the head captain of a pirate ship traveling around the world to different islands. You will play a few different games throughout these two parts. Here is an overview of them:</p><br><p>Part 1 (today)</p><p>1. Instructions, practice game, and quiz</p><p>2. Pick a pirate game on 6 different islands</p><br><p>Part 2 (tomorrow)</p><p>3. Pick a pirate game and memory game</p><p>4. Where did you see this ship? </p></div>","","","","","","","","","","","","","","","","","",""
"","html-keyboard-response","3","48886","0.0-3.0","""event"",""trial"",""time""
""fullscreenenter"",""0"",""2742""
","
","
","""event"",""trial"",""time""
""fullscreenenter"",""0"",""2742""
","
","17.69999998807907","<div class='center'><p>Welcome! This is the first part of the study. It will last ~30 minutes. In part 1 and part 2 of the study, you are the head captain of a pirate ship traveling around the world to different islands. You will play a few different games throughout these two parts. Here is an overview of them:</p><br><p>Part 1 (today)</p><p>1. Instructions, practice game, and quiz</p><p>2. Pick a pirate game on 6 different islands</p><br><p>Part 2 (tomorrow)</p><p>3. Pick a pirate game and memory game</p><p>4. Where did you see this ship? </p><p><b>[Press the space bar to continue]</b></p></div>","32","","","","","","","","","","","","","","","","","","","","","","",""
"","instruc2","4","54215","0.0-4.0","""event"",""trial"",""time""
""fullscreenenter"",""0"",""2742""
","
","
","""event"",""trial"",""time""
""fullscreenenter"",""0"",""2742""
","
","null","run_exp/static/audio/clip_2_different_places.m4a","null","","","","","<div class='center'><p>Today, you’ll visit these 6 islands on your journey. You'll be able to see these islands from your ship.</p><p><img src='run_exp/static/images/contexts/all_contexts.png' height='500'></p></div>","","","","","","","","","","","","","","","","","",""
"","html-keyboard-response","5","55568","0.0-5.0","""event"",""trial"",""time""
""fullscreenenter"",""0"",""2742""
","
","
","""event"",""trial"",""time""
""fullscreenenter"",""0"",""2742""
","
","1350.7000000178814","<div class='center'><p>Today, you’ll visit these 6 islands on your journey. You'll be able to see these islands from your ship.</p><p><img src='run_exp/static/images/contexts/all_contexts.png' height='500'></p><p><b>[Press the space bar to continue]</b></p></div>","32","","","","","","","","","","","","","","","","","","","","","","",""
"","instruc3","6","65287","0.0-6.0","""event"",""trial"",""time""
""fullscreenenter"",""0"",""2742""
","
","
","""event"",""trial"",""time""
""fullscreenenter"",""0"",""2742""
","
","null","run_exp/static/audio/clip_3_goal_of_game_1.m4a","null","","","","","<div class='center'><p> The pirates on your ship will rob other ships as they leave the island.</p> These ships have just sold their goods to the islanders, so they will be filled with lots and lots of gold.</p><p><img src='run_exp/static/images/tutorial/ship_center.png' height='400'></p></div>","","","","","","","","","","","","","","","","","",""
"","html-keyboard-response","7","70847","0.0-7.0","""event"",""trial"",""time""
""fullscreenenter"",""0"",""2742""
","
","
","""event"",""trial"",""time""
""fullscreenenter"",""0"",""2742""
","
","5553.699999988079","<div class='center'><p> The pirates on your ship will rob other ships as they leave the island.</p> These ships have just sold their goods to the islanders, so they will be filled with lots and lots of gold.</p><p><img src='run_exp/static/images/tutorial/ship_center.png' height='400'></p><p><b>[Press the space bar to continue]</b></p></div>","32","","","","","","","","","","","","","","","","","","","","","","",""
"","instruc4","8","98865","0.0-8.0","""event"",""trial"",""time""
""fullscreenenter"",""0"",""2742""
","
","
","""event"",""trial"",""time""
""fullscreenenter"",""0"",""2742""
","
","null","run_exp/static/audio/clip_4_goal_of_game_2.m4a","null","","","","","<div class='center'><p>As the head captain, you do not have to rob any ships yourself. Another pirate will be doing the robbing for you. First, you will choose a pirate to rob the next ship.</p><p><img src='run_exp/static/images/tutorial/pirates_all_crop.png' height='200'></p><p>Then, you'll see if the pirate successfully robbed the ship of their gold. If they were successful, then you'll get a stack of gold coins like this:</p><p><img src='run_exp/static/images/tutorial/reward.png' height='150'></p><p> If they were <b>not</b> successful, then you'll get no gold coins, and you'll see a big red x like this: </p><p><img src='run_exp/static/images/tutorial/reward_no.png' height='150'></p><p> How much bonus money you make is based on how many gold coins you collect.</p><div>","","","","","","","","","","","","","","","","","",""
"","html-keyboard-response","9","99624","0.0-9.0","""event"",""trial"",""time""
""fullscreenenter"",""0"",""2742""
","
","
","""event"",""trial"",""time""
""fullscreenenter"",""0"",""2742""
","
","755.9000000059605","<div class='center'><p>As the head captain, you do not have to rob any ships yourself. Another pirate will be doing the robbing for you. First, you will choose a pirate to rob the next ship.</p><p><img src='run_exp/static/images/tutorial/pirates_all_crop.png' height='200'></p><p>Then, you'll see if the pirate successfully robbed the ship of their gold. If they were successful, then you'll get a stack of gold coins like this:</p><p><img src='run_exp/static/images/tutorial/reward.png' height='150'></p><p> If they were <b>not</b> successful, then you'll get no gold coins, and you'll see a big red x like this: </p><p><img src='run_exp/static/images/tutorial/reward_no.png' height='150'></p><p> How much bonus money you make is based on how many gold coins you collect.</p<p><b>[Press the space bar to continue]</b></p></div>","32","","","","","","","","","","","","","","","","","","","","","","",""
"","instruc5","10","120385","0.0-10.0","""event"",""trial"",""time""
""fullscreenenter"",""0"",""2742""
","
","
","""event"",""trial"",""time""
""fullscreenenter"",""0"",""2742""
","
","20759.09999999404","run_exp/static/audio/clip_5_probabilistic.m4a","49","","","","","<div class='center'><p>Even the most skilled pirate can not rob EVERY ship.</p><p> Some ships will have very strong protections against pirate attacks.</p><p> Blue beard, here, is very, very good at robbing ships, but he won't be successful every time he tries to rob one.</p><p> You can press the <b>‘1’</b> key on the keyboard to choose him.</p><p> Try choosing him 10 times to see how often he succeeds at robbing a ship. </p><p><img src='run_exp/static/images/tutorial/blue.png' height='500'></p></div>","","","","","","","","","","","","","","","","","",""
"","html-keyboard-response","11","121889","0.0-11.0","""event"",""trial"",""time""
""fullscreenenter"",""0"",""2742""
","
","
","""event"",""trial"",""time""
""fullscreenenter"",""0"",""2742""
","
","null","<div class='center'><p><img src='run_exp/static/images/tutorial/blue_win.png' height='500'></p></div>","null","","","","","","","","","","","","","","","","","","","","","","",""
"","html-keyboard-response","12","122551","0.0-12.0","""event"",""trial"",""time""
""fullscreenenter"",""0"",""2742""
","
","
","""event"",""trial"",""time""
""fullscreenenter"",""0"",""2742""
","
","659.9000000059605","<div class='center'><img src='run_exp/static/images/tutorial/blue.png' height='500'></p></div>","49","","","","","","","","","","","","","","","","","","","","","","",""
"","html-keyboard-response","13","124055","0.0-13.0","""event"",""trial"",""time""
""fullscreenenter"",""0"",""2742""
","
","
","""event"",""trial"",""time""
""fullscreenenter"",""0"",""2742""
","
","null","<div class='center'><p><img src='run_exp/static/images/tutorial/blue_win.png' height='500'></p></div>","null","","","","","","","","","","","","","","","","","","","","","","",""
"","html-keyboard-response","14","124308","0.0-14.0","""event"",""trial"",""time""
""fullscreenenter"",""0"",""2742""
","
","
","""event"",""trial"",""time""
""fullscreenenter"",""0"",""2742""
","
","251","<div class='center'><img src='run_exp/static/images/tutorial/blue.png' height='500'></p></div>","49","","","","","","","","","","","","","","","","","","","","","","",""
"","html-keyboard-response","15","125810","0.0-15.0","""event"",""trial"",""time""
""fullscreenenter"",""0"",""2742""
","
","
","""event"",""trial"",""time""
""fullscreenenter"",""0"",""2742""
","
","null","<div class='center'><p><img src='run_exp/static/images/tutorial/blue_win.png' height='500'></p></div>","null","","","","","","","","","","","","","","","","","","","","","","",""
"","html-keyboard-response","16","126077","0.0-16.0","""event"",""trial"",""time""
""fullscreenenter"",""0"",""2742""
","
","
","""event"",""trial"",""time""
""fullscreenenter"",""0"",""2742""
","
","264.7000000178814","<div class='center'><img src='run_exp/static/images/tutorial/blue.png' height='500'></p></div>","49","","","","","","","","","","","","","","","","","","","","","","",""
"","html-keyboard-response","17","127581","0.0-17.0","""event"",""trial"",""time""
""fullscreenenter"",""0"",""2742""
","
","
","""event"",""trial"",""time""
""fullscreenenter"",""0"",""2742""
","
","null","<div class='center'><p><img src='run_exp/static/images/tutorial/blue_no_win.png' height='500'></p></div>","null","","","","","","","","","","","","","","","","","","","","","","",""
"","html-keyboard-response","18","127771","0.0-18.0","""event"",""trial"",""time""
""fullscreenenter"",""0"",""2742""
","
","
","""event"",""trial"",""time""
""fullscreenenter"",""0"",""2742""
","
","187.90000000596046","<div class='center'><img src='run_exp/static/images/tutorial/blue.png' height='500'></p></div>","49","","","","","","","","","","","","","","","","","","","","","","",""
"","html-keyboard-response","19","129273","0.0-19.0","""event"",""trial"",""time""
""fullscreenenter"",""0"",""2742""
","
","
","""event"",""trial"",""time""
""fullscreenenter"",""0"",""2742""
","
","null","<div class='center'><p><img src='run_exp/static/images/tutorial/blue_win.png' height='500'></p></div>","null","","","","","","","","","","","","","","","","","","","","","","",""
"","html-keyboard-response","20","129297","0.0-20.0","""event"",""trial"",""time""
""fullscreenenter"",""0"",""2742""
","
","
","""event"",""trial"",""time""
""fullscreenenter"",""0"",""2742""
","
","21.5","<div class='center'><img src='run_exp/static/images/tutorial/blue.png' height='500'></p></div>","49","","","","","","","","","","","","","","","","","","","","","","",""
"","html-keyboard-response","21","130799","0.0-21.0","""event"",""trial"",""time""
""fullscreenenter"",""0"",""2742""
","
","
","""event"",""trial"",""time""
""fullscreenenter"",""0"",""2742""
","
","null","<div class='center'><p><img src='run_exp/static/images/tutorial/blue_win.png' height='500'></p></div>","null","","","","","","","","","","","","","","","","","","","","","","",""
"","html-keyboard-response","22","131058","0.0-22.0","""event"",""trial"",""time""
""fullscreenenter"",""0"",""2742""
","
","
","""event"",""trial"",""time""
""fullscreenenter"",""0"",""2742""
","
","256.59999999403954","<div class='center'><img src='run_exp/static/images/tutorial/blue.png' height='500'></p></div>","49","","","","","","","","","","","","","","","","","","","","","","",""
"","html-keyboard-response","23","132559","0.0-23.0","""event"",""trial"",""time""
""fullscreenenter"",""0"",""2742""
","
","
","""event"",""trial"",""time""
""fullscreenenter"",""0"",""2742""
","
","null","<div class='center'><p><img src='run_exp/static/images/tutorial/blue_win.png' height='500'></p></div>","null","","","","","","","","","","","","","","","","","","","","","","",""
"","html-keyboard-response","24","133821","0.0-24.0","""event"",""trial"",""time""
""fullscreenenter"",""0"",""2742""
","
","
","""event"",""trial"",""time""
""fullscreenenter"",""0"",""2742""
","
","1260.2000000178814","<div class='center'><img src='run_exp/static/images/tutorial/blue.png' height='500'></p></div>","49","","","","","","","","","","","","","","","","","","","","","","",""
"","html-keyboard-response","25","135328","0.0-25.0","""event"",""trial"",""time""
""fullscreenenter"",""0"",""2742""
","
","
","""event"",""trial"",""time""
""fullscreenenter"",""0"",""2742""
","
","null","<div class='center'><p><img src='run_exp/static/images/tutorial/blue_no_win.png' height='500'></p></div>","null","","","","","","","","","","","","","","","","","","","","","","",""
"","html-keyboard-response","26","135646","0.0-26.0","""event"",""trial"",""time""
""fullscreenenter"",""0"",""2742""
","
","
","""event"",""trial"",""time""
""fullscreenenter"",""0"",""2742""
","
","316.80000001192093","<div class='center'><img src='run_exp/static/images/tutorial/blue.png' height='500'></p></div>","49","","","","","","","","","","","","","","","","","","","","","","",""
"","html-keyboard-response","27","137150","0.0-27.0","""event"",""trial"",""time""
""fullscreenenter"",""0"",""2742""
","
","
","""event"",""trial"",""time""
""fullscreenenter"",""0"",""2742""
","
","null","<div class='center'><p><img src='run_exp/static/images/tutorial/blue_win.png' height='500'></p></div>","null","","","","","","","","","","","","","","","","","","","","","","",""
"","html-keyboard-response","28","137590","0.0-28.0","""event"",""trial"",""time""
""fullscreenenter"",""0"",""2742""
","
","
","""event"",""trial"",""time""
""fullscreenenter"",""0"",""2742""
","
","438.2000000178814","<div class='center'><img src='run_exp/static/images/tutorial/blue.png' height='500'></p></div>","49","","","","","","","","","","","","","","","","","","","","","","",""
"","html-keyboard-response","29","139093","0.0-29.0","""event"",""trial"",""time""
""fullscreenenter"",""0"",""2742""
","
","
","""event"",""trial"",""time""
""fullscreenenter"",""0"",""2742""
","
","null","<div class='center'><p><img src='run_exp/static/images/tutorial/blue_win.png' height='500'></p></div>","null","","","","","","","","","","","","","","","","","","","","","","",""
"","instruc6","30","144515","0.0-30.0","""event"",""trial"",""time""
""fullscreenenter"",""0"",""2742""
","
","
","""event"",""trial"",""time""
""fullscreenenter"",""0"",""2742""
","
","null","run_exp/static/audio/clip_6_blue_beard_outcome.m4a","null","","","","","<div class='center'><p> See, he succeeded in robbing the ships most of the time but not every time. </p></div>","","","","","","","","","","","","","","","","","",""
"","html-keyboard-response","31","146352","0.0-31.0","""event"",""trial"",""time""
""fullscreenenter"",""0"",""2742""
","
","
","""event"",""trial"",""time""
""fullscreenenter"",""0"",""2742""
","
","1835.0999999940395","<div class='center'><p> See, he succeeded in robbing the ships most of the time but not every time. </p><p><b>[Press the space bar to continue]</b></p></div>","32","","","","","","","","","","","","","","","","","","","","","","",""
"","audio-keyboard-response","32","162689","0.0-32.0","""event"",""trial"",""time""
""fullscreenenter"",""0"",""2742""
","
","
","""event"",""trial"",""time""
""fullscreenenter"",""0"",""2742""
","
","16334.5","run_exp/static/audio/clip_7_pick_pirate.m4a","50","","","","","","","","","","","","","","","","","","","","","","",""
"","audio-keyboard-response","33","167776","0.0-33.0-0.0","""event"",""trial"",""time""
""fullscreenenter"",""0"",""2742""
","
","
","""event"",""trial"",""time""
""fullscreenenter"",""0"",""2742""
","
","5080.199999988079","run_exp/static/audio/clip_8_chosen_pirate_win.m4a","32","","","","","","","","","","","","","","","","","","","","","","",""
"","audio-keyboard-response","34","170050","0.0-33.0-1.0","""event"",""trial"",""time""
""fullscreenenter"",""0"",""2742""
","
","
","""event"",""trial"",""time""
""fullscreenenter"",""0"",""2742""
","
","2271.600000023842","run_exp/static/audio/clip_9_pick_a_pirate_again.m4a","49","","","","","","","","","","","","","","","","","","","","","","",""
"","audio-keyboard-response","35","174941","0.0-34.0-0.0","""event"",""trial"",""time""
""fullscreenenter"",""0"",""2742""
","
","
","""event"",""trial"",""time""
""fullscreenenter"",""0"",""2742""
","
","4888.5999999940395","run_exp/static/audio/clip_10_chosen_pirate_loss.m4a","32","","","","","","","","","","","","","","","","","","","","","","",""
"","instruc9","36","180440","0.0-35.0-0.0","""event"",""trial"",""time""
""fullscreenenter"",""0"",""2742""
","
","
","""event"",""trial"",""time""
""fullscreenenter"",""0"",""2742""
","
","null","run_exp/static/audio/clip_11_time_out.m4a","null","","","","","<div class='center'><p>If you don’t make your choice fast enough, you’ll have to wait a few seconds before you can make another one. </p><p><img src='run_exp/static/images/miscellaneous/hurry_up.png' height='500'></p></div>","","","","","","","","","","","","","","","","","",""
"","html-keyboard-response","37","181415","0.0-35.0-1.0","""event"",""trial"",""time""
""fullscreenenter"",""0"",""2742""
","
","
","""event"",""trial"",""time""
""fullscreenenter"",""0"",""2742""
","
","972","<div class='center'><p>If you don’t make your choice fast enough, you’ll have to wait a few seconds before you can make another one. </p><p><img src='run_exp/static/images/miscellaneous/hurry_up.png' height='500'></p><p><b>[Press the space bar to continue]</b></p></div>","32","","","","","","","","","","","","","","","","","","","","","","",""
"","instruc10","38","220525","0.0-35.0-2.0","""event"",""trial"",""time""
""fullscreenenter"",""0"",""2742""
","
","
","""event"",""trial"",""time""
""fullscreenenter"",""0"",""2742""
","
","null","run_exp/static/audio/clip_12_probe.m4a","null","","","","","<div class='center'><p>Once you've chosen a pirate, you’ll be shown the ship they are robbing. You will never rob the same ship twice. Ships can be told apart from one another by the image on them. These are the goods that they sell. See, this ship has a travel mug on it. </p><p> You’ll have to remember which island you saw each ship on. You will win more gold coins and hence more bonus money if you remember correctly! To help you remember, you can imagine a story. For example, here, you could imagine a mug full of water in the desert. Or, as another example, if on the forest island, your pirate robbed a ship with an apple on it, you could imagine an apple falling from a tree in the forest. </p><p><img src='run_exp/static/images/tutorial/example_probe.png' height='500'></p></div>","","","","","","","","","","","","","","","","","",""
"","html-keyboard-response","39","222699","0.0-35.0-3.0","""event"",""trial"",""time""
""fullscreenenter"",""0"",""2742""
","
","
","""event"",""trial"",""time""
""fullscreenenter"",""0"",""2742""
","
","2167.300000011921","<div class='center'><p>Once you've chosen a pirate, you’ll be shown the ship they are robbing. You will never rob the same ship twice. Ships can be told apart from one another by the image on them. These are the goods that they sell. See, this ship has a travel mug on it. </p><p> You’ll have to remember which island you saw each ship on. You will win more gold coins and hence more bonus money if you remember correctly! To help you remember, you can imagine a story. For example, here, you could imagine a mug full of water in the desert. Or, as another example, if on the forest island, your pirate robbed a ship with an apple on it, you could imagine an apple falling from a tree in the forest. </p><p><img src='run_exp/static/images/tutorial/example_probe.png' height='500'></p><p><b>[Press the space bar to continue]</b></p></div>","32","","","","","","","","","","","","","","","","","","","","","","",""
"","instruc11","40","239107","0.0-35.0-4.0","""event"",""trial"",""time""
""fullscreenenter"",""0"",""2742""
","
","
","""event"",""trial"",""time""
""fullscreenenter"",""0"",""2742""
","
","null","run_exp/static/audio/clip_13_changepoint.m4a","null","","","","","<div class='center'><p>How successful a pirate is at robbing ships will depend on the island you’re on.</p><p> A pirate may have visited this island many times before and gained a lot of practice robbing ships there.</p><p>So, they’re more likely to be successful than a pirate who has never visited the island before.</p></div>","","","","","","","","","","","","","","","","","",""
"","html-keyboard-response","41","240246","0.0-35.0-5.0","""event"",""trial"",""time""
""fullscreenenter"",""0"",""2742""
","
","
","""event"",""trial"",""time""
""fullscreenenter"",""0"",""2742""
","
","1137.2000000178814","<div class='center'><p>How successful a pirate is at robbing ships will depend on the island you’re on.</p><p> A pirate may have visited this island many times before and gained a lot of practice robbing ships there.</p><p>So, they’re more likely to be successful than a pirate who has never visited the island before.</p><p><b>[Press the space bar to continue]</b></p></div>","32","","","","","","","","","","","","","","","","","","","","","","",""
"","instruc12","42","281346","0.0-35.0-6.0","""event"",""trial"",""time""
""fullscreenenter"",""0"",""2742""
","
","
","""event"",""trial"",""time""
""fullscreenenter"",""0"",""2742""
","
","null","run_exp/static/audio/clip_14_drift.m4a","null","","","","","<div class='center'><p>How successful a pirate is at robbing ships can also change over the time spent on the island. </p><p> Ships may hear from islanders about the pirates coming and will improve their protections against the attack. This may make it harder to rob them.</p><p> Ships may also become lazy and weaken the strength of their protections. This may make it easier to rob them.</p><br><p>Things are always changing on the high seas! So, try your best to pay attention!</p><p><img src='run_exp/static/images/tutorial/contingency.png' height='500'></p></div>","","","","","","","","","","","","","","","","","",""
"","html-keyboard-response","43","282788","0.0-35.0-7.0","""event"",""trial"",""time""
""fullscreenenter"",""0"",""2742""
","
","
","""event"",""trial"",""time""
""fullscreenenter"",""0"",""2742""
","
","1430.9000000059605","<div class='center'><p>How successful a pirate is at robbing ships can also change over the time spent on the island. </p><p> Ships may hear from islanders about the pirates coming and will improve their protections against the attack. This may make it harder to rob them.</p><p> Ships may also become lazy and weaken the strength of their protections. This may make it easier to rob them.</p><br><p>Things are always changing on the high seas! So, try your best to pay attention!</p><p><img src='run_exp/static/images/tutorial/contingency.png' height='500'></p><p><b>[Press the space bar to continue]</b></p></div>","32","","","","","","","","","","","","","","","","","","","","","","",""
"","instruc13","44","317997","0.0-35.0-8.0","""event"",""trial"",""time""
""fullscreenenter"",""0"",""2742""
","
","
","""event"",""trial"",""time""
""fullscreenenter"",""0"",""2742""
","
","null","run_exp/static/audio/clip_15_summary.m4a","null","","","","","<div class='center'><p>Let's go over the instructions quickly again. You have two important things to do: </p><b><p> 1. Pick the pirate who is the best at robbing ships on the current island. </p></b><b><p> 2. Remember on which island a ship was robbed.</p> </b><p>The amount of bonus money you can win depends on both.</p><p><br><p>Let’s try a practice game. The game will start by showing you the pirates. First, pick a pirate using the <b> 1, 2, 3 </b> keys on your keyboard. When you are shown a ship, try to remember which island you’re on by making up a story.</p><p>This is just a practice game, so you’re not playing for money. </p><p> Good luck! This game will be very difficult but try your best!</p></div>","","","","","","","","","","","","","","","","","",""
"","html-keyboard-response","45","318461","0.0-35.0-9.0","""event"",""trial"",""time""
""fullscreenenter"",""0"",""2742""
","
","
","""event"",""trial"",""time""
""fullscreenenter"",""0"",""2742""
","
","462.19999998807907","<div class='center'><p>Let's go over the instructions quickly again. You have two important things to do: </p><b><p> 1. Pick the pirate who is the best at robbing ships on the current island. </p></b><b><p> 2. Remember on which island a ship was robbed.</p> </b><p>The amount of bonus money you can win depends on both.</p><p><br><p>Let’s try a practice game. The game will start by showing you the pirates. First, pick a pirate using the <b> 1, 2, 3 </b> keys on your keyboard. When you are shown a ship, try to remember which island you’re on by making up a story.</p><p>This is just a practice game, so you’re not playing for money. </p><p> Good luck! This game will be very difficult but try your best!</p><p><b>[Press the space bar to continue]</b></p></div>","32","","","","","","","","","","","","","","","","","","","","","","",""
"","do_welcome","46","322474","0.0-35.0-10.0","""event"",""trial"",""time""
""fullscreenenter"",""0"",""2742""
","
","
","""event"",""trial"",""time""
""fullscreenenter"",""0"",""2742""
","
","null","","","","","","","","null","","","","","","","","","","","","","","","","",""
"","do_trial","47","329113","0.0-35.0-11.0","""event"",""trial"",""time""
""fullscreenenter"",""0"",""2742""
","
","
","""event"",""trial"",""time""
""fullscreenenter"",""0"",""2742""
","
","2128.199999988079","","","","","","","","50","1,0,0","","","","","","","","","","","","","","","",""
"","html-keyboard-response","48","330120","0.0-36.0-0.0","""event"",""trial"",""time""
""fullscreenenter"",""0"",""2742""
","
","
","""event"",""trial"",""time""
""fullscreenenter"",""0"",""2742""
","
","null","<p></p>","null","","","","","","","","","","","","","","","","","","","","","","",""
"","do_trial","49","336130","0.0-36.0-1.0","""event"",""trial"",""time""
""fullscreenenter"",""0"",""2742""
","
","
","""event"",""trial"",""time""
""fullscreenenter"",""0"",""2742""
","
","null","","","","","","","","null","1,1,0","","","","","","","","","","","","","","","",""
"","html-keyboard-response","50","337134","0.0-37.0-0.0","""event"",""trial"",""time""
""fullscreenenter"",""0"",""2742""
","
","
","""event"",""trial"",""time""
""fullscreenenter"",""0"",""2742""
","
","null","<p></p>","null","","","","","","","","","","","","","","","","","","","","","","",""
"","do_trial","51","342379","0.0-37.0-1.0","""event"",""trial"",""time""
""fullscreenenter"",""0"",""2742""
","
","
","""event"",""trial"",""time""
""fullscreenenter"",""0"",""2742""
","
","734.3000000119209","","","","","","","","50","1,1,0","","","","","","","","","","","","","","","",""
"","html-keyboard-response","52","343383","0.0-38.0-0.0","""event"",""trial"",""time""
""fullscreenenter"",""0"",""2742""
","
","
","""event"",""trial"",""time""
""fullscreenenter"",""0"",""2742""
","
","null","<p></p>","null","","","","","","","","","","","","","","","","","","","","","","",""
"","do_trial","53","348754","0.0-38.0-1.0","""event"",""trial"",""time""
""fullscreenenter"",""0"",""2742""
","
","
","""event"",""trial"",""time""
""fullscreenenter"",""0"",""2742""
","
","855.4000000059605","","","","","","","","49","1,0,1","","","","","","","","","","","","","","","",""
"","html-keyboard-response","54","349760","0.0-39.0-0.0","""event"",""trial"",""time""
""fullscreenenter"",""0"",""2742""
","
","
","""event"",""trial"",""time""
""fullscreenenter"",""0"",""2742""
","
","null","<p></p>","null","","","","","","","","","","","","","","","","","","","","","","",""
"","do_trial","55","355417","0.0-39.0-1.0","""event"",""trial"",""time""
""fullscreenenter"",""0"",""2742""
","
","
","""event"",""trial"",""time""
""fullscreenenter"",""0"",""2742""
","
","1146.300000011921","","","","","","","","49","0,1,0","","","","","","","","","","","","","","","",""
"","html-keyboard-response","56","356423","0.0-40.0-0.0","""event"",""trial"",""time""
""fullscreenenter"",""0"",""2742""
","
","
","""event"",""trial"",""time""
""fullscreenenter"",""0"",""2742""
","
","null","<p></p>","null","","","","","","","","","","","","","","","","","","","","","","",""
"","do_trial","57","361744","0.0-40.0-1.0","""event"",""trial"",""time""
""fullscreenenter"",""0"",""2742""
","
","
","""event"",""trial"",""time""
""fullscreenenter"",""0"",""2742""
","
","807.5999999940395","","","","","","","","50","1,0,0","","","","","","","","","","","","","","","",""
"","do_bye","58","363257","0.0-41.0-0.0","""event"",""trial"",""time""
""fullscreenenter"",""0"",""2742""
","
","
","""event"",""trial"",""time""
""fullscreenenter"",""0"",""2742""
","
","null","","","","","","","","null","","","","","","","","","","","","","","","","",""
"","do_travel","59","372266","0.0-41.0-1.0","""event"",""trial"",""time""
""fullscreenenter"",""0"",""2742""
","
","
","""event"",""trial"",""time""
""fullscreenenter"",""0"",""2742""
","
","null","","","","","","","","null","","","","","","","","","","","","","","","","",""
"","do_welcome","60","376278","0.0-41.0-2.0","""event"",""trial"",""time""
""fullscreenenter"",""0"",""2742""
","
","
","""event"",""trial"",""time""
""fullscreenenter"",""0"",""2742""
","
","null","","","","","","","","null","","","","","","","","","","","","","","","","",""
"","do_trial","61","381817","0.0-41.0-3.0","""event"",""trial"",""time""
""fullscreenenter"",""0"",""2742""
","
","
","""event"",""trial"",""time""
""fullscreenenter"",""0"",""2742""
","
","1025.3999999761581","","","","","","","","49","1,0,0","","","","","","","","","","","","","","","",""
"","html-keyboard-response","62","382822","0.0-42.0-0.0","""event"",""trial"",""time""
""fullscreenenter"",""0"",""2742""
","
","
","""event"",""trial"",""time""
""fullscreenenter"",""0"",""2742""
","
","null","<p></p>","null","","","","","","","","","","","","","","","","","","","","","","",""
"","do_trial","63","389418","0.0-42.0-1.0","""event"",""trial"",""time""
""fullscreenenter"",""0"",""2742""
","
","
","""event"",""trial"",""time""
""fullscreenenter"",""0"",""2742""
","
","2081.199999988079","","","","","","","","51","1,0,1","","","","","","","","","","","","","","","",""
"","html-keyboard-response","64","390425","0.0-43.0-0.0","""event"",""trial"",""time""
""fullscreenenter"",""0"",""2742""
","
","
","""event"",""trial"",""time""
""fullscreenenter"",""0"",""2742""
","
","null","<p></p>","null","","","","","","","","","","","","","","","","","","","","","","",""
"","do_trial","65","396323","0.0-43.0-1.0","""event"",""trial"",""time""
""fullscreenenter"",""0"",""2742""
","
","
","""event"",""trial"",""time""
""fullscreenenter"",""0"",""2742""
","
","1388.5999999940395","","","","","","","","49","1,1,0","","","","","","","","","","","","","","","",""
"","html-keyboard-response","66","397327","0.0-44.0-0.0","""event"",""trial"",""time""
""fullscreenenter"",""0"",""2742""
","
","
","""event"",""trial"",""time""
""fullscreenenter"",""0"",""2742""
","
","null","<p></p>","null","","","","","","","","","","","","","","","","","","","","","","",""
"","do_trial","67","403307","0.0-44.0-1.0","""event"",""trial"",""time""
""fullscreenenter"",""0"",""2742""
","
","
","""event"",""trial"",""time""
""fullscreenenter"",""0"",""2742""
","
","1463.1000000238419","","","","","","","","50","0,0,1","","","","","","","","","","","","","","","",""
"","html-keyboard-response","68","404309","0.0-45.0-0.0","""event"",""trial"",""time""
""fullscreenenter"",""0"",""2742""
","
","
","""event"",""trial"",""time""
""fullscreenenter"",""0"",""2742""
","
","null","<p></p>","null","","","","","","","","","","","","","","","","","","","","","","",""
"","do_trial","69","410325","0.0-45.0-1.0","""event"",""trial"",""time""
""fullscreenenter"",""0"",""2742""
","
","
","""event"",""trial"",""time""
""fullscreenenter"",""0"",""2742""
","
","null","","","","","","","","null","1,0,1","","","","","","","","","","","","","","","",""
"","html-keyboard-response","70","411329","0.0-46.0-0.0","""event"",""trial"",""time""
""fullscreenenter"",""0"",""2742""
","
","
","""event"",""trial"",""time""
""fullscreenenter"",""0"",""2742""
","
","null","<p></p>","null","","","","","","","","","","","","","","","","","","","","","","",""
"","do_trial","71","416881","0.0-46.0-1.0","""event"",""trial"",""time""
""fullscreenenter"",""0"",""2742""
","
","
","""event"",""trial"",""time""
""fullscreenenter"",""0"",""2742""
","
","1041.699999988079","","","","","","","","49","1,0,1","","","","","","","","","","","","","","","",""
"","html-keyboard-response","72","421043","0.0-47.0-0.0","""event"",""trial"",""time""
""fullscreenenter"",""0"",""2742""
","
","
","""event"",""trial"",""time""
""fullscreenenter"",""0"",""2742""
","
","4156.899999976158","<div class='center'><p><img src='run_exp/static/images/tutorial/prac_best_pirate.png'  height='500'></p></div>","49","","","","","","","","","","","","","","","","","","","","","","",""
"","html-keyboard-response","73","426954","0.0-48.0-0.0","""event"",""trial"",""time""
""fullscreenenter"",""0"",""2742""
","
","
","""event"",""trial"",""time""
""fullscreenenter"",""0"",""2742""
","
","5909.300000011921","<div class='center'><p>That's correct! Red beard was the best.</p><p><b>[Press the space bar to continue]</b></p></div>","32","","","","","","","","","","","","","","","","","","","","","","",""
"","html-keyboard-response","74","429848","0.0-48.0-1.0","""event"",""trial"",""time""
""fullscreenenter"",""0"",""2742""
","
","
","""event"",""trial"",""time""
""fullscreenenter"",""0"",""2742""
","
","2891.9000000059605","<div class='center'><p><img src='run_exp/static/images/tutorial/prac_source.png'  height='500'></p></div>","50","","","","","","","","","","","","","","","","","","","","","","",""
"","html-keyboard-response","75","434125","0.0-49.0-0.0","""event"",""trial"",""time""
""fullscreenenter"",""0"",""2742""
","
","
","""event"",""trial"",""time""
""fullscreenenter"",""0"",""2742""
","
","4275.199999988079","<div class='center'><p>That's correct! You saw this ship on the cavern island.</p><p><b>[Press the space bar to continue]</b></p></div>","32","","","","","","","","","","","","","","","","","","","","","","",""
"","quiz_beginning","76","445370","0.0-49.0-1.0","""event"",""trial"",""time""
""fullscreenenter"",""0"",""2742""
","
","
","""event"",""trial"",""time""
""fullscreenenter"",""0"",""2742""
","
","null","run_exp/static/audio/clip_16_quiz_intro.m4a","null","","","","","<div class='center'><p>Good job on the practice game! Now, you will be asked some true or false questions to make sure you really understand the rules of the game.</p><p> Press <b>'1'</b> on the keyboard for true and press <b>'2'</b> for false.</p></div>","","","","","","","","","","","","","","","","","",""
"","audio-keyboard-response","77","450759","0.0-49.0-2.0","""event"",""trial"",""time""
""fullscreenenter"",""0"",""2742""
","
","
","""event"",""trial"",""time""
""fullscreenenter"",""0"",""2742""
","
","5387.0999999940395","run_exp/static/audio/clip_17_q1.m4a","49","","","","","","","","","","","","","","","","","","","","","","",""
"","correct","78","453178","0.0-50.0-0.0","""event"",""trial"",""time""
""fullscreenenter"",""0"",""2742""
","
","
","""event"",""trial"",""time""
""fullscreenenter"",""0"",""2742""
","
","null","run_exp/static/audio/clip_18_correct.m4a","null","","","","","<div class='center'><p>That's correct!</p></div>","","","","","","","","","","","","","","","","","",""
"","html-keyboard-response","79","453898","0.0-50.0-1.0","""event"",""trial"",""time""
""fullscreenenter"",""0"",""2742""
","
","
","""event"",""trial"",""time""
""fullscreenenter"",""0"",""2742""
","
","719.1999999880791","<div class='center'><p>That's correct!</p><p><b>[Press the space bar to continue]</b></p></div>","32","","","","","","","","","","","","","","","","","","","","","","",""
"","audio-keyboard-response","80","458317","0.0-50.0-2.0","""event"",""trial"",""time""
""fullscreenenter"",""0"",""2742""
","
","
","""event"",""trial"",""time""
""fullscreenenter"",""0"",""2742""
","
","4417","run_exp/static/audio/clip_20_q2.m4a","50","","","","","","","","","","","","","","","","","","","","","","",""
"","correct","81","460730","0.0-51.0-0.0","""event"",""trial"",""time""
""fullscreenenter"",""0"",""2742""
","
","
","""event"",""trial"",""time""
""fullscreenenter"",""0"",""2742""
","
","null","run_exp/static/audio/clip_18_correct.m4a","null","","","","","<div class='center'><p>That's correct!</p></div>","","","","","","","","","","","","","","","","","",""
"","html-keyboard-response","82","461165","0.0-51.0-1.0","""event"",""trial"",""time""
""fullscreenenter"",""0"",""2742""
","
","
","""event"",""trial"",""time""
""fullscreenenter"",""0"",""2742""
","
","434.30000001192093","<div class='center'><p>That's correct!</p><p><b>[Press the space bar to continue]</b></p></div>","32","","","","","","","","","","","","","","","","","","","","","","",""
"","audio-keyboard-response","83","464468","0.0-51.0-2.0","""event"",""trial"",""time""
""fullscreenenter"",""0"",""2742""
","
","
","""event"",""trial"",""time""
""fullscreenenter"",""0"",""2742""
","
","3301.2999999821186","run_exp/static/audio/clip_22_q3.m4a","50","","","","","","","","","","","","","","","","","","","","","","",""
"","correct","84","466874","0.0-52.0-0.0","""event"",""trial"",""time""
""fullscreenenter"",""0"",""2742""
","
","
","""event"",""trial"",""time""
""fullscreenenter"",""0"",""2742""
","
","null","run_exp/static/audio/clip_18_correct.m4a","null","","","","","<div class='center'><p>That's correct!</p></div>","","","","","","","","","","","","","","","","","",""
"","html-keyboard-response","85","467355","0.0-52.0-1.0","""event"",""trial"",""time""
""fullscreenenter"",""0"",""2742""
","
","
","""event"",""trial"",""time""
""fullscreenenter"",""0"",""2742""
","
","480.30000001192093","<div class='center'><p>That's correct!</p><p><b>[Press the space bar to continue]</b></p></div>","32","","","","","","","","","","","","","","","","","","","","","","",""
"","audio-keyboard-response","86","470484","0.0-52.0-2.0","""event"",""trial"",""time""
""fullscreenenter"",""0"",""2742""
","
","
","""event"",""trial"",""time""
""fullscreenenter"",""0"",""2742""
","
","3127.2000000178814","run_exp/static/audio/clip_24_q4.m4a","49","","","","","","","","","","","","","","","","","","","","","","",""
"","correct","87","472933","0.0-53.0-0.0","""event"",""trial"",""time""
""fullscreenenter"",""0"",""2742""
","
","
","""event"",""trial"",""time""
""fullscreenenter"",""0"",""2742""
","
","null","run_exp/static/audio/clip_18_correct.m4a","null","","","","","<div class='center'><p>That's correct!</p></div>","","","","","","","","","","","","","","","","","",""
"","html-keyboard-response","88","474737","0.0-53.0-1.0","""event"",""trial"",""time""
""fullscreenenter"",""0"",""2742""
","
","
","""event"",""trial"",""time""
""fullscreenenter"",""0"",""2742""
","
","1801.9000000059605","<div class='center'><p>That's correct!</p><p><b>[Press the space bar to continue]</b></p></div>","32","","","","","","","","","","","","","","","","","","","","","","",""
"","q_all_corr","89","483237","0.0-54.0-0.0","""event"",""trial"",""time""
""fullscreenenter"",""0"",""2742""
","
","
","""event"",""trial"",""time""
""fullscreenenter"",""0"",""2742""
","
","null","run_exp/static/audio/clip_27_quiz_all_correct.m4a","null","","","","","<div class='center'><p>Good job! You’re now ready to move on to the real game! Remember this game will be difficult but don't get discouraged and try your best!</p></div>","","","","","","","","","","","","","","","","","",""
"","html-keyboard-response","90","493510","0.0-54.0-1.0","""event"",""trial"",""time""
""fullscreenenter"",""0"",""2742""
","
","
","""event"",""trial"",""time""
""fullscreenenter"",""0"",""2742""
","
","10270.300000011921","<div class='center'><p>Good job! You’re now ready to move on to the real game! Remember this game will be difficult but don't get discouraged and try your best!</p><p><b>[Press the space bar to continue]</b></p></div>","32","","","","","","","","","","","","","","","","","","","","","","",""
"","do_welcome","91","497521","0.0-55.0-0.0","""event"",""trial"",""time""
""fullscreenenter"",""0"",""2742""
","
","
","""event"",""trial"",""time""
""fullscreenenter"",""0"",""2742""
","
","null","","","","","","","","null","","","","","","","","","","","","","","","","",""
"","do_trial","92","503030","0.0-56.0-0.0","""event"",""trial"",""time""
""fullscreenenter"",""0"",""2742""
","
","
","""event"",""trial"",""time""
""fullscreenenter"",""0"",""2742""
","
","954.4000000059605","","","","","","","","50","1,0,0","0","countryside","0","probe-219","0.6","0.3","0.1","0","","","","","","","",""
"","html-keyboard-response","93","504038","0.0-56.0-1.0","""event"",""trial"",""time""
""fullscreenenter"",""0"",""2742""
","
","
","""event"",""trial"",""time""
""fullscreenenter"",""0"",""2742""
","
","null","<p></p>","null","","","","","","","","","","","","","","","","","","","","","","",""
"","do_trial","94","509467","0.0-57.0-0.0","""event"",""trial"",""time""
""fullscreenenter"",""0"",""2742""
","
","
","""event"",""trial"",""time""
""fullscreenenter"",""0"",""2742""
","
","876.0999999940395","","","","","","","","49","1,0,0","0","countryside","1","probe-230","0.6868457468379644","0.25924589039433754","0.17220038414380784","1","","","","","","","",""
"","html-keyboard-response","95","510475","0.0-57.0-1.0","""event"",""trial"",""time""
""fullscreenenter"",""0"",""2742""
","
","
","""event"",""trial"",""time""
""fullscreenenter"",""0"",""2742""
","
","null","<p></p>","null","","","","","","","","","","","","","","","","","","","","","","",""
"","do_trial","96","517417","0.0-58.0-0.0","""event"",""trial"",""time""
""fullscreenenter"",""0"",""2742""
","
","
","""event"",""trial"",""time""
""fullscreenenter"",""0"",""2742""
","
","2386.800000011921","","","","","","","","51","1,1,0","0","countryside","2","probe-84","0.7389701389095885","0.3706091315847388","0.20775626386398466","0","","","","","","","",""
"","html-keyboard-response","97","518424","0.0-58.0-1.0","""event"",""trial"",""time""
""fullscreenenter"",""0"",""2742""
","
","
","""event"",""trial"",""time""
""fullscreenenter"",""0"",""2742""
","
","null","<p></p>","null","","","","","","","","","","","","","","","","","","","","","","",""
"","do_trial","98","524165","0.0-59.0-0.0","""event"",""trial"",""time""
""fullscreenenter"",""0"",""2742""
","
","
","""event"",""trial"",""time""
""fullscreenenter"",""0"",""2742""
","
","1189.0999999940395","","","","","","","","49","1,1,0","0","countryside","3","probe-166","0.6756429924565598","0.3425517802728398","0.16024515375243348","1","","","","","","","",""
"","html-keyboard-response","99","525173","0.0-59.0-1.0","""event"",""trial"",""time""
""fullscreenenter"",""0"",""2742""
","
","
","""event"",""trial"",""time""
""fullscreenenter"",""0"",""2742""
","
","null","<p></p>","null","","","","","","","","","","","","","","","","","","","","","","",""
"","do_trial","100","531828","0.0-60.0-0.0","""event"",""trial"",""time""
""fullscreenenter"",""0"",""2742""
","
","
","""event"",""trial"",""time""
""fullscreenenter"",""0"",""2742""
","
","2101.9000000059605","","","","","","","","49","0,0,0","0","countryside","4","probe-184","0.7741886088571444","0.2645407781594771","0.20864110169876057","0","","","","","","","",""
"","html-keyboard-response","101","532832","0.0-60.0-1.0","""event"",""trial"",""time""
""fullscreenenter"",""0"",""2742""
","
","
","""event"",""trial"",""time""
""fullscreenenter"",""0"",""2742""
","
","null","<p></p>","null","","","","","","","","","","","","","","","","","","","","","","",""
"","do_trial","102","539103","0.0-61.0-0.0","""event"",""trial"",""time""
""fullscreenenter"",""0"",""2742""
","
","
","""event"",""trial"",""time""
""fullscreenenter"",""0"",""2742""
","
","1721.2000000178814","","","","","","","","49","1,0,1","0","countryside","5","probe-110","0.6887281726845974","0.3762662010664687","0.10193462931160273","1","","","","","","","",""
"","html-keyboard-response","103","540108","0.0-61.0-1.0","""event"",""trial"",""time""
""fullscreenenter"",""0"",""2742""
","
","
","""event"",""trial"",""time""
""fullscreenenter"",""0"",""2742""
","
","null","<p></p>","null","","","","","","","","","","","","","","","","","","","","","","",""
"","do_trial","104","546446","0.0-62.0-0.0","""event"",""trial"",""time""
""fullscreenenter"",""0"",""2742""
","
","
","""event"",""trial"",""time""
""fullscreenenter"",""0"",""2742""
","
","1783.800000011921","","","","","","","","49","0,0,1","0","countryside","6","probe-122","0.7031157612061784","0.29036619490877125","0.1658739593131922","0","","","","","","","",""
"","html-keyboard-response","105","547454","0.0-62.0-1.0","""event"",""trial"",""time""
""fullscreenenter"",""0"",""2742""
","
","
","""event"",""trial"",""time""
""fullscreenenter"",""0"",""2742""
","
","null","<p></p>","null","","","","","","","","","","","","","","","","","","","","","","",""
"","do_trial","106","552893","0.0-63.0-0.0","""event"",""trial"",""time""
""fullscreenenter"",""0"",""2742""
","
","
","""event"",""trial"",""time""
""fullscreenenter"",""0"",""2742""
","
","883.1000000238419","","","","","","","","50","0,0,0","0","countryside","7","probe-11","0.6618914401664947","0.23511488638284853","0.2705706607694296","0","","","","","","","",""
"","html-keyboard-response","107","553897","0.0-63.0-1.0","""event"",""trial"",""time""
""fullscreenenter"",""0"",""2742""
","
","
","""event"",""trial"",""time""
""fullscreenenter"",""0"",""2742""
","
","null","<p></p>","null","","","","","","","","","","","","","","","","","","","","","","",""
"","do_trial","108","559760","0.0-64.0-0.0","""event"",""trial"",""time""
""fullscreenenter"",""0"",""2742""
","
","
","""event"",""trial"",""time""
""fullscreenenter"",""0"",""2742""
","
","1307.800000011921","","","","","","","","51","1,0,0","0","countryside","8","probe-226","0.5926537649047239","0.21113289212049302","0.33698510552396244","0","","","","","","","",""
"","html-keyboard-response","109","560768","0.0-64.0-1.0","""event"",""trial"",""time""
""fullscreenenter"",""0"",""2742""
","
","
","""event"",""trial"",""time""
""fullscreenenter"",""0"",""2742""
","
","null","<p></p>","null","","","","","","","","","","","","","","","","","","","","","","",""
"","do_trial","110","565632","0.0-65.0-0.0","""event"",""trial"",""time""
""fullscreenenter"",""0"",""2742""
","
","
","""event"",""trial"",""time""
""fullscreenenter"",""0"",""2742""
","
","312.69999998807907","","","","","","","","49","1,0,0","0","countryside","9","probe-129","0.6652812530294547","0.31119130396016204","0.11791363461409674","1","","","","","","","",""
"","html-keyboard-response","111","566638","0.0-65.0-1.0","""event"",""trial"",""time""
""fullscreenenter"",""0"",""2742""
","
","
","""event"",""trial"",""time""
""fullscreenenter"",""0"",""2742""
","
","null","<p></p>","null","","","","","","","","","","","","","","","","","","","","","","",""
"","do_trial","112","571737","0.0-66.0-0.0","""event"",""trial"",""time""
""fullscreenenter"",""0"",""2742""
","
","
","""event"",""trial"",""time""
""fullscreenenter"",""0"",""2742""
","
","545.2000000178814","","","","","","","","49","1,1,0","0","countryside","10","probe-115","0.5759696017103176","0.4450424276280589","0.12439085137960199","1","","","","","","","",""
"","html-keyboard-response","113","572743","0.0-66.0-1.0","""event"",""trial"",""time""
""fullscreenenter"",""0"",""2742""
","
","
","""event"",""trial"",""time""
""fullscreenenter"",""0"",""2742""
","
","null","<p></p>","null","","","","","","","","","","","","","","","","","","","","","","",""
"","do_trial","114","577638","0.0-67.0-0.0","""event"",""trial"",""time""
""fullscreenenter"",""0"",""2742""
","
","
","""event"",""trial"",""time""
""fullscreenenter"",""0"",""2742""
","
","348.09999999403954","","","","","","","","49","1,0,0","0","countryside","11","probe-25","0.44045737826040465","0.40355185569246366","0.06143638175176031","1","","","","","","","",""
"","html-keyboard-response","115","578645","0.0-67.0-1.0","""event"",""trial"",""time""
""fullscreenenter"",""0"",""2742""
","
","
","""event"",""trial"",""time""
""fullscreenenter"",""0"",""2742""
","
","null","<p></p>","null","","","","","","","","","","","","","","","","","","","","","","",""
"","do_trial","116","583553","0.0-68.0-0.0","""event"",""trial"",""time""
""fullscreenenter"",""0"",""2742""
","
","
","""event"",""trial"",""time""
""fullscreenenter"",""0"",""2742""
","
","345.80000001192093","","","","","","","","49","1,1,0","0","countryside","12","probe-178","0.4403735001297115","0.3769251654879819","0.15103436035372678","1","","","","","","","",""
"","html-keyboard-response","117","584561","0.0-68.0-1.0","""event"",""trial"",""time""
""fullscreenenter"",""0"",""2742""
","
","
","""event"",""trial"",""time""
""fullscreenenter"",""0"",""2742""
","
","null","<p></p>","null","","","","","","","","","","","","","","","","","","","","","","",""
"","do_trial","118","589666","0.0-69.0-0.0","""event"",""trial"",""time""
""fullscreenenter"",""0"",""2742""
","
","
","""event"",""trial"",""time""
""fullscreenenter"",""0"",""2742""
","
","557","","","","","","","","49","1,0,0","0","countryside","13","probe-39","0.5063695330458271","0.45275971259103165","0.14705700165905872","1","","","","","","","",""
"","html-keyboard-response","119","590669","0.0-69.0-1.0","""event"",""trial"",""time""
""fullscreenenter"",""0"",""2742""
","
","
","""event"",""trial"",""time""
""fullscreenenter"",""0"",""2742""
","
","null","<p></p>","null","","","","","","","","","","","","","","","","","","","","","","",""
"","do_trial","120","595718","0.0-70.0-0.0","""event"",""trial"",""time""
""fullscreenenter"",""0"",""2742""
","
","
","""event"",""trial"",""time""
""fullscreenenter"",""0"",""2742""
","
","499.5","","","","","","","","49","0,0,0","0","countryside","14","probe-41","0.6373814467428275","0.340293700149581","0.13027230694504932","0","","","","","","","",""
"","html-keyboard-response","121","596721","0.0-70.0-1.0","""event"",""trial"",""time""
""fullscreenenter"",""0"",""2742""
","
","
","""event"",""trial"",""time""
""fullscreenenter"",""0"",""2742""
","
","null","<p></p>","null","","","","","","","","","","","","","","","","","","","","","","",""
"","do_trial","122","601736","0.0-71.0-0.0","""event"",""trial"",""time""
""fullscreenenter"",""0"",""2742""
","
","
","""event"",""trial"",""time""
""fullscreenenter"",""0"",""2742""
","
","460.89999997615814","","","","","","","","49","1,0,1","0","countryside","15","probe-161","0.6138544104858698","0.3107726332133776","0.15705945381069433","1","","","","","","","",""
"","html-keyboard-response","123","602744","0.0-71.0-1.0","""event"",""trial"",""time""
""fullscreenenter"",""0"",""2742""
","
","
","""event"",""trial"",""time""
""fullscreenenter"",""0"",""2742""
","
","null","<p></p>","null","","","","","","","","","","","","","","","","","","","","","","",""
"","do_trial","124","607744","0.0-72.0-0.0","""event"",""trial"",""time""
""fullscreenenter"",""0"",""2742""
","
","
","""event"",""trial"",""time""
""fullscreenenter"",""0"",""2742""
","
","447.2999999821186","","","","","","","","49","0,0,0","0","countryside","16","probe-164","0.5062207421802115","0.2973265597076451","0.358331466250095","0","","","","","","","",""
"","html-keyboard-response","125","608749","0.0-72.0-1.0","""event"",""trial"",""time""
""fullscreenenter"",""0"",""2742""
","
","
","""event"",""trial"",""time""
""fullscreenenter"",""0"",""2742""
","
","null","<p></p>","null","","","","","","","","","","","","","","","","","","","","","","",""
"","do_trial","126","614074","0.0-73.0-0.0","""event"",""trial"",""time""
""fullscreenenter"",""0"",""2742""
","
","
","""event"",""trial"",""time""
""fullscreenenter"",""0"",""2742""
","
","774.2999999821186","","","","","","","","49","1,0,0","0","countryside","17","probe-134","0.4783245460350928","0.27496953012469844","0.2894864364723462","1","","","","","","","",""
"","html-keyboard-response","127","615082","0.0-73.0-1.0","""event"",""trial"",""time""
""fullscreenenter"",""0"",""2742""
","
","
","""event"",""trial"",""time""
""fullscreenenter"",""0"",""2742""
","
","null","<p></p>","null","","","","","","","","","","","","","","","","","","","","","","",""
"","do_trial","128","620195","0.0-74.0-0.0","""event"",""trial"",""time""
""fullscreenenter"",""0"",""2742""
","
","
","""event"",""trial"",""time""
""fullscreenenter"",""0"",""2742""
","
","555.4000000059605","","","","","","","","49","1,0,0","0","countryside","18","probe-167","0.5267811068188858","0.34647367335694024","0.1575173611381404","1","","","","","","","",""
"","html-keyboard-response","129","621198","0.0-74.0-1.0","""event"",""trial"",""time""
""fullscreenenter"",""0"",""2742""
","
","
","""event"",""trial"",""time""
""fullscreenenter"",""0"",""2742""
","
","null","<p></p>","null","","","","","","","","","","","","","","","","","","","","","","",""
"","do_trial","130","626043","0.0-75.0-0.0","""event"",""trial"",""time""
""fullscreenenter"",""0"",""2742""
","
","
","""event"",""trial"",""time""
""fullscreenenter"",""0"",""2742""
","
","290.40000000596046","","","","","","","","49","0,0,0","0","countryside","19","probe-220","0.6340831237591731","0.30789058250730017","0.057330548717837965","0","","","","","","","",""
"","html-keyboard-response","131","627049","0.0-75.0-1.0","""event"",""trial"",""time""
""fullscreenenter"",""0"",""2742""
","
","
","""event"",""trial"",""time""
""fullscreenenter"",""0"",""2742""
","
","null","<p></p>","null","","","","","","","","","","","","","","","","","","","","","","",""
"","do_trial","132","632015","0.0-76.0-0.0","""event"",""trial"",""time""
""fullscreenenter"",""0"",""2742""
","
","
","""event"",""trial"",""time""
""fullscreenenter"",""0"",""2742""
","
","414","","","","","","","","49","1,0,0","0","countryside","20","probe-179","0.5988024268579158","0.2996914575303554","0.164610650947372","1","","","","","","","",""
"","html-keyboard-response","133","633020","0.0-76.0-1.0","""event"",""trial"",""time""
""fullscreenenter"",""0"",""2742""
","
","
","""event"",""trial"",""time""
""fullscreenenter"",""0"",""2742""
","
","null","<p></p>","null","","","","","","","","","","","","","","","","","","","","","","",""
"","do_trial","134","638095","0.0-77.0-0.0","""event"",""trial"",""time""
""fullscreenenter"",""0"",""2742""
","
","
","""event"",""trial"",""time""
""fullscreenenter"",""0"",""2742""
","
","520.0999999940395","","","","","","","","49","0,0,0","0","countryside","21","probe-58","0.565227903244441","0.30748977399374205","0.10688945520146355","0","","","","","","","",""
"","html-keyboard-response","135","639102","0.0-77.0-1.0","""event"",""trial"",""time""
""fullscreenenter"",""0"",""2742""
","
","
","""event"",""trial"",""time""
""fullscreenenter"",""0"",""2742""
","
","null","<p></p>","null","","","","","","","","","","","","","","","","","","","","","","",""
"","do_trial","136","643927","0.0-78.0-0.0","""event"",""trial"",""time""
""fullscreenenter"",""0"",""2742""
","
","
","""event"",""trial"",""time""
""fullscreenenter"",""0"",""2742""
","
","268.19999998807907","","","","","","","","49","0,0,1","0","countryside","22","probe-159","0.5673921989632839","0.2260814783239818","0.2565498089375861","0","","","","","","","",""
"","html-keyboard-response","137","644933","0.0-78.0-1.0","""event"",""trial"",""time""
""fullscreenenter"",""0"",""2742""
","
","
","""event"",""trial"",""time""
""fullscreenenter"",""0"",""2742""
","
","null","<p></p>","null","","","","","","","","","","","","","","","","","","","","","","",""
"","do_trial","138","649762","0.0-79.0-0.0","""event"",""trial"",""time""
""fullscreenenter"",""0"",""2742""
","
","
","""event"",""trial"",""time""
""fullscreenenter"",""0"",""2742""
","
","277.2000000178814","","","","","","","","50","0,0,0","0","countryside","23","probe-165","0.5823021522081593","0.2517587052343572","0.18838509772277737","0","","","","","","","",""
"","html-keyboard-response","139","650765","0.0-79.0-1.0","""event"",""trial"",""time""
""fullscreenenter"",""0"",""2742""
","
","
","""event"",""trial"",""time""
""fullscreenenter"",""0"",""2742""
","
","null","<p></p>","null","","","","","","","","","","","","","","","","","","","","","","",""
"","do_trial","140","656601","0.0-80.0-0.0","""event"",""trial"",""time""
""fullscreenenter"",""0"",""2742""
","
","
","""event"",""trial"",""time""
""fullscreenenter"",""0"",""2742""
","
","1282.5","","","","","","","","50","1,1,0","0","countryside","24","probe-67","0.5945057462907835","0.4057275491603737","0.24208259966839268","1","","","","","","","",""
"","html-keyboard-response","141","657610","0.0-80.0-1.0","""event"",""trial"",""time""
""fullscreenenter"",""0"",""2742""
","
","
","""event"",""trial"",""time""
""fullscreenenter"",""0"",""2742""
","
","null","<p></p>","null","","","","","","","","","","","","","","","","","","","","","","",""
"","do_trial","142","662573","0.0-81.0-0.0","""event"",""trial"",""time""
""fullscreenenter"",""0"",""2742""
","
","
","""event"",""trial"",""time""
""fullscreenenter"",""0"",""2742""
","
","407.40000000596046","","","","","","","","50","1,0,0","0","countryside","25","probe-86","0.6003048778179628","0.3604342371046665","0.21401451069727354","0","","","","","","","",""
"","html-keyboard-response","143","663576","0.0-81.0-1.0","""event"",""trial"",""time""
""fullscreenenter"",""0"",""2742""
","
","
","""event"",""trial"",""time""
""fullscreenenter"",""0"",""2742""
","
","null","<p></p>","null","","","","","","","","","","","","","","","","","","","","","","",""
"","do_trial","144","668465","0.0-82.0-0.0","""event"",""trial"",""time""
""fullscreenenter"",""0"",""2742""
","
","
","""event"",""trial"",""time""
""fullscreenenter"",""0"",""2742""
","
","330.7999999821186","","","","","","","","49","0,0,0","0","countryside","26","probe-222","0.6564580465364022","0.2285622045426822","0.27133524473208365","0","","","","","","","",""
"","html-keyboard-response","145","669472","0.0-82.0-1.0","""event"",""trial"",""time""
""fullscreenenter"",""0"",""2742""
","
","
","""event"",""trial"",""time""
""fullscreenenter"",""0"",""2742""
","
","null","<p></p>","null","","","","","","","","","","","","","","","","","","","","","","",""
"","do_trial","146","674428","0.0-83.0-0.0","""event"",""trial"",""time""
""fullscreenenter"",""0"",""2742""
","
","
","""event"",""trial"",""time""
""fullscreenenter"",""0"",""2742""
","
","396.10000002384186","","","","","","","","49","1,0,0","0","countryside","27","probe-99","0.665483693345634","0.36552108304050657","0.19115476751765137","1","","","","","","","",""
"","html-keyboard-response","147","675432","0.0-83.0-1.0","""event"",""trial"",""time""
""fullscreenenter"",""0"",""2742""
","
","
","""event"",""trial"",""time""
""fullscreenenter"",""0"",""2742""
","
","null","<p></p>","null","","","","","","","","","","","","","","","","","","","","","","",""
"","do_trial","148","680434","0.0-84.0-0.0","""event"",""trial"",""time""
""fullscreenenter"",""0"",""2742""
","
","
","""event"",""trial"",""time""
""fullscreenenter"",""0"",""2742""
","
","448","","","","","","","","49","1,1,0","0","countryside","28","probe-118","0.6336508412796651","0.44292082867636157","0.15458068774067454","1","","","","","","","",""
"","html-keyboard-response","149","681441","0.0-84.0-1.0","""event"",""trial"",""time""
""fullscreenenter"",""0"",""2742""
","
","
","""event"",""trial"",""time""
""fullscreenenter"",""0"",""2742""
","
","null","<p></p>","null","","","","","","","","","","","","","","","","","","","","","","",""
"","do_trial","150","686624","0.0-85.0-0.0","""event"",""trial"",""time""
""fullscreenenter"",""0"",""2742""
","
","
","""event"",""trial"",""time""
""fullscreenenter"",""0"",""2742""
","
","639.3000000119209","","","","","","","","49","1,0,0","0","countryside","29","probe-46","0.6411032904764871","0.3984152139659068","0.19436251756931724","1","","","","","","","",""
"","html-keyboard-response","151","687627","0.0-85.0-1.0","""event"",""trial"",""time""
""fullscreenenter"",""0"",""2742""
","
","
","""event"",""trial"",""time""
""fullscreenenter"",""0"",""2742""
","
","null","<p></p>","null","","","","","","","","","","","","","","","","","","","","","","",""
"","do_bye","152","689140","0.0-86.0-0.0","""event"",""trial"",""time""
""fullscreenenter"",""0"",""2742""
","
","
","""event"",""trial"",""time""
""fullscreenenter"",""0"",""2742""
","
","null","","","","","","","","null","","","","","","","","","","","","","","","","",""
"","break","153","752984","0.0-86.0-1.0","""event"",""trial"",""time""
""fullscreenenter"",""0"",""2742""
","
","
","""event"",""trial"",""time""
""fullscreenenter"",""0"",""2742""
","
","63843.59999999404","<div class='center'><p>Time to take a quick break! You have 2 minutes to rest, but you can move on sooner if you'd like.</p><p> Press the <b>space bar</b> to continue.</p></div>","32","","","","","","","","","","","","","","","","","","","","","","",""
"","do_travel","154","761992","0.0-87.0-0.0","""event"",""trial"",""time""
""fullscreenenter"",""0"",""2742""
","
","
","""event"",""trial"",""time""
""fullscreenenter"",""0"",""2742""
","
","null","","","","","","","","null","","","","","","","","","","","","","","","","",""
"","do_welcome","155","766000","0.0-87.0-1.0","""event"",""trial"",""time""
""fullscreenenter"",""0"",""2742""
","
","
","""event"",""trial"",""time""
""fullscreenenter"",""0"",""2742""
","
","null","","","","","","","","null","","","","","","","","","","","","","","","","",""
"","do_trial","156","772014","0.0-88.0-0.0","""event"",""trial"",""time""
""fullscreenenter"",""0"",""2742""
","
","
","""event"",""trial"",""time""
""fullscreenenter"",""0"",""2742""
","
","1456.7000000178814","","","","","","","","51","1,1,0","1","forest","30","probe-138","1","0.2950977495394031","0.16596080796656285","0","","","","","","","",""
"","html-keyboard-response","157","773017","0.0-88.0-1.0","""event"",""trial"",""time""
""fullscreenenter"",""0"",""2742""
","
","
","""event"",""trial"",""time""
""fullscreenenter"",""0"",""2742""
","
","null","<p></p>","null","","","","","","","","","","","","","","","","","","","","","","",""
"","do_trial","158","778830","0.0-89.0-0.0","""event"",""trial"",""time""
""fullscreenenter"",""0"",""2742""
","
","
","""event"",""trial"",""time""
""fullscreenenter"",""0"",""2742""
","
","1257.699999988079","","","","","","","","51","1,1,0","1","forest","31","probe-97","1","0.3870815813504871","0.16195487046666565","0","","","","","","","",""
"","html-keyboard-response","159","779838","0.0-89.0-1.0","""event"",""trial"",""time""
""fullscreenenter"",""0"",""2742""
","
","
","""event"",""trial"",""time""
""fullscreenenter"",""0"",""2742""
","
","null","<p></p>","null","","","","","","","","","","","","","","","","","","","","","","",""
"","do_trial","160","784677","0.0-90.0-0.0","""event"",""trial"",""time""
""fullscreenenter"",""0"",""2742""
","
","
","""event"",""trial"",""time""
""fullscreenenter"",""0"",""2742""
","
","290.40000000596046","","","","","","","","50","1,1,0","1","forest","32","probe-172","1","0.4617130245322065","0.19170038304480436","1","","","","","","","",""
"","html-keyboard-response","161","785685","0.0-90.0-1.0","""event"",""trial"",""time""
""fullscreenenter"",""0"",""2742""
","
","
","""event"",""trial"",""time""
""fullscreenenter"",""0"",""2742""
","
","null","<p></p>","null","","","","","","","","","","","","","","","","","","","","","","",""
"","do_trial","162","790240","0.0-91.0-0.0","""event"",""trial"",""time""
""fullscreenenter"",""0"",""2742""
","
","
","""event"",""trial"",""time""
""fullscreenenter"",""0"",""2742""
","
","0.09999999403953552","","","","","","","","50","1,1,0","1","forest","33","probe-55","0.8625792606437952","0.5104060203026656","0.11614372151909909","1","","","","","","","",""
"","html-keyboard-response","163","791248","0.0-91.0-1.0","""event"",""trial"",""time""
""fullscreenenter"",""0"",""2742""
","
","
","""event"",""trial"",""time""
""fullscreenenter"",""0"",""2742""
","
","null","<p></p>","null","","","","","","","","","","","","","","","","","","","","","","",""
"","do_trial","164","796121","0.0-92.0-0.0","""event"",""trial"",""time""
""fullscreenenter"",""0"",""2742""
","
","
","""event"",""trial"",""time""
""fullscreenenter"",""0"",""2742""
","
","321.2000000178814","","","","","","","","50","1,1,0","1","forest","34","probe-228","0.7388458234129577","0.4664943257956437","0.056243667934224445","1","","","","","","","",""
"","html-keyboard-response","165","797129","0.0-92.0-1.0","""event"",""trial"",""time""
""fullscreenenter"",""0"",""2742""
","
","
","""event"",""trial"",""time""
""fullscreenenter"",""0"",""2742""
","
","null","<p></p>","null","","","","","","","","","","","","","","","","","","","","","","",""
"","do_trial","166","801924","0.0-93.0-0.0","""event"",""trial"",""time""
""fullscreenenter"",""0"",""2742""
","
","
","""event"",""trial"",""time""
""fullscreenenter"",""0"",""2742""
","
","243.19999998807907","","","","","","","","50","1,0,0","1","forest","35","probe-59","0.7141745828870054","0.19479951267135412","0.09690748453032923","0","","","","","","","",""
"","html-keyboard-response","167","802928","0.0-93.0-1.0","""event"",""trial"",""time""
""fullscreenenter"",""0"",""2742""
","
","
","""event"",""trial"",""time""
""fullscreenenter"",""0"",""2742""
","
","null","<p></p>","null","","","","","","","","","","","","","","","","","","","","","","",""
"","do_trial","168","807538","0.0-94.0-0.0","""event"",""trial"",""time""
""fullscreenenter"",""0"",""2742""
","
","
","""event"",""trial"",""time""
""fullscreenenter"",""0"",""2742""
","
","64.90000000596046","","","","","","","","50","0,0,0","1","forest","36","probe-198","0.48935360518649035","0.22224911962715793","0.07825255144005185","0","","","","","","","",""
"","html-keyboard-response","169","808543","0.0-94.0-1.0","""event"",""trial"",""time""
""fullscreenenter"",""0"",""2742""
","
","
","""event"",""trial"",""time""
""fullscreenenter"",""0"",""2742""
","
","null","<p></p>","null","","","","","","","","","","","","","","","","","","","","","","",""
"","do_trial","170","814445","0.0-95.0-0.0","""event"",""trial"",""time""
""fullscreenenter"",""0"",""2742""
","
","
","""event"",""trial"",""time""
""fullscreenenter"",""0"",""2742""
","
","1342","","","","","","","","50","1,1,0","1","forest","37","probe-16","0.6614035714916715","0.24796025775894698","0.12407661704493568","1","","","","","","","",""
"","html-keyboard-response","171","815452","0.0-95.0-1.0","""event"",""trial"",""time""
""fullscreenenter"",""0"",""2742""
","
","
","""event"",""trial"",""time""
""fullscreenenter"",""0"",""2742""
","
","null","<p></p>","null","","","","","","","","","","","","","","","","","","","","","","",""
"","do_trial","172","820005","0.0-96.0-0.0","""event"",""trial"",""time""
""fullscreenenter"",""0"",""2742""
","
","
","""event"",""trial"",""time""
""fullscreenenter"",""0"",""2742""
","
","0.20000001788139343","","","","","","","","50","1,0,0","1","forest","38","probe-196","0.7323632520672837","0.22985980813360324","0.05789969871199448","0","","","","","","","",""
"","html-keyboard-response","173","821012","0.0-96.0-1.0","""event"",""trial"",""time""
""fullscreenenter"",""0"",""2742""
","
","
","""event"",""trial"",""time""
""fullscreenenter"",""0"",""2742""
","
","null","<p></p>","null","","","","","","","","","","","","","","","","","","","","","","",""
"","do_trial","174","825904","0.0-97.0-0.0","""event"",""trial"",""time""
""fullscreenenter"",""0"",""2742""
","
","
","""event"",""trial"",""time""
""fullscreenenter"",""0"",""2742""
","
","341.90000000596046","","","","","","","","50","1,0,0","1","forest","39","probe-150","0.6079908830258054","0.2800396694234838","0.11298627749435658","0","","","","","","","",""
"","html-keyboard-response","175","826912","0.0-97.0-1.0","""event"",""trial"",""time""
""fullscreenenter"",""0"",""2742""
","
","
","""event"",""trial"",""time""
""fullscreenenter"",""0"",""2742""
","
","null","<p></p>","null","","","","","","","","","","","","","","","","","","","","","","",""
"","do_trial","176","831489","0.0-98.0-0.0","""event"",""trial"",""time""
""fullscreenenter"",""0"",""2742""
","
","
","""event"",""trial"",""time""
""fullscreenenter"",""0"",""2742""
","
","27.599999994039536","","","","","","","","49","1,0,0","1","forest","40","probe-206","0.607814410972805","0.2391212740735129","0.07456933552950973","1","","","","","","","",""
"","html-keyboard-response","177","832494","0.0-98.0-1.0","""event"",""trial"",""time""
""fullscreenenter"",""0"",""2742""
","
","
","""event"",""trial"",""time""
""fullscreenenter"",""0"",""2742""
","
","null","<p></p>","null","","","","","","","","","","","","","","","","","","","","","","",""
"","do_trial","178","837294","0.0-99.0-0.0","""event"",""trial"",""time""
""fullscreenenter"",""0"",""2742""
","
","
","""event"",""trial"",""time""
""fullscreenenter"",""0"",""2742""
","
","249.30000001192093","","","","","","","","49","1,0,0","1","forest","41","probe-190","0.6559332593527052","0.30733511694341886","0.12182242492251606","1","","","","","","","",""
"","html-keyboard-response","179","838302","0.0-99.0-1.0","""event"",""trial"",""time""
""fullscreenenter"",""0"",""2742""
","
","
","""event"",""trial"",""time""
""fullscreenenter"",""0"",""2742""
","
","null","<p></p>","null","","","","","","","","","","","","","","","","","","","","","","",""
"","do_trial","180","843219","0.0-100.0-0.0","""event"",""trial"",""time""
""fullscreenenter"",""0"",""2742""
","
","
","""event"",""trial"",""time""
""fullscreenenter"",""0"",""2742""
","
","361.19999998807907","","","","","","","","49","1,0,0","1","forest","42","probe-31","0.34687153501733337","0.19396050303125378","0.2772484622827511","1","","","","","","","",""
"","html-keyboard-response","181","844222","0.0-100.0-1.0","""event"",""trial"",""time""
""fullscreenenter"",""0"",""2742""
","
","
","""event"",""trial"",""time""
""fullscreenenter"",""0"",""2742""
","
","null","<p></p>","null","","","","","","","","","","","","","","","","","","","","","","",""
"","do_trial","182","850014","0.0-101.0-0.0","""event"",""trial"",""time""
""fullscreenenter"",""0"",""2742""
","
","
","""event"",""trial"",""time""
""fullscreenenter"",""0"",""2742""
","
","1235.8999999761581","","","","","","","","49","0,0,1","1","forest","43","probe-170","0.2809216325976006","0.15104189617018723","0.2910808327388658","0","","","","","","","",""
"","html-keyboard-response","183","851019","0.0-101.0-1.0","""event"",""trial"",""time""
""fullscreenenter"",""0"",""2742""
","
","
","""event"",""trial"",""time""
""fullscreenenter"",""0"",""2742""
","
","null","<p></p>","null","","","","","","","","","","","","","","","","","","","","","","",""
"","do_trial","184","855803","0.0-102.0-0.0","""event"",""trial"",""time""
""fullscreenenter"",""0"",""2742""
","
","
","""event"",""trial"",""time""
""fullscreenenter"",""0"",""2742""
","
","233.60000002384186","","","","","","","","49","0,0,1","1","forest","44","probe-71","0.20701360062457635","0.1275671726226699","0.5000257051698149","0","","","","","","","",""
"","html-keyboard-response","185","856808","0.0-102.0-1.0","""event"",""trial"",""time""
""fullscreenenter"",""0"",""2742""
","
","
","""event"",""trial"",""time""
""fullscreenenter"",""0"",""2742""
","
","null","<p></p>","null","","","","","","","","","","","","","","","","","","","","","","",""
"","do_trial","186","861784","0.0-103.0-0.0","""event"",""trial"",""time""
""fullscreenenter"",""0"",""2742""
","
","
","""event"",""trial"",""time""
""fullscreenenter"",""0"",""2742""
","
","414.40000000596046","","","","","","","","50","1,0,1","1","forest","45","probe-177","0.33264991195745924","0.09317604090542687","0.6294964594475982","0","","","","","","","",""
"","html-keyboard-response","187","862789","0.0-103.0-1.0","""event"",""trial"",""time""
""fullscreenenter"",""0"",""2742""
","
","
","""event"",""trial"",""time""
""fullscreenenter"",""0"",""2742""
","
","null","<p></p>","null","","","","","","","","","","","","","","","","","","","","","","",""
"","do_trial","188","868013","0.0-104.0-0.0","""event"",""trial"",""time""
""fullscreenenter"",""0"",""2742""
","
","
","""event"",""trial"",""time""
""fullscreenenter"",""0"",""2742""
","
","668.8000000119209","","","","","","","","49","0,0,1","1","forest","46","probe-163","0.19746132632202226","0.17687739912945163","0.6444948144857329","0","","","","","","","",""
"","html-keyboard-response","189","869017","0.0-104.0-1.0","""event"",""trial"",""time""
""fullscreenenter"",""0"",""2742""
","
","
","""event"",""trial"",""time""
""fullscreenenter"",""0"",""2742""
","
","null","<p></p>","null","","","","","","","","","","","","","","","","","","","","","","",""
"","do_trial","190","873915","0.0-105.0-0.0","""event"",""trial"",""time""
""fullscreenenter"",""0"",""2742""
","
","
","""event"",""trial"",""time""
""fullscreenenter"",""0"",""2742""
","
","342.80000001192093","","","","","","","","49","0,0,1","1","forest","47","probe-141","0.13568015453692642","0.15933161032557805","0.676014999878852","0","","","","","","","",""
"","html-keyboard-response","191","874922","0.0-105.0-1.0","""event"",""trial"",""time""
""fullscreenenter"",""0"",""2742""
","
","
","""event"",""trial"",""time""
""fullscreenenter"",""0"",""2742""
","
","null","<p></p>","null","","","","","","","","","","","","","","","","","","","","","","",""
"","do_trial","192","880267","0.0-106.0-0.0","""event"",""trial"",""time""
""fullscreenenter"",""0"",""2742""
","
","
","""event"",""trial"",""time""
""fullscreenenter"",""0"",""2742""
","
","788.1000000238419","","","","","","","","49","0,0,0","1","forest","48","probe-125","0.21005198448340812","0.09691979472750978","0.7013609160881267","0","","","","","","","",""
"","html-keyboard-response","193","881274","0.0-106.0-1.0","""event"",""trial"",""time""
""fullscreenenter"",""0"",""2742""
","
","
","""event"",""trial"",""time""
""fullscreenenter"",""0"",""2742""
","
","null","<p></p>","null","","","","","","","","","","","","","","","","","","","","","","",""
"","do_trial","194","886635","0.0-107.0-0.0","""event"",""trial"",""time""
""fullscreenenter"",""0"",""2742""
","
","
","""event"",""trial"",""time""
""fullscreenenter"",""0"",""2742""
","
","813.6000000238419","","","","","","","","51","0,0,1","1","forest","49","probe-213","0.28071123720657626","0.17255893817668536","0.7420760370269395","1","","","","","","","",""
"","html-keyboard-response","195","887642","0.0-107.0-1.0","""event"",""trial"",""time""
""fullscreenenter"",""0"",""2742""
","
","
","""event"",""trial"",""time""
""fullscreenenter"",""0"",""2742""
","
","null","<p></p>","null","","","","","","","","","","","","","","","","","","","","","","",""
"","do_trial","196","892865","0.0-108.0-0.0","""event"",""trial"",""time""
""fullscreenenter"",""0"",""2742""
","
","
","""event"",""trial"",""time""
""fullscreenenter"",""0"",""2742""
","
","667.0999999940395","","","","","","","","51","0,1,1","1","forest","50","probe-132","0.2540978589679616","0.15864706961054498","0.6943016152877085","1","","","","","","","",""
"","html-keyboard-response","197","893868","0.0-108.0-1.0","""event"",""trial"",""time""
""fullscreenenter"",""0"",""2742""
","
","
","""event"",""trial"",""time""
""fullscreenenter"",""0"",""2742""
","
","null","<p></p>","null","","","","","","","","","","","","","","","","","","","","","","",""
"","do_trial","198","899245","0.0-109.0-0.0","""event"",""trial"",""time""
""fullscreenenter"",""0"",""2742""
","
","
","""event"",""trial"",""time""
""fullscreenenter"",""0"",""2742""
","
","823.5","","","","","","","","51","0,0,1","1","forest","51","probe-101","0.3160598155066898","0.22205353657930635","0.6821813477449193","1","","","","","","","",""
"","html-keyboard-response","199","900250","0.0-109.0-1.0","""event"",""trial"",""time""
""fullscreenenter"",""0"",""2742""
","
","
","""event"",""trial"",""time""
""fullscreenenter"",""0"",""2742""
","
","null","<p></p>","null","","","","","","","","","","","","","","","","","","","","","","",""
"","do_trial","200","905329","0.0-110.0-0.0","""event"",""trial"",""time""
""fullscreenenter"",""0"",""2742""
","
","
","""event"",""trial"",""time""
""fullscreenenter"",""0"",""2742""
","
","521.4000000059605","","","","","","","","51","0,0,1","1","forest","52","probe-49","0.3387609506548237","0.1327918773758681","0.543566994658257","1","","","","","","","",""
"","html-keyboard-response","201","906335","0.0-110.0-1.0","""event"",""trial"",""time""
""fullscreenenter"",""0"",""2742""
","
","
","""event"",""trial"",""time""
""fullscreenenter"",""0"",""2742""
","
","null","<p></p>","null","","","","","","","","","","","","","","","","","","","","","","",""
"","do_trial","202","911309","0.0-111.0-0.0","""event"",""trial"",""time""
""fullscreenenter"",""0"",""2742""
","
","
","""event"",""trial"",""time""
""fullscreenenter"",""0"",""2742""
","
","419.5","","","","","","","","51","1,0,0","1","forest","53","probe-85","0.42163841718545025","0.08541311045353504","0.5951170171518512","0","","","","","","","",""
"","html-keyboard-response","203","912314","0.0-111.0-1.0","""event"",""trial"",""time""
""fullscreenenter"",""0"",""2742""
","
","
","""event"",""trial"",""time""
""fullscreenenter"",""0"",""2742""
","
","null","<p></p>","null","","","","","","","","","","","","","","","","","","","","","","",""
"","do_trial","204","916868","0.0-112.0-0.0","""event"",""trial"",""time""
""fullscreenenter"",""0"",""2742""
","
","
","""event"",""trial"",""time""
""fullscreenenter"",""0"",""2742""
","
","0.9000000059604645","","","","","","","","50","1,1,1","1","forest","54","probe-76","0.3605138114660845","0.15154474091739642","0.5910538059750688","1","","","","","","","",""
"","html-keyboard-response","205","917871","0.0-112.0-1.0","""event"",""trial"",""time""
""fullscreenenter"",""0"",""2742""
","
","
","""event"",""trial"",""time""
""fullscreenenter"",""0"",""2742""
","
","null","<p></p>","null","","","","","","","","","","","","","","","","","","","","","","",""
"","do_trial","206","922832","0.0-113.0-0.0","""event"",""trial"",""time""
""fullscreenenter"",""0"",""2742""
","
","
","""event"",""trial"",""time""
""fullscreenenter"",""0"",""2742""
","
","404.90000000596046","","","","","","","","51","0,0,0","1","forest","55","probe-139","0.4406507843806881","0.21021093317081024","0.5369063681333588","0","","","","","","","",""
"","html-keyboard-response","207","923839","0.0-113.0-1.0","""event"",""trial"",""time""
""fullscreenenter"",""0"",""2742""
","
","
","""event"",""trial"",""time""
""fullscreenenter"",""0"",""2742""
","
","null","<p></p>","null","","","","","","","","","","","","","","","","","","","","","","",""
"","do_trial","208","928839","0.0-114.0-0.0","""event"",""trial"",""time""
""fullscreenenter"",""0"",""2742""
","
","
","""event"",""trial"",""time""
""fullscreenenter"",""0"",""2742""
","
","448.09999999403954","","","","","","","","49","0,1,1","1","forest","56","probe-82","0.30684024641308905","0.10692758216091239","0.5741964240546203","0","","","","","","","",""
"","html-keyboard-response","209","929844","0.0-114.0-1.0","""event"",""trial"",""time""
""fullscreenenter"",""0"",""2742""
","
","
","""event"",""trial"",""time""
""fullscreenenter"",""0"",""2742""
","
","null","<p></p>","null","","","","","","","","","","","","","","","","","","","","","","",""
"","do_trial","210","934611","0.0-115.0-0.0","""event"",""trial"",""time""
""fullscreenenter"",""0"",""2742""
","
","
","""event"",""trial"",""time""
""fullscreenenter"",""0"",""2742""
","
","208.40000000596046","","","","","","","","51","0,0,0","1","forest","57","probe-19","0.20618455467596492","0.05532335660638004","0.5294525307696573","0","","","","","","","",""
"","html-keyboard-response","211","935618","0.0-115.0-1.0","""event"",""trial"",""time""
""fullscreenenter"",""0"",""2742""
","
","
","""event"",""trial"",""time""
""fullscreenenter"",""0"",""2742""
","
","null","<p></p>","null","","","","","","","","","","","","","","","","","","","","","","",""
"","do_trial","212","941227","0.0-116.0-0.0","""event"",""trial"",""time""
""fullscreenenter"",""0"",""2742""
","
","
","""event"",""trial"",""time""
""fullscreenenter"",""0"",""2742""
","
","1056.300000011921","","","","","","","","51","0,0,1","1","forest","58","probe-93","0.1588345997598388","0.1183989094488306","0.5836827892128347","1","","","","","","","",""
"","html-keyboard-response","213","942233","0.0-116.0-1.0","""event"",""trial"",""time""
""fullscreenenter"",""0"",""2742""
","
","
","""event"",""trial"",""time""
""fullscreenenter"",""0"",""2742""
","
","null","<p></p>","null","","","","","","","","","","","","","","","","","","","","","","",""
"","do_trial","214","946838","0.0-117.0-0.0","""event"",""trial"",""time""
""fullscreenenter"",""0"",""2742""
","
","
","""event"",""trial"",""time""
""fullscreenenter"",""0"",""2742""
","
","47.599999994039536","","","","","","","","51","0,0,0","1","forest","59","probe-207","0.2578379332213277","0.05842408715895597","0.5181605579296665","0","","","","","","","",""
"","html-keyboard-response","215","947843","0.0-117.0-1.0","""event"",""trial"",""time""
""fullscreenenter"",""0"",""2742""
","
","
","""event"",""trial"",""time""
""fullscreenenter"",""0"",""2742""
","
","null","<p></p>","null","","","","","","","","","","","","","","","","","","","","","","",""
"","do_trial","216","953207","0.0-118.0-0.0","""event"",""trial"",""time""
""fullscreenenter"",""0"",""2742""
","
","
","""event"",""trial"",""time""
""fullscreenenter"",""0"",""2742""
","
","813.5","","","","","","","","51","0,0,0","1","forest","60","probe-215","0.19336537849345029","0.08587378618491728","0.48006679453261786","0","","","","","","","",""
"","html-keyboard-response","217","954215","0.0-118.0-1.0","""event"",""trial"",""time""
""fullscreenenter"",""0"",""2742""
","
","
","""event"",""trial"",""time""
""fullscreenenter"",""0"",""2742""
","
","null","<p></p>","null","","","","","","","","","","","","","","","","","","","","","","",""
"","do_trial","218","959055","0.0-119.0-0.0","""event"",""trial"",""time""
""fullscreenenter"",""0"",""2742""
","
","
","""event"",""trial"",""time""
""fullscreenenter"",""0"",""2742""
","
","290.7999999821186","","","","","","","","51","0,0,0","1","forest","61","probe-27","0.16107201202220803","0.18618567179834844","0.5115555503265511","0","","","","","","","",""
"","html-keyboard-response","219","960063","0.0-119.0-1.0","""event"",""trial"",""time""
""fullscreenenter"",""0"",""2742""
","
","
","""event"",""trial"",""time""
""fullscreenenter"",""0"",""2742""
","
","null","<p></p>","null","","","","","","","","","","","","","","","","","","","","","","",""
"","do_trial","220","965138","0.0-120.0-0.0","""event"",""trial"",""time""
""fullscreenenter"",""0"",""2742""
","
","
","""event"",""trial"",""time""
""fullscreenenter"",""0"",""2742""
","
","524.4000000059605","","","","","","","","51","0,0,1","1","forest","62","probe-43","0.18510334748875057","0.21120224359954815","0.39741063095470675","1","","","","","","","",""
"","html-keyboard-response","221","966143","0.0-120.0-1.0","""event"",""trial"",""time""
""fullscreenenter"",""0"",""2742""
","
","
","""event"",""trial"",""time""
""fullscreenenter"",""0"",""2742""
","
","null","<p></p>","null","","","","","","","","","","","","","","","","","","","","","","",""
"","do_trial","222","970900","0.0-121.0-0.0","""event"",""trial"",""time""
""fullscreenenter"",""0"",""2742""
","
","
","""event"",""trial"",""time""
""fullscreenenter"",""0"",""2742""
","
","209.10000002384186","","","","","","","","51","0,0,1","1","forest","63","probe-193","0.21385484684425626","0.36288296072137727","0.5248081194883314","1","","","","","","","",""
"","html-keyboard-response","223","971907","0.0-121.0-1.0","""event"",""trial"",""time""
""fullscreenenter"",""0"",""2742""
","
","
","""event"",""trial"",""time""
""fullscreenenter"",""0"",""2742""
","
","null","<p></p>","null","","","","","","","","","","","","","","","","","","","","","","",""
"","do_trial","224","976814","0.0-122.0-0.0","""event"",""trial"",""time""
""fullscreenenter"",""0"",""2742""
","
","
","""event"",""trial"",""time""
""fullscreenenter"",""0"",""2742""
","
","357.40000000596046","","","","","","","","51","0,0,1","1","forest","64","probe-185","0.3428173348788825","0.30399333436642495","0.5677563579322994","1","","","","","","","",""
"","html-keyboard-response","225","977819","0.0-122.0-1.0","""event"",""trial"",""time""
""fullscreenenter"",""0"",""2742""
","
","
","""event"",""trial"",""time""
""fullscreenenter"",""0"",""2742""
","
","null","<p></p>","null","","","","","","","","","","","","","","","","","","","","","","",""
"","do_trial","226","982919","0.0-123.0-0.0","""event"",""trial"",""time""
""fullscreenenter"",""0"",""2742""
","
","
","""event"",""trial"",""time""
""fullscreenenter"",""0"",""2742""
","
","545.8000000119209","","","","","","","","51","0,0,1","1","forest","65","probe-133","0.2555413255368811","0.24342137414540518","0.5786772022199796","1","","","","","","","",""
"","html-keyboard-response","227","983926","0.0-123.0-1.0","""event"",""trial"",""time""
""fullscreenenter"",""0"",""2742""
","
","
","""event"",""trial"",""time""
""fullscreenenter"",""0"",""2742""
","
","null","<p></p>","null","","","","","","","","","","","","","","","","","","","","","","",""
"","do_trial","228","988909","0.0-124.0-0.0","""event"",""trial"",""time""
""fullscreenenter"",""0"",""2742""
","
","
","""event"",""trial"",""time""
""fullscreenenter"",""0"",""2742""
","
","426.5","","","","","","","","51","1,0,1","1","forest","66","probe-191","0.2191283025051678","0.30982578151574025","0.5314804565638892","1","","","","","","","",""
"","html-keyboard-response","229","989915","0.0-124.0-1.0","""event"",""trial"",""time""
""fullscreenenter"",""0"",""2742""
","
","
","""event"",""trial"",""time""
""fullscreenenter"",""0"",""2742""
","
","null","<p></p>","null","","","","","","","","","","","","","","","","","","","","","","",""
"","do_trial","230","994604","0.0-125.0-0.0","""event"",""trial"",""time""
""fullscreenenter"",""0"",""2742""
","
","
","""event"",""trial"",""time""
""fullscreenenter"",""0"",""2742""
","
","138.19999998807907","","","","","","","","51","0,0,1","1","forest","67","probe-72","0.30840296551286417","0.17014898551161506","0.5140972983230461","1","","","","","","","",""
"","html-keyboard-response","231","995612","0.0-125.0-1.0","""event"",""trial"",""time""
""fullscreenenter"",""0"",""2742""
","
","
","""event"",""trial"",""time""
""fullscreenenter"",""0"",""2742""
","
","null","<p></p>","null","","","","","","","","","","","","","","","","","","","","","","",""
"","do_trial","232","1000406","0.0-126.0-0.0","""event"",""trial"",""time""
""fullscreenenter"",""0"",""2742""
","
","
","""event"",""trial"",""time""
""fullscreenenter"",""0"",""2742""
","
","243.69999998807907","","","","","","","","51","0,0,1","1","forest","68","probe-45","0.300516381573329","0.16631560188414404","0.6918568943927802","1","","","","","","","",""
"","html-keyboard-response","233","1001411","0.0-126.0-1.0","""event"",""trial"",""time""
""fullscreenenter"",""0"",""2742""
","
","
","""event"",""trial"",""time""
""fullscreenenter"",""0"",""2742""
","
","null","<p></p>","null","","","","","","","","","","","","","","","","","","","","","","",""
"","do_trial","234","1006223","0.0-127.0-0.0","""event"",""trial"",""time""
""fullscreenenter"",""0"",""2742""
","
","
","""event"",""trial"",""time""
""fullscreenenter"",""0"",""2742""
","
","257.10000002384186","","","","","","","","51","1,1,0","1","forest","69","probe-211","0.29981503528944553","0.1784517526064029","0.4788009388205255","0","","","","","","","",""
"","html-keyboard-response","235","1007231","0.0-127.0-1.0","""event"",""trial"",""time""
""fullscreenenter"",""0"",""2742""
","
","
","""event"",""trial"",""time""
""fullscreenenter"",""0"",""2742""
","
","null","<p></p>","null","","","","","","","","","","","","","","","","","","","","","","",""
"","do_bye","236","1008737","0.0-128.0-0.0","""event"",""trial"",""time""
""fullscreenenter"",""0"",""2742""
","
","
","""event"",""trial"",""time""
""fullscreenenter"",""0"",""2742""
","
","null","","","","","","","","null","","","","","","","","","","","","","","","","",""
"","break","237","1084648","0.0-128.0-1.0","""event"",""trial"",""time""
""fullscreenenter"",""0"",""2742""
","
","
","""event"",""trial"",""time""
""fullscreenenter"",""0"",""2742""
","
","75910.09999999404","<div class='center'><p>Time to take a quick break! You have 2 minutes to rest, but you can move on sooner if you'd like.</p><p> Press the <b>space bar</b> to continue.</p></div>","32","","","","","","","","","","","","","","","","","","","","","","",""
"","do_travel","238","1093653","0.0-129.0-0.0","""event"",""trial"",""time""
""fullscreenenter"",""0"",""2742""
","
","
","""event"",""trial"",""time""
""fullscreenenter"",""0"",""2742""
","
","null","","","","","","","","null","","","","","","","","","","","","","","","","",""
"","do_welcome","239","1097667","0.0-129.0-1.0","""event"",""trial"",""time""
""fullscreenenter"",""0"",""2742""
","
","
","""event"",""trial"",""time""
""fullscreenenter"",""0"",""2742""
","
","null","","","","","","","","null","","","","","","","","","","","","","","","","",""
"","do_trial","240","1103903","0.0-130.0-0.0","""event"",""trial"",""time""
""fullscreenenter"",""0"",""2742""
","
","
","""event"",""trial"",""time""
""fullscreenenter"",""0"",""2742""
","
","1681.2000000178814","","","","","","","","50","0,0,1","2","coast","70","probe-36","0.33914067469920073","0.23774544183473884","1","0","","","","","","","",""
"","html-keyboard-response","241","1104908","0.0-130.0-1.0","""event"",""trial"",""time""
""fullscreenenter"",""0"",""2742""
","
","
","""event"",""trial"",""time""
""fullscreenenter"",""0"",""2742""
","
","null","<p></p>","null","","","","","","","","","","","","","","","","","","","","","","",""
"","do_trial","242","1109780","0.0-131.0-0.0","""event"",""trial"",""time""
""fullscreenenter"",""0"",""2742""
","
","
","""event"",""trial"",""time""
""fullscreenenter"",""0"",""2742""
","
","322","","","","","","","","50","0,0,1","2","coast","71","probe-111","0.3968797314502966","0.2133988806312327","1","0","","","","","","","",""
"","html-keyboard-response","243","1110786","0.0-131.0-1.0","""event"",""trial"",""time""
""fullscreenenter"",""0"",""2742""
","
","
","""event"",""trial"",""time""
""fullscreenenter"",""0"",""2742""
","
","null","<p></p>","null","","","","","","","","","","","","","","","","","","","","","","",""
"","do_trial","244","1116738","0.0-132.0-0.0","""event"",""trial"",""time""
""fullscreenenter"",""0"",""2742""
","
","
","""event"",""trial"",""time""
""fullscreenenter"",""0"",""2742""
","
","1399.7999999821186","","","","","","","","51","0,0,0","2","coast","72","probe-104","0.3456105752362288","0.18935267643903828","0.7580043797517333","0","","","","","","","",""
"","html-keyboard-response","245","1117743","0.0-132.0-1.0","""event"",""trial"",""time""
""fullscreenenter"",""0"",""2742""
","
","
","""event"",""trial"",""time""
""fullscreenenter"",""0"",""2742""
","
","null","<p></p>","null","","","","","","","","","","","","","","","","","","","","","","",""
"","do_trial","246","1122641","0.0-133.0-0.0","""event"",""trial"",""time""
""fullscreenenter"",""0"",""2742""
","
","
","""event"",""trial"",""time""
""fullscreenenter"",""0"",""2742""
","
","343.09999999403954","","","","","","","","49","1,0,1","2","coast","73","probe-50","0.22820922240901098","0.12935799472916415","0.6855521755624194","1","","","","","","","",""
"","html-keyboard-response","247","1123649","0.0-133.0-1.0","""event"",""trial"",""time""
""fullscreenenter"",""0"",""2742""
","
","
","""event"",""trial"",""time""
""fullscreenenter"",""0"",""2742""
","
","null","<p></p>","null","","","","","","","","","","","","","","","","","","","","","","",""
"","do_trial","248","1128929","0.0-134.0-0.0","""event"",""trial"",""time""
""fullscreenenter"",""0"",""2742""
","
","
","""event"",""trial"",""time""
""fullscreenenter"",""0"",""2742""
","
","727.9000000059605","","","","","","","","49","0,0,0","2","coast","74","probe-180","0.2457188710472234","0.11339452657178598","0.7256598765626926","0","","","","","","","",""
"","html-keyboard-response","249","1129936","0.0-134.0-1.0","""event"",""trial"",""time""
""fullscreenenter"",""0"",""2742""
","
","
","""event"",""trial"",""time""
""fullscreenenter"",""0"",""2742""
","
","null","<p></p>","null","","","","","","","","","","","","","","","","","","","","","","",""
"","do_trial","250","1134718","0.0-135.0-0.0","""event"",""trial"",""time""
""fullscreenenter"",""0"",""2742""
","
","
","""event"",""trial"",""time""
""fullscreenenter"",""0"",""2742""
","
","234.5","","","","","","","","49","0,0,1","2","coast","75","probe-145","0.07720360066146693","0.1447179003250527","0.6817223316383673","0","","","","","","","",""
"","html-keyboard-response","251","1135723","0.0-135.0-1.0","""event"",""trial"",""time""
""fullscreenenter"",""0"",""2742""
","
","
","""event"",""trial"",""time""
""fullscreenenter"",""0"",""2742""
","
","null","<p></p>","null","","","","","","","","","","","","","","","","","","","","","","",""
"","do_trial","252","1141780","0.0-136.0-0.0","""event"",""trial"",""time""
""fullscreenenter"",""0"",""2742""
","
","
","""event"",""trial"",""time""
""fullscreenenter"",""0"",""2742""
","
","null","","","","","","","","null","0,0,1","2","coast","76","probe-96","0.2313188164905303","0.06470370758793015","0.5182444893303308","","","","","","","","",""
"","html-keyboard-response","253","1142786","0.0-136.0-1.0","""event"",""trial"",""time""
""fullscreenenter"",""0"",""2742""
","
","
","""event"",""trial"",""time""
""fullscreenenter"",""0"",""2742""
","
","null","<p></p>","null","","","","","","","","","","","","","","","","","","","","","","",""
"","do_trial","254","1147695","0.0-137.0-0.0","""event"",""trial"",""time""
""fullscreenenter"",""0"",""2742""
","
","
","""event"",""trial"",""time""
""fullscreenenter"",""0"",""2742""
","
","349.30000001192093","","","","","","","","49","0,0,1","2","coast","77","probe-05","0.2891720977680734","0.09433568312328433","0.5010743378480066","0","","","","","","","",""
"","html-keyboard-response","255","1148699","0.0-137.0-1.0","""event"",""trial"",""time""
""fullscreenenter"",""0"",""2742""
","
","
","""event"",""trial"",""time""
""fullscreenenter"",""0"",""2742""
","
","null","<p></p>","null","","","","","","","","","","","","","","","","","","","","","","",""
"","do_trial","256","1153604","0.0-138.0-0.0","""event"",""trial"",""time""
""fullscreenenter"",""0"",""2742""
","
","
","""event"",""trial"",""time""
""fullscreenenter"",""0"",""2742""
","
","350.59999999403954","","","","","","","","50","1,0,0","2","coast","78","probe-142","0.29799529084597415","0.06365896682174171","0.5431631278936531","0","","","","","","","",""
"","html-keyboard-response","257","1154609","0.0-138.0-1.0","""event"",""trial"",""time""
""fullscreenenter"",""0"",""2742""
","
","
","""event"",""trial"",""time""
""fullscreenenter"",""0"",""2742""
","
","null","<p></p>","null","","","","","","","","","","","","","","","","","","","","","","",""
"","do_trial","258","1159385","0.0-139.0-0.0","""event"",""trial"",""time""
""fullscreenenter"",""0"",""2742""
","
","
","""event"",""trial"",""time""
""fullscreenenter"",""0"",""2742""
","
","217.90000000596046","","","","","","","","49","0,0,0","2","coast","79","probe-187","0.46906740689754356","0.14734962065002877","0.6019352828391322","0","","","","","","","",""
"","html-keyboard-response","259","1160393","0.0-139.0-1.0","""event"",""trial"",""time""
""fullscreenenter"",""0"",""2742""
","
","
","""event"",""trial"",""time""
""fullscreenenter"",""0"",""2742""
","
","null","<p></p>","null","","","","","","","","","","","","","","","","","","","","","","",""
"","do_trial","260","1165258","0.0-140.0-0.0","""event"",""trial"",""time""
""fullscreenenter"",""0"",""2742""
","
","
","""event"",""trial"",""time""
""fullscreenenter"",""0"",""2742""
","
","311.40000000596046","","","","","","","","51","0,1,1","2","coast","80","probe-103","0.44953049108647164","0.11975704802465448","0.6241948609936644","1","","","","","","","",""
"","html-keyboard-response","261","1166261","0.0-140.0-1.0","""event"",""trial"",""time""
""fullscreenenter"",""0"",""2742""
","
","
