"success","trial_type","trial_index","time_elapsed","internal_node_id","interactions","blur_events","focus_events","fullscreenenter_events","fullscreenexit_events","rt","stimulus","key_press","subject_id","participant_id","age","gender","prompt","response","choice_outcomes","context_n","context_img_id","trial_n","probe_img_id","pR_red","pR_white","pR_black","outcome","contextArray_ind","validImageProbes","invalidImageProbes","pRew_Red","pRew_White","pRew_Black","availableForMemProbe","choice_blocks"
"true","fullscreen","0","4143","0.0-0.0","""event"",""trial"",""time""
""fullscreenenter"",""0"",""3151""
","
","
","""event"",""trial"",""time""
""fullscreenenter"",""0"",""3151""
","
","","","","","","","","","","","","","","","","","","","","","","","","","",""
"","pavlovia","1","4150","0.0-1.0","""event"",""trial"",""time""
""fullscreenenter"",""0"",""3151""
","
","
","""event"",""trial"",""time""
""fullscreenenter"",""0"",""3151""
","
","","","","","","","","","","","","","","","","","","","","","","","","","",""
"","instruc1","2","49270","0.0-2.0","""event"",""trial"",""time""
""fullscreenenter"",""0"",""3151""
","
","
","""event"",""trial"",""time""
""fullscreenenter"",""0"",""3151""
","
","null","run_exp/static/audio/clip_1_welcome.m4a","null","355","70","22","Female","<div class='center'><p>Welcome! This is the first part of the study. It will last ~30 minutes. In part 1 and part 2 of the study, you are the head captain of a pirate ship traveling around the world to different islands. You will play a few different games throughout these two parts. Here is an overview of them:</p><br><p>Part 1 (today)</p><p>1. Instructions, practice game, and quiz</p><p>2. Pick a pirate game on 6 different islands</p><br><p>Part 2 (tomorrow)</p><p>3. Pick a pirate game and memory game</p><p>4. Where did you see this ship? </p></div>","","","","","","","","","","","","","","","","","",""
"","html-keyboard-response","3","49646","0.0-3.0","""event"",""trial"",""time""
""fullscreenenter"",""0"",""3151""
","
","
","""event"",""trial"",""time""
""fullscreenenter"",""0"",""3151""
","
","373.5","<div class='center'><p>Welcome! This is the first part of the study. It will last ~30 minutes. In part 1 and part 2 of the study, you are the head captain of a pirate ship traveling around the world to different islands. You will play a few different games throughout these two parts. Here is an overview of them:</p><br><p>Part 1 (today)</p><p>1. Instructions, practice game, and quiz</p><p>2. Pick a pirate game on 6 different islands</p><br><p>Part 2 (tomorrow)</p><p>3. Pick a pirate game and memory game</p><p>4. Where did you see this ship? </p><p><b>[Press the space bar to continue]</b></p></div>","32","","","","","","","","","","","","","","","","","","","","","","",""
"","instruc2","4","54965","0.0-4.0","""event"",""trial"",""time""
""fullscreenenter"",""0"",""3151""
","
","
","""event"",""trial"",""time""
""fullscreenenter"",""0"",""3151""
","
","null","run_exp/static/audio/clip_2_different_places.m4a","null","","","","","<div class='center'><p>Today, you’ll visit these 6 islands on your journey. You'll be able to see these islands from your ship.</p><p><img src='run_exp/static/images/contexts/all_contexts.png' height='500'></p></div>","","","","","","","","","","","","","","","","","",""
"","html-keyboard-response","5","56851","0.0-5.0","""event"",""trial"",""time""
""fullscreenenter"",""0"",""3151""
","
","
","""event"",""trial"",""time""
""fullscreenenter"",""0"",""3151""
","
","1883.5999999977648","<div class='center'><p>Today, you’ll visit these 6 islands on your journey. You'll be able to see these islands from your ship.</p><p><img src='run_exp/static/images/contexts/all_contexts.png' height='500'></p><p><b>[Press the space bar to continue]</b></p></div>","32","","","","","","","","","","","","","","","","","","","","","","",""
"","instruc3","6","66549","0.0-6.0","""event"",""trial"",""time""
""fullscreenenter"",""0"",""3151""
","
","
","""event"",""trial"",""time""
""fullscreenenter"",""0"",""3151""
","
","null","run_exp/static/audio/clip_3_goal_of_game_1.m4a","null","","","","","<div class='center'><p> The pirates on your ship will rob other ships as they leave the island.</p> These ships have just sold their goods to the islanders, so they will be filled with lots and lots of gold.</p><p><img src='run_exp/static/images/tutorial/ship_center.png' height='400'></p></div>","","","","","","","","","","","","","","","","","",""
"","html-keyboard-response","7","67388","0.0-7.0","""event"",""trial"",""time""
""fullscreenenter"",""0"",""3151""
","
","
","""event"",""trial"",""time""
""fullscreenenter"",""0"",""3151""
","
","836.3000000007451","<div class='center'><p> The pirates on your ship will rob other ships as they leave the island.</p> These ships have just sold their goods to the islanders, so they will be filled with lots and lots of gold.</p><p><img src='run_exp/static/images/tutorial/ship_center.png' height='400'></p><p><b>[Press the space bar to continue]</b></p></div>","32","","","","","","","","","","","","","","","","","","","","","","",""
"","instruc4","8","95392","0.0-8.0","""event"",""trial"",""time""
""fullscreenenter"",""0"",""3151""
","
","
","""event"",""trial"",""time""
""fullscreenenter"",""0"",""3151""
","
","null","run_exp/static/audio/clip_4_goal_of_game_2.m4a","null","","","","","<div class='center'><p>As the head captain, you do not have to rob any ships yourself. Another pirate will be doing the robbing for you. First, you will choose a pirate to rob the next ship.</p><p><img src='run_exp/static/images/tutorial/pirates_all_crop.png' height='200'></p><p>Then, you'll see if the pirate successfully robbed the ship of their gold. If they were successful, then you'll get a stack of gold coins like this:</p><p><img src='run_exp/static/images/tutorial/reward.png' height='150'></p><p> If they were <b>not</b> successful, then you'll get no gold coins, and you'll see a big red x like this: </p><p><img src='run_exp/static/images/tutorial/reward_no.png' height='150'></p><p> How much bonus money you make is based on how many gold coins you collect.</p><div>","","","","","","","","","","","","","","","","","",""
"","html-keyboard-response","9","104540","0.0-9.0","""event"",""trial"",""time""
""fullscreenenter"",""0"",""3151""
","
","
","""event"",""trial"",""time""
""fullscreenenter"",""0"",""3151""
","
","9145.800000000745","<div class='center'><p>As the head captain, you do not have to rob any ships yourself. Another pirate will be doing the robbing for you. First, you will choose a pirate to rob the next ship.</p><p><img src='run_exp/static/images/tutorial/pirates_all_crop.png' height='200'></p><p>Then, you'll see if the pirate successfully robbed the ship of their gold. If they were successful, then you'll get a stack of gold coins like this:</p><p><img src='run_exp/static/images/tutorial/reward.png' height='150'></p><p> If they were <b>not</b> successful, then you'll get no gold coins, and you'll see a big red x like this: </p><p><img src='run_exp/static/images/tutorial/reward_no.png' height='150'></p><p> How much bonus money you make is based on how many gold coins you collect.</p<p><b>[Press the space bar to continue]</b></p></div>","32","","","","","","","","","","","","","","","","","","","","","","",""
"","instruc5","10","122491","0.0-10.0","""event"",""trial"",""time""
""fullscreenenter"",""0"",""3151""
","
","
","""event"",""trial"",""time""
""fullscreenenter"",""0"",""3151""
","
","17948.300000000745","run_exp/static/audio/clip_5_probabilistic.m4a","49","","","","","<div class='center'><p>Even the most skilled pirate can not rob EVERY ship.</p><p> Some ships will have very strong protections against pirate attacks.</p><p> Blue beard, here, is very, very good at robbing ships, but he won't be successful every time he tries to rob one.</p><p> You can press the <b>‘1’</b> key on the keyboard to choose him.</p><p> Try choosing him 10 times to see how often he succeeds at robbing a ship. </p><p><img src='run_exp/static/images/tutorial/blue.png' height='500'></p></div>","","","","","","","","","","","","","","","","","",""
"","html-keyboard-response","11","123998","0.0-11.0","""event"",""trial"",""time""
""fullscreenenter"",""0"",""3151""
","
","
","""event"",""trial"",""time""
""fullscreenenter"",""0"",""3151""
","
","null","<div class='center'><p><img src='run_exp/static/images/tutorial/blue_win.png' height='500'></p></div>","null","","","","","","","","","","","","","","","","","","","","","","",""
"","html-keyboard-response","12","124821","0.0-12.0","""event"",""trial"",""time""
""fullscreenenter"",""0"",""3151""
","
","
","""event"",""trial"",""time""
""fullscreenenter"",""0"",""3151""
","
","820.0999999977648","<div class='center'><img src='run_exp/static/images/tutorial/blue.png' height='500'></p></div>","49","","","","","","","","","","","","","","","","","","","","","","",""
"","html-keyboard-response","13","126325","0.0-13.0","""event"",""trial"",""time""
""fullscreenenter"",""0"",""3151""
","
","
","""event"",""trial"",""time""
""fullscreenenter"",""0"",""3151""
","
","null","<div class='center'><p><img src='run_exp/static/images/tutorial/blue_win.png' height='500'></p></div>","null","","","","","","","","","","","","","","","","","","","","","","",""
"","html-keyboard-response","14","126545","0.0-14.0","""event"",""trial"",""time""
""fullscreenenter"",""0"",""3151""
","
","
","""event"",""trial"",""time""
""fullscreenenter"",""0"",""3151""
","
","218.70000000298023","<div class='center'><img src='run_exp/static/images/tutorial/blue.png' height='500'></p></div>","49","","","","","","","","","","","","","","","","","","","","","","",""
"","html-keyboard-response","15","128052","0.0-15.0","""event"",""trial"",""time""
""fullscreenenter"",""0"",""3151""
","
","
","""event"",""trial"",""time""
""fullscreenenter"",""0"",""3151""
","
","null","<div class='center'><p><img src='run_exp/static/images/tutorial/blue_win.png' height='500'></p></div>","null","","","","","","","","","","","","","","","","","","","","","","",""
"","html-keyboard-response","16","128181","0.0-16.0","""event"",""trial"",""time""
""fullscreenenter"",""0"",""3151""
","
","
","""event"",""trial"",""time""
""fullscreenenter"",""0"",""3151""
","
","127.5","<div class='center'><img src='run_exp/static/images/tutorial/blue.png' height='500'></p></div>","49","","","","","","","","","","","","","","","","","","","","","","",""
"","html-keyboard-response","17","129688","0.0-17.0","""event"",""trial"",""time""
""fullscreenenter"",""0"",""3151""
","
","
","""event"",""trial"",""time""
""fullscreenenter"",""0"",""3151""
","
","null","<div class='center'><p><img src='run_exp/static/images/tutorial/blue_no_win.png' height='500'></p></div>","null","","","","","","","","","","","","","","","","","","","","","","",""
"","html-keyboard-response","18","129800","0.0-18.0","""event"",""trial"",""time""
""fullscreenenter"",""0"",""3151""
","
","
","""event"",""trial"",""time""
""fullscreenenter"",""0"",""3151""
","
","110.19999999925494","<div class='center'><img src='run_exp/static/images/tutorial/blue.png' height='500'></p></div>","49","","","","","","","","","","","","","","","","","","","","","","",""
"","html-keyboard-response","19","131302","0.0-19.0","""event"",""trial"",""time""
""fullscreenenter"",""0"",""3151""
","
","
","""event"",""trial"",""time""
""fullscreenenter"",""0"",""3151""
","
","null","<div class='center'><p><img src='run_exp/static/images/tutorial/blue_win.png' height='500'></p></div>","null","","","","","","","","","","","","","","","","","","","","","","",""
"","html-keyboard-response","20","131517","0.0-20.0","""event"",""trial"",""time""
""fullscreenenter"",""0"",""3151""
","
","
","""event"",""trial"",""time""
""fullscreenenter"",""0"",""3151""
","
","212.59999999776483","<div class='center'><img src='run_exp/static/images/tutorial/blue.png' height='500'></p></div>","49","","","","","","","","","","","","","","","","","","","","","","",""
"","html-keyboard-response","21","133020","0.0-21.0","""event"",""trial"",""time""
""fullscreenenter"",""0"",""3151""
","
","
","""event"",""trial"",""time""
""fullscreenenter"",""0"",""3151""
","
","null","<div class='center'><p><img src='run_exp/static/images/tutorial/blue_win.png' height='500'></p></div>","null","","","","","","","","","","","","","","","","","","","","","","",""
"","html-keyboard-response","22","133441","0.0-22.0","""event"",""trial"",""time""
""fullscreenenter"",""0"",""3151""
","
","
","""event"",""trial"",""time""
""fullscreenenter"",""0"",""3151""
","
","418.80000000074506","<div class='center'><img src='run_exp/static/images/tutorial/blue.png' height='500'></p></div>","49","","","","","","","","","","","","","","","","","","","","","","",""
"","html-keyboard-response","23","134948","0.0-23.0","""event"",""trial"",""time""
""fullscreenenter"",""0"",""3151""
","
","
","""event"",""trial"",""time""
""fullscreenenter"",""0"",""3151""
","
","null","<div class='center'><p><img src='run_exp/static/images/tutorial/blue_win.png' height='500'></p></div>","null","","","","","","","","","","","","","","","","","","","","","","",""
"","html-keyboard-response","24","135181","0.0-24.0","""event"",""trial"",""time""
""fullscreenenter"",""0"",""3151""
","
","
","""event"",""trial"",""time""
""fullscreenenter"",""0"",""3151""
","
","231.10000000149012","<div class='center'><img src='run_exp/static/images/tutorial/blue.png' height='500'></p></div>","49","","","","","","","","","","","","","","","","","","","","","","",""
"","html-keyboard-response","25","136687","0.0-25.0","""event"",""trial"",""time""
""fullscreenenter"",""0"",""3151""
","
","
","""event"",""trial"",""time""
""fullscreenenter"",""0"",""3151""
","
","null","<div class='center'><p><img src='run_exp/static/images/tutorial/blue_no_win.png' height='500'></p></div>","null","","","","","","","","","","","","","","","","","","","","","","",""
"","html-keyboard-response","26","136756","0.0-26.0","""event"",""trial"",""time""
""fullscreenenter"",""0"",""3151""
","
","
","""event"",""trial"",""time""
""fullscreenenter"",""0"",""3151""
","
","66.5","<div class='center'><img src='run_exp/static/images/tutorial/blue.png' height='500'></p></div>","49","","","","","","","","","","","","","","","","","","","","","","",""
"","html-keyboard-response","27","138260","0.0-27.0","""event"",""trial"",""time""
""fullscreenenter"",""0"",""3151""
","
","
","""event"",""trial"",""time""
""fullscreenenter"",""0"",""3151""
","
","null","<div class='center'><p><img src='run_exp/static/images/tutorial/blue_win.png' height='500'></p></div>","null","","","","","","","","","","","","","","","","","","","","","","",""
"","html-keyboard-response","28","138545","0.0-28.0","""event"",""trial"",""time""
""fullscreenenter"",""0"",""3151""
","
","
","""event"",""trial"",""time""
""fullscreenenter"",""0"",""3151""
","
","283.19999999925494","<div class='center'><img src='run_exp/static/images/tutorial/blue.png' height='500'></p></div>","49","","","","","","","","","","","","","","","","","","","","","","",""
"","html-keyboard-response","29","140052","0.0-29.0","""event"",""trial"",""time""
""fullscreenenter"",""0"",""3151""
","
","
","""event"",""trial"",""time""
""fullscreenenter"",""0"",""3151""
","
","null","<div class='center'><p><img src='run_exp/static/images/tutorial/blue_win.png' height='500'></p></div>","null","","","","","","","","","","","","","","","","","","","","","","",""
"","instruc6","30","145468","0.0-30.0","""event"",""trial"",""time""
""fullscreenenter"",""0"",""3151""
","
","
","""event"",""trial"",""time""
""fullscreenenter"",""0"",""3151""
","
","null","run_exp/static/audio/clip_6_blue_beard_outcome.m4a","null","","","","","<div class='center'><p> See, he succeeded in robbing the ships most of the time but not every time. </p></div>","","","","","","","","","","","","","","","","","",""
"","html-keyboard-response","31","146835","0.0-31.0","""event"",""trial"",""time""
""fullscreenenter"",""0"",""3151""
","
","
","""event"",""trial"",""time""
""fullscreenenter"",""0"",""3151""
","
","1365.800000000745","<div class='center'><p> See, he succeeded in robbing the ships most of the time but not every time. </p><p><b>[Press the space bar to continue]</b></p></div>","32","","","","","","","","","","","","","","","","","","","","","","",""
"","audio-keyboard-response","32","151853","0.0-32.0","""event"",""trial"",""time""
""fullscreenenter"",""0"",""3151""
","
","
","""event"",""trial"",""time""
""fullscreenenter"",""0"",""3151""
","
","5015.89999999851","run_exp/static/audio/clip_7_pick_pirate.m4a","49","","","","","","","","","","","","","","","","","","","","","","",""
"","audio-keyboard-response","33","153426","0.0-33.0-0.0","""event"",""trial"",""time""
""fullscreenenter"",""0"",""3151""
","
","
","""event"",""trial"",""time""
""fullscreenenter"",""0"",""3151""
","
","1569.300000000745","run_exp/static/audio/clip_8_chosen_pirate_win.m4a","32","","","","","","","","","","","","","","","","","","","","","","",""
"","audio-keyboard-response","34","154040","0.0-33.0-1.0","""event"",""trial"",""time""
""fullscreenenter"",""0"",""3151""
","
","
","""event"",""trial"",""time""
""fullscreenenter"",""0"",""3151""
","
","611.4000000022352","run_exp/static/audio/clip_9_pick_a_pirate_again.m4a","50","","","","","","","","","","","","","","","","","","","","","","",""
"","audio-keyboard-response","35","154899","0.0-34.0-0.0","""event"",""trial"",""time""
""fullscreenenter"",""0"",""3151""
","
","
","""event"",""trial"",""time""
""fullscreenenter"",""0"",""3151""
","
","857.1999999992549","run_exp/static/audio/clip_10_chosen_pirate_loss.m4a","32","","","","","","","","","","","","","","","","","","","","","","",""
"","instruc9","36","160401","0.0-35.0-0.0","""event"",""trial"",""time""
""fullscreenenter"",""0"",""3151""
","
","
","""event"",""trial"",""time""
""fullscreenenter"",""0"",""3151""
","
","null","run_exp/static/audio/clip_11_time_out.m4a","null","","","","","<div class='center'><p>If you don’t make your choice fast enough, you’ll have to wait a few seconds before you can make another one. </p><p><img src='run_exp/static/images/miscellaneous/hurry_up.png' height='500'></p></div>","","","","","","","","","","","","","","","","","",""
"","html-keyboard-response","37","161044","0.0-35.0-1.0","""event"",""trial"",""time""
""fullscreenenter"",""0"",""3151""
","
","
","""event"",""trial"",""time""
""fullscreenenter"",""0"",""3151""
","
","640.5","<div class='center'><p>If you don’t make your choice fast enough, you’ll have to wait a few seconds before you can make another one. </p><p><img src='run_exp/static/images/miscellaneous/hurry_up.png' height='500'></p><p><b>[Press the space bar to continue]</b></p></div>","32","","","","","","","","","","","","","","","","","","","","","","",""
"","instruc10","38","200145","0.0-35.0-2.0","""event"",""trial"",""time""
""fullscreenenter"",""0"",""3151""
","
","
","""event"",""trial"",""time""
""fullscreenenter"",""0"",""3151""
","
","null","run_exp/static/audio/clip_12_probe.m4a","null","","","","","<div class='center'><p>Once you've chosen a pirate, you’ll be shown the ship they are robbing. You will never rob the same ship twice. Ships can be told apart from one another by the image on them. These are the goods that they sell. See, this ship has a travel mug on it. </p><p> You’ll have to remember which island you saw each ship on. You will win more gold coins and hence more bonus money if you remember correctly! To help you remember, you can imagine a story. For example, here, you could imagine a mug full of water in the desert. Or, as another example, if on the forest island, your pirate robbed a ship with an apple on it, you could imagine an apple falling from a tree in the forest. </p><p><img src='run_exp/static/images/tutorial/example_probe.png' height='500'></p></div>","","","","","","","","","","","","","","","","","",""
"","html-keyboard-response","39","201194","0.0-35.0-3.0","""event"",""trial"",""time""
""fullscreenenter"",""0"",""3151""
","
","
","""event"",""trial"",""time""
""fullscreenenter"",""0"",""3151""
","
","1047.3999999985099","<div class='center'><p>Once you've chosen a pirate, you’ll be shown the ship they are robbing. You will never rob the same ship twice. Ships can be told apart from one another by the image on them. These are the goods that they sell. See, this ship has a travel mug on it. </p><p> You’ll have to remember which island you saw each ship on. You will win more gold coins and hence more bonus money if you remember correctly! To help you remember, you can imagine a story. For example, here, you could imagine a mug full of water in the desert. Or, as another example, if on the forest island, your pirate robbed a ship with an apple on it, you could imagine an apple falling from a tree in the forest. </p><p><img src='run_exp/static/images/tutorial/example_probe.png' height='500'></p><p><b>[Press the space bar to continue]</b></p></div>","32","","","","","","","","","","","","","","","","","","","","","","",""
"","instruc11","40","217595","0.0-35.0-4.0","""event"",""trial"",""time""
""fullscreenenter"",""0"",""3151""
","
","
","""event"",""trial"",""time""
""fullscreenenter"",""0"",""3151""
","
","null","run_exp/static/audio/clip_13_changepoint.m4a","null","","","","","<div class='center'><p>How successful a pirate is at robbing ships will depend on the island you’re on.</p><p> A pirate may have visited this island many times before and gained a lot of practice robbing ships there.</p><p>So, they’re more likely to be successful than a pirate who has never visited the island before.</p></div>","","","","","","","","","","","","","","","","","",""
"","html-keyboard-response","41","217923","0.0-35.0-5.0","""event"",""trial"",""time""
""fullscreenenter"",""0"",""3151""
","
","
","""event"",""trial"",""time""
""fullscreenenter"",""0"",""3151""
","
","326.29999999701977","<div class='center'><p>How successful a pirate is at robbing ships will depend on the island you’re on.</p><p> A pirate may have visited this island many times before and gained a lot of practice robbing ships there.</p><p>So, they’re more likely to be successful than a pirate who has never visited the island before.</p><p><b>[Press the space bar to continue]</b></p></div>","32","","","","","","","","","","","","","","","","","","","","","","",""
"","instruc12","42","259003","0.0-35.0-6.0","""event"",""trial"",""time""
""fullscreenenter"",""0"",""3151""
","
","
","""event"",""trial"",""time""
""fullscreenenter"",""0"",""3151""
","
","null","run_exp/static/audio/clip_14_drift.m4a","null","","","","","<div class='center'><p>How successful a pirate is at robbing ships can also change over the time spent on the island. </p><p> Ships may hear from islanders about the pirates coming and will improve their protections against the attack. This may make it harder to rob them.</p><p> Ships may also become lazy and weaken the strength of their protections. This may make it easier to rob them.</p><br><p>Things are always changing on the high seas! So, try your best to pay attention!</p><p><img src='run_exp/static/images/tutorial/contingency.png' height='500'></p></div>","","","","","","","","","","","","","","","","","",""
"","html-keyboard-response","43","259691","0.0-35.0-7.0","""event"",""trial"",""time""
""fullscreenenter"",""0"",""3151""
","
","
","""event"",""trial"",""time""
""fullscreenenter"",""0"",""3151""
","
","685.5","<div class='center'><p>How successful a pirate is at robbing ships can also change over the time spent on the island. </p><p> Ships may hear from islanders about the pirates coming and will improve their protections against the attack. This may make it harder to rob them.</p><p> Ships may also become lazy and weaken the strength of their protections. This may make it easier to rob them.</p><br><p>Things are always changing on the high seas! So, try your best to pay attention!</p><p><img src='run_exp/static/images/tutorial/contingency.png' height='500'></p><p><b>[Press the space bar to continue]</b></p></div>","32","","","","","","","","","","","","","","","","","","","","","","",""
"","instruc13","44","294885","0.0-35.0-8.0","""event"",""trial"",""time""
""fullscreenenter"",""0"",""3151""
","
","
","""event"",""trial"",""time""
""fullscreenenter"",""0"",""3151""
","
","null","run_exp/static/audio/clip_15_summary.m4a","null","","","","","<div class='center'><p>Let's go over the instructions quickly again. You have two important things to do: </p><b><p> 1. Pick the pirate who is the best at robbing ships on the current island. </p></b><b><p> 2. Remember on which island a ship was robbed.</p> </b><p>The amount of bonus money you can win depends on both.</p><p><br><p>Let’s try a practice game. The game will start by showing you the pirates. First, pick a pirate using the <b> 1, 2, 3 </b> keys on your keyboard. When you are shown a ship, try to remember which island you’re on by making up a story.</p><p>This is just a practice game, so you’re not playing for money. </p><p> Good luck! This game will be very difficult but try your best!</p></div>","","","","","","","","","","","","","","","","","",""
"","html-keyboard-response","45","295633","0.0-35.0-9.0","""event"",""trial"",""time""
""fullscreenenter"",""0"",""3151""
","
","
","""event"",""trial"",""time""
""fullscreenenter"",""0"",""3151""
","
","746.6000000014901","<div class='center'><p>Let's go over the instructions quickly again. You have two important things to do: </p><b><p> 1. Pick the pirate who is the best at robbing ships on the current island. </p></b><b><p> 2. Remember on which island a ship was robbed.</p> </b><p>The amount of bonus money you can win depends on both.</p><p><br><p>Let’s try a practice game. The game will start by showing you the pirates. First, pick a pirate using the <b> 1, 2, 3 </b> keys on your keyboard. When you are shown a ship, try to remember which island you’re on by making up a story.</p><p>This is just a practice game, so you’re not playing for money. </p><p> Good luck! This game will be very difficult but try your best!</p><p><b>[Press the space bar to continue]</b></p></div>","32","","","","","","","","","","","","","","","","","","","","","","",""
"","do_welcome","46","299647","0.0-35.0-10.0","""event"",""trial"",""time""
""fullscreenenter"",""0"",""3151""
","
","
","""event"",""trial"",""time""
""fullscreenenter"",""0"",""3151""
","
","null","","","","","","","","null","","","","","","","","","","","","","","","","",""
"","do_trial","47","305234","0.0-35.0-11.0","""event"",""trial"",""time""
""fullscreenenter"",""0"",""3151""
","
","
","""event"",""trial"",""time""
""fullscreenenter"",""0"",""3151""
","
","1071.699999999255","","","","","","","","49","1,0,0","","","","","","","","","","","","","","","",""
"","html-keyboard-response","48","306238","0.0-36.0-0.0","""event"",""trial"",""time""
""fullscreenenter"",""0"",""3151""
","
","
","""event"",""trial"",""time""
""fullscreenenter"",""0"",""3151""
","
","null","<p></p>","null","","","","","","","","","","","","","","","","","","","","","","",""
"","do_trial","49","311142","0.0-36.0-1.0","""event"",""trial"",""time""
""fullscreenenter"",""0"",""3151""
","
","
","""event"",""trial"",""time""
""fullscreenenter"",""0"",""3151""
","
","390.8999999985099","","","","","","","","49","1,1,0","","","","","","","","","","","","","","","",""
"","html-keyboard-response","50","312149","0.0-37.0-0.0","""event"",""trial"",""time""
""fullscreenenter"",""0"",""3151""
","
","
","""event"",""trial"",""time""
""fullscreenenter"",""0"",""3151""
","
","null","<p></p>","null","","","","","","","","","","","","","","","","","","","","","","",""
"","do_trial","51","316960","0.0-37.0-1.0","""event"",""trial"",""time""
""fullscreenenter"",""0"",""3151""
","
","
","""event"",""trial"",""time""
""fullscreenenter"",""0"",""3151""
","
","297.1000000014901","","","","","","","","49","1,0,1","","","","","","","","","","","","","","","",""
"","html-keyboard-response","52","317966","0.0-38.0-0.0","""event"",""trial"",""time""
""fullscreenenter"",""0"",""3151""
","
","
","""event"",""trial"",""time""
""fullscreenenter"",""0"",""3151""
","
","null","<p></p>","null","","","","","","","","","","","","","","","","","","","","","","",""
"","do_trial","53","322745","0.0-38.0-1.0","""event"",""trial"",""time""
""fullscreenenter"",""0"",""3151""
","
","
","""event"",""trial"",""time""
""fullscreenenter"",""0"",""3151""
","
","264.5","","","","","","","","49","0,1,0","","","","","","","","","","","","","","","",""
"","html-keyboard-response","54","323750","0.0-39.0-0.0","""event"",""trial"",""time""
""fullscreenenter"",""0"",""3151""
","
","
","""event"",""trial"",""time""
""fullscreenenter"",""0"",""3151""
","
","null","<p></p>","null","","","","","","","","","","","","","","","","","","","","","","",""
"","do_trial","55","328514","0.0-39.0-1.0","""event"",""trial"",""time""
""fullscreenenter"",""0"",""3151""
","
","
","""event"",""trial"",""time""
""fullscreenenter"",""0"",""3151""
","
","249.19999999925494","","","","","","","","49","1,0,0","","","","","","","","","","","","","","","",""
"","do_bye","56","330027","0.0-40.0-0.0","""event"",""trial"",""time""
""fullscreenenter"",""0"",""3151""
","
","
","""event"",""trial"",""time""
""fullscreenenter"",""0"",""3151""
","
","null","","","","","","","","null","","","","","","","","","","","","","","","","",""
"","do_travel","57","339038","0.0-40.0-1.0","""event"",""trial"",""time""
""fullscreenenter"",""0"",""3151""
","
","
","""event"",""trial"",""time""
""fullscreenenter"",""0"",""3151""
","
","null","","","","","","","","null","","","","","","","","","","","","","","","","",""
"","do_welcome","58","343052","0.0-40.0-2.0","""event"",""trial"",""time""
""fullscreenenter"",""0"",""3151""
","
","
","""event"",""trial"",""time""
""fullscreenenter"",""0"",""3151""
","
","null","","","","","","","","null","","","","","","","","","","","","","","","","",""
"","do_trial","59","348529","0.0-40.0-3.0","""event"",""trial"",""time""
""fullscreenenter"",""0"",""3151""
","
","
","""event"",""trial"",""time""
""fullscreenenter"",""0"",""3151""
","
","963.1999999992549","","","","","","","","50","1,0,0","","","","","","","","","","","","","","","",""
"","html-keyboard-response","60","349531","0.0-41.0-0.0","""event"",""trial"",""time""
""fullscreenenter"",""0"",""3151""
","
","
","""event"",""trial"",""time""
""fullscreenenter"",""0"",""3151""
","
","null","<p></p>","null","","","","","","","","","","","","","","","","","","","","","","",""
"","do_trial","61","354375","0.0-41.0-1.0","""event"",""trial"",""time""
""fullscreenenter"",""0"",""3151""
","
","
","""event"",""trial"",""time""
""fullscreenenter"",""0"",""3151""
","
","328.80000000074506","","","","","","","","50","1,0,1","","","","","","","","","","","","","","","",""
"","html-keyboard-response","62","355382","0.0-42.0-0.0","""event"",""trial"",""time""
""fullscreenenter"",""0"",""3151""
","
","
","""event"",""trial"",""time""
""fullscreenenter"",""0"",""3151""
","
","null","<p></p>","null","","","","","","","","","","","","","","","","","","","","","","",""
"","do_trial","63","360105","0.0-42.0-1.0","""event"",""trial"",""time""
""fullscreenenter"",""0"",""3151""
","
","
","""event"",""trial"",""time""
""fullscreenenter"",""0"",""3151""
","
","208.80000000074506","","","","","","","","50","1,1,0","","","","","","","","","","","","","","","",""
"","html-keyboard-response","64","361112","0.0-43.0-0.0","""event"",""trial"",""time""
""fullscreenenter"",""0"",""3151""
","
","
","""event"",""trial"",""time""
""fullscreenenter"",""0"",""3151""
","
","null","<p></p>","null","","","","","","","","","","","","","","","","","","","","","","",""
"","do_trial","65","367701","0.0-43.0-1.0","""event"",""trial"",""time""
""fullscreenenter"",""0"",""3151""
","
","
","""event"",""trial"",""time""
""fullscreenenter"",""0"",""3151""
","
","2073.099999997765","","","","","","","","49","0,0,1","","","","","","","","","","","","","","","",""
"","html-keyboard-response","66","368705","0.0-44.0-0.0","""event"",""trial"",""time""
""fullscreenenter"",""0"",""3151""
","
","
","""event"",""trial"",""time""
""fullscreenenter"",""0"",""3151""
","
","null","<p></p>","null","","","","","","","","","","","","","","","","","","","","","","",""
"","do_trial","67","373529","0.0-44.0-1.0","""event"",""trial"",""time""
""fullscreenenter"",""0"",""3151""
","
","
","""event"",""trial"",""time""
""fullscreenenter"",""0"",""3151""
","
","307.5","","","","","","","","49","1,0,1","","","","","","","","","","","","","","","",""
"","html-keyboard-response","68","373657","0.0-45.0-0.0","""event"",""trial"",""time""
""fullscreenenter"",""0"",""3151""
","
","
","""event"",""trial"",""time""
""fullscreenenter"",""0"",""3151""
","
","120.89999999850988","<div class='center'><p><img src='run_exp/static/images/tutorial/prac_best_pirate.png'  height='500'></p></div>","51","","","","","","","","","","","","","","","","","","","","","","",""
"","html-keyboard-response","69","375394","0.0-46.0-0.0","""event"",""trial"",""time""
""fullscreenenter"",""0"",""3151""
","
","
","""event"",""trial"",""time""
""fullscreenenter"",""0"",""3151""
","
","1735.0999999977648","<div class='center'><p>That's incorrect! Red beard was the best.</p><p><b>[Press the space bar to continue]</b></p></div>","32","","","","","","","","","","","","","","","","","","","","","","",""
"","html-keyboard-response","70","378627","0.0-46.0-1.0","""event"",""trial"",""time""
""fullscreenenter"",""0"",""3151""
","
","
","""event"",""trial"",""time""
""fullscreenenter"",""0"",""3151""
","
","3232.099999997765","<div class='center'><p><img src='run_exp/static/images/tutorial/prac_source.png'  height='500'></p></div>","50","","","","","","","","","","","","","","","","","","","","","","",""
"","html-keyboard-response","71","379488","0.0-47.0-0.0","""event"",""trial"",""time""
""fullscreenenter"",""0"",""3151""
","
","
","""event"",""trial"",""time""
""fullscreenenter"",""0"",""3151""
","
","859.1000000014901","<div class='center'><p>That's correct! You saw this ship on the cavern island.</p><p><b>[Press the space bar to continue]</b></p></div>","32","","","","","","","","","","","","","","","","","","","","","","",""
"","quiz_beginning","72","390732","0.0-47.0-1.0","""event"",""trial"",""time""
""fullscreenenter"",""0"",""3151""
","
","
","""event"",""trial"",""time""
""fullscreenenter"",""0"",""3151""
","
","null","run_exp/static/audio/clip_16_quiz_intro.m4a","null","","","","","<div class='center'><p>Good job on the practice game! Now, you will be asked some true or false questions to make sure you really understand the rules of the game.</p><p> Press <b>'1'</b> on the keyboard for true and press <b>'2'</b> for false.</p></div>","","","","","","","","","","","","","","","","","",""
"","audio-keyboard-response","73","395684","0.0-47.0-2.0","""event"",""trial"",""time""
""fullscreenenter"",""0"",""3151""
","
","
","""event"",""trial"",""time""
""fullscreenenter"",""0"",""3151""
","
","4950","run_exp/static/audio/clip_17_q1.m4a","49","","","","","","","","","","","","","","","","","","","","","","",""
"","correct","74","398092","0.0-48.0-0.0","""event"",""trial"",""time""
""fullscreenenter"",""0"",""3151""
","
","
","""event"",""trial"",""time""
""fullscreenenter"",""0"",""3151""
","
","null","run_exp/static/audio/clip_18_correct.m4a","null","","","","","<div class='center'><p>That's correct!</p></div>","","","","","","","","","","","","","","","","","",""
"","html-keyboard-response","75","398704","0.0-48.0-1.0","""event"",""trial"",""time""
""fullscreenenter"",""0"",""3151""
","
","
","""event"",""trial"",""time""
""fullscreenenter"",""0"",""3151""
","
","609.8999999985099","<div class='center'><p>That's correct!</p><p><b>[Press the space bar to continue]</b></p></div>","32","","","","","","","","","","","","","","","","","","","","","","",""
"","audio-keyboard-response","76","402254","0.0-48.0-2.0","""event"",""trial"",""time""
""fullscreenenter"",""0"",""3151""
","
","
","""event"",""trial"",""time""
""fullscreenenter"",""0"",""3151""
","
","3549.199999999255","run_exp/static/audio/clip_20_q2.m4a","50","","","","","","","","","","","","","","","","","","","","","","",""
"","correct","77","404663","0.0-49.0-0.0","""event"",""trial"",""time""
""fullscreenenter"",""0"",""3151""
","
","
","""event"",""trial"",""time""
""fullscreenenter"",""0"",""3151""
","
","null","run_exp/static/audio/clip_18_correct.m4a","null","","","","","<div class='center'><p>That's correct!</p></div>","","","","","","","","","","","","","","","","","",""
"","html-keyboard-response","78","405333","0.0-49.0-1.0","""event"",""trial"",""time""
""fullscreenenter"",""0"",""3151""
","
","
","""event"",""trial"",""time""
""fullscreenenter"",""0"",""3151""
","
","668.8000000007451","<div class='center'><p>That's correct!</p><p><b>[Press the space bar to continue]</b></p></div>","32","","","","","","","","","","","","","","","","","","","","","","",""
"","audio-keyboard-response","79","408186","0.0-49.0-2.0","""event"",""trial"",""time""
""fullscreenenter"",""0"",""3151""
","
","
","""event"",""trial"",""time""
""fullscreenenter"",""0"",""3151""
","
","2851.699999999255","run_exp/static/audio/clip_22_q3.m4a","50","","","","","","","","","","","","","","","","","","","","","","",""
"","correct","80","410593","0.0-50.0-0.0","""event"",""trial"",""time""
""fullscreenenter"",""0"",""3151""
","
","
","""event"",""trial"",""time""
""fullscreenenter"",""0"",""3151""
","
","null","run_exp/static/audio/clip_18_correct.m4a","null","","","","","<div class='center'><p>That's correct!</p></div>","","","","","","","","","","","","","","","","","",""
"","html-keyboard-response","81","411067","0.0-50.0-1.0","""event"",""trial"",""time""
""fullscreenenter"",""0"",""3151""
","
","
","""event"",""trial"",""time""
""fullscreenenter"",""0"",""3151""
","
","472.69999999925494","<div class='center'><p>That's correct!</p><p><b>[Press the space bar to continue]</b></p></div>","32","","","","","","","","","","","","","","","","","","","","","","",""
"","audio-keyboard-response","82","413064","0.0-50.0-2.0","""event"",""trial"",""time""
""fullscreenenter"",""0"",""3151""
","
","
","""event"",""trial"",""time""
""fullscreenenter"",""0"",""3151""
","
","1995","run_exp/static/audio/clip_24_q4.m4a","49","","","","","","","","","","","","","","","","","","","","","","",""
"","correct","83","415500","0.0-51.0-0.0","""event"",""trial"",""time""
""fullscreenenter"",""0"",""3151""
","
","
","""event"",""trial"",""time""
""fullscreenenter"",""0"",""3151""
","
","null","run_exp/static/audio/clip_18_correct.m4a","null","","","","","<div class='center'><p>That's correct!</p></div>","","","","","","","","","","","","","","","","","",""
"","html-keyboard-response","84","415520","0.0-51.0-1.0","""event"",""trial"",""time""
""fullscreenenter"",""0"",""3151""
","
","
","""event"",""trial"",""time""
""fullscreenenter"",""0"",""3151""
","
","17.800000000745058","<div class='center'><p>That's correct!</p><p><b>[Press the space bar to continue]</b></p></div>","32","","","","","","","","","","","","","","","","","","","","","","",""
"","q_all_corr","85","424012","0.0-52.0-0.0","""event"",""trial"",""time""
""fullscreenenter"",""0"",""3151""
","
","
","""event"",""trial"",""time""
""fullscreenenter"",""0"",""3151""
","
","null","run_exp/static/audio/clip_27_quiz_all_correct.m4a","null","","","","","<div class='center'><p>Good job! You’re now ready to move on to the real game! Remember this game will be difficult but don't get discouraged and try your best!</p></div>","","","","","","","","","","","","","","","","","",""
"","html-keyboard-response","86","424749","0.0-52.0-1.0","""event"",""trial"",""time""
""fullscreenenter"",""0"",""3151""
","
","
","""event"",""trial"",""time""
""fullscreenenter"",""0"",""3151""
","
","734.5","<div class='center'><p>Good job! You’re now ready to move on to the real game! Remember this game will be difficult but don't get discouraged and try your best!</p><p><b>[Press the space bar to continue]</b></p></div>","32","","","","","","","","","","","","","","","","","","","","","","",""
"","do_welcome","87","428760","0.0-53.0-0.0","""event"",""trial"",""time""
""fullscreenenter"",""0"",""3151""
","
","
","""event"",""trial"",""time""
""fullscreenenter"",""0"",""3151""
","
","null","","","","","","","","null","","","","","","","","","","","","","","","","",""
"","do_trial","88","434181","0.0-54.0-0.0","""event"",""trial"",""time""
""fullscreenenter"",""0"",""3151""
","
","
","""event"",""trial"",""time""
""fullscreenenter"",""0"",""3151""
","
","866.8999999985099","","","","","","","","49","1,0,0","0","city","0","probe-221","0.6","0.3","0.1","1","","","","","","","",""
"","html-keyboard-response","89","435190","0.0-54.0-1.0","""event"",""trial"",""time""
""fullscreenenter"",""0"",""3151""
","
","
","""event"",""trial"",""time""
""fullscreenenter"",""0"",""3151""
","
","null","<p></p>","null","","","","","","","","","","","","","","","","","","","","","","",""
"","do_trial","90","440180","0.0-55.0-0.0","""event"",""trial"",""time""
""fullscreenenter"",""0"",""3151""
","
","
","""event"",""trial"",""time""
""fullscreenenter"",""0"",""3151""
","
","436.80000000074506","","","","","","","","49","1,0,0","0","city","1","probe-47","0.6208086130355636","0.42953812648473816","0.1091829703323267","1","","","","","","","",""
"","html-keyboard-response","91","441188","0.0-55.0-1.0","""event"",""trial"",""time""
""fullscreenenter"",""0"",""3151""
","
","
","""event"",""trial"",""time""
""fullscreenenter"",""0"",""3151""
","
","null","<p></p>","null","","","","","","","","","","","","","","","","","","","","","","",""
"","do_trial","92","445971","0.0-56.0-0.0","""event"",""trial"",""time""
""fullscreenenter"",""0"",""3151""
","
","
","""event"",""trial"",""time""
""fullscreenenter"",""0"",""3151""
","
","234.19999999925494","","","","","","","","49","0,0,0","0","city","2","probe-127","0.6869442523745033","0.4430856049249134","0.09611402483223092","0","","","","","","","",""
"","html-keyboard-response","93","446978","0.0-56.0-1.0","""event"",""trial"",""time""
""fullscreenenter"",""0"",""3151""
","
","
","""event"",""trial"",""time""
""fullscreenenter"",""0"",""3151""
","
","null","<p></p>","null","","","","","","","","","","","","","","","","","","","","","","",""
"","do_trial","94","451752","0.0-57.0-0.0","""event"",""trial"",""time""
""fullscreenenter"",""0"",""3151""
","
","
","""event"",""trial"",""time""
""fullscreenenter"",""0"",""3151""
","
","227.19999999925494","","","","","","","","49","1,1,0","0","city","3","probe-07","0.6928403991388293","0.3509399965977424","0.12300399888651925","1","","","","","","","",""
"","html-keyboard-response","95","452759","0.0-57.0-1.0","""event"",""trial"",""time""
""fullscreenenter"",""0"",""3151""
","
","
","""event"",""trial"",""time""
""fullscreenenter"",""0"",""3151""
","
","null","<p></p>","null","","","","","","","","","","","","","","","","","","","","","","",""
"","do_trial","96","457541","0.0-58.0-0.0","""event"",""trial"",""time""
""fullscreenenter"",""0"",""3151""
","
","
","""event"",""trial"",""time""
""fullscreenenter"",""0"",""3151""
","
","233.89999999850988","","","","","","","","49","0,0,0","0","city","4","probe-191","0.49688991856958814","0.2766506410341983","0.18835856719443062","0","","","","","","","",""
"","html-keyboard-response","97","458548","0.0-58.0-1.0","""event"",""trial"",""time""
""fullscreenenter"",""0"",""3151""
","
","
","""event"",""trial"",""time""
""fullscreenenter"",""0"",""3151""
","
","null","<p></p>","null","","","","","","","","","","","","","","","","","","","","","","",""
"","do_trial","98","463345","0.0-59.0-0.0","""event"",""trial"",""time""
""fullscreenenter"",""0"",""3151""
","
","
","""event"",""trial"",""time""
""fullscreenenter"",""0"",""3151""
","
","241.19999999925494","","","","","","","","50","0,1,0","0","city","5","probe-37","0.6093254668013632","0.2930439890947204","0.17567739556886466","1","","","","","","","",""
"","html-keyboard-response","99","464352","0.0-59.0-1.0","""event"",""trial"",""time""
""fullscreenenter"",""0"",""3151""
","
","
","""event"",""trial"",""time""
""fullscreenenter"",""0"",""3151""
","
","null","<p></p>","null","","","","","","","","","","","","","","","","","","","","","","",""
"","do_trial","100","469202","0.0-60.0-0.0","""event"",""trial"",""time""
""fullscreenenter"",""0"",""3151""
","
","
","""event"",""trial"",""time""
""fullscreenenter"",""0"",""3151""
","
","304.19999999925494","","","","","","","","50","0,1,0","0","city","6","probe-95","0.5758243650039551","0.30164679184460963","0.15683020603694106","1","","","","","","","",""
"","html-keyboard-response","101","470210","0.0-60.0-1.0","""event"",""trial"",""time""
""fullscreenenter"",""0"",""3151""
","
","
","""event"",""trial"",""time""
""fullscreenenter"",""0"",""3151""
","
","null","<p></p>","null","","","","","","","","","","","","","","","","","","","","","","",""
"","do_trial","102","475000","0.0-61.0-0.0","""event"",""trial"",""time""
""fullscreenenter"",""0"",""3151""
","
","
","""event"",""trial"",""time""
""fullscreenenter"",""0"",""3151""
","
","241.30000000074506","","","","","","","","50","1,0,0","0","city","7","probe-100","0.6631566505626336","0.34220467478404265","0.08058195934731792","0","","","","","","","",""
"","html-keyboard-response","103","476008","0.0-61.0-1.0","""event"",""trial"",""time""
""fullscreenenter"",""0"",""3151""
","
","
","""event"",""trial"",""time""
""fullscreenenter"",""0"",""3151""
","
","null","<p></p>","null","","","","","","","","","","","","","","","","","","","","","","",""
"","do_trial","104","480626","0.0-62.0-0.0","""event"",""trial"",""time""
""fullscreenenter"",""0"",""3151""
","
","
","""event"",""trial"",""time""
""fullscreenenter"",""0"",""3151""
","
","66.59999999776483","","","","","","","","50","1,0,0","0","city","8","probe-197","0.6200489090586505","0.344400518071102","0.1514590118209811","0","","","","","","","",""
"","html-keyboard-response","105","481634","0.0-62.0-1.0","""event"",""trial"",""time""
""fullscreenenter"",""0"",""3151""
","
","
","""event"",""trial"",""time""
""fullscreenenter"",""0"",""3151""
","
","null","<p></p>","null","","","","","","","","","","","","","","","","","","","","","","",""
"","do_trial","106","486291","0.0-63.0-0.0","""event"",""trial"",""time""
""fullscreenenter"",""0"",""3151""
","
","
","""event"",""trial"",""time""
""fullscreenenter"",""0"",""3151""
","
","99.5","","","","","","","","51","1,1,0","0","city","9","probe-175","0.540621754721233","0.42144340247849443","0.12742296765730746","0","","","","","","","",""
"","html-keyboard-response","107","487298","0.0-63.0-1.0","""event"",""trial"",""time""
""fullscreenenter"",""0"",""3151""
","
","
","""event"",""trial"",""time""
""fullscreenenter"",""0"",""3151""
","
","null","<p></p>","null","","","","","","","","","","","","","","","","","","","","","","",""
"","do_trial","108","492084","0.0-64.0-0.0","""event"",""trial"",""time""
""fullscreenenter"",""0"",""3151""
","
","
","""event"",""trial"",""time""
""fullscreenenter"",""0"",""3151""
","
","229.30000000074506","","","","","","","","51","1,1,0","0","city","10","probe-27","0.44912479184950627","0.3653751003770069","0.05894816409194603","0","","","","","","","",""
"","html-keyboard-response","109","493091","0.0-64.0-1.0","""event"",""trial"",""time""
""fullscreenenter"",""0"",""3151""
","
","
","""event"",""trial"",""time""
""fullscreenenter"",""0"",""3151""
","
","null","<p></p>","null","","","","","","","","","","","","","","","","","","","","","","",""
"","do_trial","110","497787","0.0-65.0-0.0","""event"",""trial"",""time""
""fullscreenenter"",""0"",""3151""
","
","
","""event"",""trial"",""time""
""fullscreenenter"",""0"",""3151""
","
","145.5","","","","","","","","51","1,1,0","0","city","11","probe-74","0.45103831688212637","0.3111437154070303","0.053214114792575665","0","","","","","","","",""
"","html-keyboard-response","111","498792","0.0-65.0-1.0","""event"",""trial"",""time""
""fullscreenenter"",""0"",""3151""
","
","
","""event"",""trial"",""time""
""fullscreenenter"",""0"",""3151""
","
","null","<p></p>","null","","","","","","","","","","","","","","","","","","","","","","",""
"","do_trial","112","503558","0.0-66.0-0.0","""event"",""trial"",""time""
""fullscreenenter"",""0"",""3151""
","
","
","""event"",""trial"",""time""
""fullscreenenter"",""0"",""3151""
","
","211.19999999925494","","","","","","","","51","0,1,0","0","city","12","probe-214","0.4983108024144579","0.4708157230162867","0.22058015161521866","0","","","","","","","",""
"","html-keyboard-response","113","504565","0.0-66.0-1.0","""event"",""trial"",""time""
""fullscreenenter"",""0"",""3151""
","
","
","""event"",""trial"",""time""
""fullscreenenter"",""0"",""3151""
","
","null","<p></p>","null","","","","","","","","","","","","","","","","","","","","","","",""
"","do_trial","114","509496","0.0-67.0-0.0","""event"",""trial"",""time""
""fullscreenenter"",""0"",""3151""
","
","
","""event"",""trial"",""time""
""fullscreenenter"",""0"",""3151""
","
","375.3999999985099","","","","","","","","49","1,1,0","0","city","13","probe-171","0.4680006777249164","0.49676682600099326","0.2381493520758098","1","","","","","","","",""
"","html-keyboard-response","115","510504","0.0-67.0-1.0","""event"",""trial"",""time""
""fullscreenenter"",""0"",""3151""
","
","
","""event"",""trial"",""time""
""fullscreenenter"",""0"",""3151""
","
","null","<p></p>","null","","","","","","","","","","","","","","","","","","","","","","",""
"","do_trial","116","515325","0.0-68.0-0.0","""event"",""trial"",""time""
""fullscreenenter"",""0"",""3151""
","
","
","""event"",""trial"",""time""
""fullscreenenter"",""0"",""3151""
","
","268.30000000074506","","","","","","","","49","0,0,0","0","city","14","probe-28","0.362889918480264","0.4223422536227899","0.19728043984647797","0","","","","","","","",""
"","html-keyboard-response","117","516333","0.0-68.0-1.0","""event"",""trial"",""time""
""fullscreenenter"",""0"",""3151""
","
","
","""event"",""trial"",""time""
""fullscreenenter"",""0"",""3151""
","
","null","<p></p>","null","","","","","","","","","","","","","","","","","","","","","","",""
"","do_trial","118","521168","0.0-69.0-0.0","""event"",""trial"",""time""
""fullscreenenter"",""0"",""3151""
","
","
","""event"",""trial"",""time""
""fullscreenenter"",""0"",""3151""
","
","277.3999999985099","","","","","","","","49","1,1,0","0","city","15","probe-23","0.5105091670072883","0.5296979940065655","0.11663708848206014","1","","","","","","","",""
"","html-keyboard-response","119","522175","0.0-69.0-1.0","""event"",""trial"",""time""
""fullscreenenter"",""0"",""3151""
","
","
","""event"",""trial"",""time""
""fullscreenenter"",""0"",""3151""
","
","null","<p></p>","null","","","","","","","","","","","","","","","","","","","","","","",""
"","do_trial","120","527410","0.0-70.0-0.0","""event"",""trial"",""time""
""fullscreenenter"",""0"",""3151""
","
","
","""event"",""trial"",""time""
""fullscreenenter"",""0"",""3151""
","
","691.3000000007451","","","","","","","","50","1,1,0","0","city","16","probe-87","0.5934040113539543","0.39630853132226096","0.05894776612012601","1","","","","","","","",""
"","html-keyboard-response","121","528418","0.0-70.0-1.0","""event"",""trial"",""time""
""fullscreenenter"",""0"",""3151""
","
","
","""event"",""trial"",""time""
""fullscreenenter"",""0"",""3151""
","
","null","<p></p>","null","","","","","","","","","","","","","","","","","","","","","","",""
"","do_trial","122","533239","0.0-71.0-0.0","""event"",""trial"",""time""
""fullscreenenter"",""0"",""3151""
","
","
","""event"",""trial"",""time""
""fullscreenenter"",""0"",""3151""
","
","264.6000000014901","","","","","","","","49","1,0,0","0","city","17","probe-208","0.6332486954769821","0.24966485274333444","0.10598835579308463","1","","","","","","","",""
"","html-keyboard-response","123","534247","0.0-71.0-1.0","""event"",""trial"",""time""
""fullscreenenter"",""0"",""3151""
","
","
","""event"",""trial"",""time""
""fullscreenenter"",""0"",""3151""
","
","null","<p></p>","null","","","","","","","","","","","","","","","","","","","","","","",""
"","do_trial","124","539080","0.0-72.0-0.0","""event"",""trial"",""time""
""fullscreenenter"",""0"",""3151""
","
","
","""event"",""trial"",""time""
""fullscreenenter"",""0"",""3151""
","
","281.30000000074506","","","","","","","","49","0,0,0","0","city","18","probe-210","0.6506109236076687","0.2910458424648136","0.14001489806165776","0","","","","","","","",""
"","html-keyboard-response","125","540085","0.0-72.0-1.0","""event"",""trial"",""time""
""fullscreenenter"",""0"",""3151""
","
","
","""event"",""trial"",""time""
""fullscreenenter"",""0"",""3151""
","
","null","<p></p>","null","","","","","","","","","","","","","","","","","","","","","","",""
"","do_trial","126","544757","0.0-73.0-0.0","""event"",""trial"",""time""
""fullscreenenter"",""0"",""3151""
","
","
","""event"",""trial"",""time""
""fullscreenenter"",""0"",""3151""
","
","115.19999999925494","","","","","","","","50","1,0,1","0","city","19","probe-192","0.6299902132136114","0.181166185668019","0.14882706413908703","0","","","","","","","",""
"","html-keyboard-response","127","545759","0.0-73.0-1.0","""event"",""trial"",""time""
""fullscreenenter"",""0"",""3151""
","
","
","""event"",""trial"",""time""
""fullscreenenter"",""0"",""3151""
","
","null","<p></p>","null","","","","","","","","","","","","","","","","","","","","","","",""
"","do_trial","128","550405","0.0-74.0-0.0","""event"",""trial"",""time""
""fullscreenenter"",""0"",""3151""
","
","
","""event"",""trial"",""time""
""fullscreenenter"",""0"",""3151""
","
","82.19999999925494","","","","","","","","49","1,1,0","0","city","20","probe-26","0.655625808758532","0.2916527330786895","0.261416527826201","1","","","","","","","",""
"","html-keyboard-response","129","551412","0.0-74.0-1.0","""event"",""trial"",""time""
""fullscreenenter"",""0"",""3151""
","
","
","""event"",""trial"",""time""
""fullscreenenter"",""0"",""3151""
","
","null","<p></p>","null","","","","","","","","","","","","","","","","","","","","","","",""
"","do_trial","130","556094","0.0-75.0-0.0","""event"",""trial"",""time""
""fullscreenenter"",""0"",""3151""
","
","
","""event"",""trial"",""time""
""fullscreenenter"",""0"",""3151""
","
","120.80000000074506","","","","","","","","50","1,0,0","0","city","21","probe-109","0.6172199578704827","0.2615630708859538","0.06548233764628143","0","","","","","","","",""
"","html-keyboard-response","131","557096","0.0-75.0-1.0","""event"",""trial"",""time""
""fullscreenenter"",""0"",""3151""
","
","
","""event"",""trial"",""time""
""fullscreenenter"",""0"",""3151""
","
","null","<p></p>","null","","","","","","","","","","","","","","","","","","","","","","",""
"","do_trial","132","561813","0.0-76.0-0.0","""event"",""trial"",""time""
""fullscreenenter"",""0"",""3151""
","
","
","""event"",""trial"",""time""
""fullscreenenter"",""0"",""3151""
","
","155.19999999925494","","","","","","","","49","0,0,0","0","city","22","probe-18","0.5405352477993404","0.17824477640797312","0.0631330775337868","0","","","","","","","",""
"","html-keyboard-response","133","562820","0.0-76.0-1.0","""event"",""trial"",""time""
""fullscreenenter"",""0"",""3151""
","
","
","""event"",""trial"",""time""
""fullscreenenter"",""0"",""3151""
","
","null","<p></p>","null","","","","","","","","","","","","","","","","","","","","","","",""
"","do_trial","134","567729","0.0-77.0-0.0","""event"",""trial"",""time""
""fullscreenenter"",""0"",""3151""
","
","
","""event"",""trial"",""time""
""fullscreenenter"",""0"",""3151""
","
","361.69999999925494","","","","","","","","49","0,1,0","0","city","23","probe-195","0.5667690197416058","0.28645963114237555","0.1676202406658011","0","","","","","","","",""
"","html-keyboard-response","135","568737","0.0-77.0-1.0","""event"",""trial"",""time""
""fullscreenenter"",""0"",""3151""
","
","
","""event"",""trial"",""time""
""fullscreenenter"",""0"",""3151""
","
","null","<p></p>","null","","","","","","","","","","","","","","","","","","","","","","",""
"","do_trial","136","573367","0.0-78.0-0.0","""event"",""trial"",""time""
""fullscreenenter"",""0"",""3151""
","
","
","""event"",""trial"",""time""
""fullscreenenter"",""0"",""3151""
","
","75.80000000074506","","","","","","","","50","1,1,0","0","city","24","probe-77","0.6421942438789876","0.24719183935205005","0.3187230016188442","1","","","","","","","",""
"","html-keyboard-response","137","574374","0.0-78.0-1.0","""event"",""trial"",""time""
""fullscreenenter"",""0"",""3151""
","
","
","""event"",""trial"",""time""
""fullscreenenter"",""0"",""3151""
","
","null","<p></p>","null","","","","","","","","","","","","","","","","","","","","","","",""
"","do_trial","138","579375","0.0-79.0-0.0","""event"",""trial"",""time""
""fullscreenenter"",""0"",""3151""
","
","
","""event"",""trial"",""time""
""fullscreenenter"",""0"",""3151""
","
","444.9000000022352","","","","","","","","50","1,1,0","0","city","25","probe-173","0.6872310192124436","0.3242953150603858","0.31418556303998946","1","","","","","","","",""
"","html-keyboard-response","139","580380","0.0-79.0-1.0","""event"",""trial"",""time""
""fullscreenenter"",""0"",""3151""
","
","
","""event"",""trial"",""time""
""fullscreenenter"",""0"",""3151""
","
","null","<p></p>","null","","","","","","","","","","","","","","","","","","","","","","",""
"","do_trial","140","585323","0.0-80.0-0.0","""event"",""trial"",""time""
""fullscreenenter"",""0"",""3151""
","
","
","""event"",""trial"",""time""
""fullscreenenter"",""0"",""3151""
","
","391.9000000022352","","","","","","","","49","0,1,0","0","city","26","probe-162","0.558309729915226","0.35429545699964005","0.17204637818648036","0","","","","","","","",""
"","html-keyboard-response","141","586330","0.0-80.0-1.0","""event"",""trial"",""time""
""fullscreenenter"",""0"",""3151""
","
","
","""event"",""trial"",""time""
""fullscreenenter"",""0"",""3151""
","
","null","<p></p>","null","","","","","","","","","","","","","","","","","","","","","","",""
"","do_trial","142","591039","0.0-81.0-0.0","""event"",""trial"",""time""
""fullscreenenter"",""0"",""3151""
","
","
","""event"",""trial"",""time""
""fullscreenenter"",""0"",""3151""
","
","158.80000000074506","","","","","","","","51","1,0,1","0","city","27","probe-67","0.5046099476934819","0.24094027699906911","0.19113836685468422","1","","","","","","","",""
"","html-keyboard-response","143","592046","0.0-81.0-1.0","""event"",""trial"",""time""
""fullscreenenter"",""0"",""3151""
","
","
","""event"",""trial"",""time""
""fullscreenenter"",""0"",""3151""
","
","null","<p></p>","null","","","","","","","","","","","","","","","","","","","","","","",""
"","do_trial","144","597028","0.0-82.0-0.0","""event"",""trial"",""time""
""fullscreenenter"",""0"",""3151""
","
","
","""event"",""trial"",""time""
""fullscreenenter"",""0"",""3151""
","
","430.9000000022352","","","","","","","","50","1,0,0","0","city","28","probe-57","0.6905402109938971","0.41402023577963326","0.1855334858136789","0","","","","","","","",""
"","html-keyboard-response","145","598035","0.0-82.0-1.0","""event"",""trial"",""time""
""fullscreenenter"",""0"",""3151""
","
","
","""event"",""trial"",""time""
""fullscreenenter"",""0"",""3151""
","
","null","<p></p>","null","","","","","","","","","","","","","","","","","","","","","","",""
"","do_trial","146","602894","0.0-83.0-0.0","""event"",""trial"",""time""
""fullscreenenter"",""0"",""3151""
","
","
","""event"",""trial"",""time""
""fullscreenenter"",""0"",""3151""
","
","312.6000000014901","","","","","","","","51","0,1,0","0","city","29","probe-172","0.727270647002692","0.3810146709013523","0.1061981834138061","0","","","","","","","",""
"","html-keyboard-response","147","603901","0.0-83.0-1.0","""event"",""trial"",""time""
""fullscreenenter"",""0"",""3151""
","
","
","""event"",""trial"",""time""
""fullscreenenter"",""0"",""3151""
","
","null","<p></p>","null","","","","","","","","","","","","","","","","","","","","","","",""
"","do_bye","148","605413","0.0-84.0-0.0","""event"",""trial"",""time""
""fullscreenenter"",""0"",""3151""
","
","
","""event"",""trial"",""time""
""fullscreenenter"",""0"",""3151""
","
","null","","","","","","","","null","","","","","","","","","","","","","","","","",""
"","break","149","608055","0.0-84.0-1.0","""event"",""trial"",""time""
""fullscreenenter"",""0"",""3151""
","
","
","""event"",""trial"",""time""
""fullscreenenter"",""0"",""3151""
","
","2639.89999999851","<div class='center'><p>Time to take a quick break! You have 2 minutes to rest, but you can move on sooner if you'd like.</p><p> Press the <b>space bar</b> to continue.</p></div>","32","","","","","","","","","","","","","","","","","","","","","","",""
"","do_travel","150","617064","0.0-85.0-0.0","""event"",""trial"",""time""
""fullscreenenter"",""0"",""3151""
","
","
","""event"",""trial"",""time""
""fullscreenenter"",""0"",""3151""
","
","null","","","","","","","","null","","","","","","","","","","","","","","","","",""
"","do_welcome","151","621077","0.0-85.0-1.0","""event"",""trial"",""time""
""fullscreenenter"",""0"",""3151""
","
","
","""event"",""trial"",""time""
""fullscreenenter"",""0"",""3151""
","
","null","","","","","","","","null","","","","","","","","","","","","","","","","",""
"","do_trial","152","628563","0.0-86.0-0.0","""event"",""trial"",""time""
""fullscreenenter"",""0"",""3151""
","
","
","""event"",""trial"",""time""
""fullscreenenter"",""0"",""3151""
","
","2927.89999999851","","","","","","","","49","1,0,1","1","forest","30","probe-211","1","0.48069075414969015","0.19121909290714809","1","","","","","","","",""
"","html-keyboard-response","153","629570","0.0-86.0-1.0","""event"",""trial"",""time""
""fullscreenenter"",""0"",""3151""
","
","
","""event"",""trial"",""time""
""fullscreenenter"",""0"",""3151""
","
","null","<p></p>","null","","","","","","","","","","","","","","","","","","","","","","",""
"","do_trial","154","637048","0.0-87.0-0.0","""event"",""trial"",""time""
""fullscreenenter"",""0"",""3151""
","
","
","""event"",""trial"",""time""
""fullscreenenter"",""0"",""3151""
","
","2928.5","","","","","","","","49","1,0,0","1","forest","31","probe-167","1","0.34520276795262583","0.24684794386734346","1","","","","","","","",""
"","html-keyboard-response","155","638055","0.0-87.0-1.0","""event"",""trial"",""time""
""fullscreenenter"",""0"",""3151""
","
","
","""event"",""trial"",""time""
""fullscreenenter"",""0"",""3151""
","
","null","<p></p>","null","","","","","","","","","","","","","","","","","","","","","","",""
"","do_trial","156","642645","0.0-88.0-0.0","""event"",""trial"",""time""
""fullscreenenter"",""0"",""3151""
","
","
","""event"",""trial"",""time""
""fullscreenenter"",""0"",""3151""
","
","33.30000000074506","","","","","","","","50","1,0,0","1","forest","32","probe-227","1","0.3272545471336186","0.07909300531971221","0","","","","","","","",""
"","html-keyboard-response","157","643650","0.0-88.0-1.0","""event"",""trial"",""time""
""fullscreenenter"",""0"",""3151""
","
","
","""event"",""trial"",""time""
""fullscreenenter"",""0"",""3151""
","
","null","<p></p>","null","","","","","","","","","","","","","","","","","","","","","","",""
"","do_trial","158","648445","0.0-89.0-0.0","""event"",""trial"",""time""
""fullscreenenter"",""0"",""3151""
","
","
","""event"",""trial"",""time""
""fullscreenenter"",""0"",""3151""
","
","236.19999999925494","","","","","","","","49","1,0,0","1","forest","33","probe-33","0.8747317768881392","0.16091587416199496","0.252838639573901","1","","","","","","","",""
"","html-keyboard-response","159","649452","0.0-89.0-1.0","""event"",""trial"",""time""
""fullscreenenter"",""0"",""3151""
","
","
","""event"",""trial"",""time""
""fullscreenenter"",""0"",""3151""
","
","null","<p></p>","null","","","","","","","","","","","","","","","","","","","","","","",""
"","do_trial","160","654343","0.0-90.0-0.0","""event"",""trial"",""time""
""fullscreenenter"",""0"",""3151""
","
","
","""event"",""trial"",""time""
""fullscreenenter"",""0"",""3151""
","
","338.0999999977648","","","","","","","","49","1,0,1","1","forest","34","probe-17","0.7767232814626798","0.17873069007135273","0.3437177617508034","1","","","","","","","",""
"","html-keyboard-response","161","655351","0.0-90.0-1.0","""event"",""trial"",""time""
""fullscreenenter"",""0"",""3151""
","
","
","""event"",""trial"",""time""
""fullscreenenter"",""0"",""3151""
","
","null","<p></p>","null","","","","","","","","","","","","","","","","","","","","","","",""
"","do_trial","162","660280","0.0-91.0-0.0","""event"",""trial"",""time""
""fullscreenenter"",""0"",""3151""
","
","
","""event"",""trial"",""time""
""fullscreenenter"",""0"",""3151""
","
","375.5","","","","","","","","49","1,0,0","1","forest","35","probe-97","0.7957467491857699","0.21809962594319604","0.16218989414047355","1","","","","","","","",""
"","html-keyboard-response","163","661287","0.0-91.0-1.0","""event"",""trial"",""time""
""fullscreenenter"",""0"",""3151""
","
","
","""event"",""trial"",""time""
""fullscreenenter"",""0"",""3151""
","
","null","<p></p>","null","","","","","","","","","","","","","","","","","","","","","","",""
"","do_trial","164","666016","0.0-92.0-0.0","""event"",""trial"",""time""
""fullscreenenter"",""0"",""3151""
","
","
","""event"",""trial"",""time""
""fullscreenenter"",""0"",""3151""
","
","184","","","","","","","","49","1,0,0","1","forest","36","probe-146","0.819265058729163","0.15245268373881962","0.07249242735076236","1","","","","","","","",""
"","html-keyboard-response","165","667024","0.0-92.0-1.0","""event"",""trial"",""time""
""fullscreenenter"",""0"",""3151""
","
","
","""event"",""trial"",""time""
""fullscreenenter"",""0"",""3151""
","
","null","<p></p>","null","","","","","","","","","","","","","","","","","","","","","","",""
"","do_trial","166","672281","0.0-93.0-0.0","""event"",""trial"",""time""
""fullscreenenter"",""0"",""3151""
","
","
","""event"",""trial"",""time""
""fullscreenenter"",""0"",""3151""
","
","701.0999999977648","","","","","","","","49","1,1,0","1","forest","37","probe-159","0.7296892077676965","0.3299150903700995","0.06551169881958885","1","","","","","","","",""
"","html-keyboard-response","167","673288","0.0-93.0-1.0","""event"",""trial"",""time""
""fullscreenenter"",""0"",""3151""
","
","
","""event"",""trial"",""time""
""fullscreenenter"",""0"",""3151""
","
","null","<p></p>","null","","","","","","","","","","","","","","","","","","","","","","",""
"","do_trial","168","677892","0.0-94.0-0.0","""event"",""trial"",""time""
""fullscreenenter"",""0"",""3151""
","
","
","""event"",""trial"",""time""
""fullscreenenter"",""0"",""3151""
","
","54.70000000298023","","","","","","","","49","1,0,1","1","forest","38","probe-30","0.74492899463975","0.2665819391745429","0.12503626308587093","1","","","","","","","",""
"","html-keyboard-response","169","678896","0.0-94.0-1.0","""event"",""trial"",""time""
""fullscreenenter"",""0"",""3151""
","
","
","""event"",""trial"",""time""
""fullscreenenter"",""0"",""3151""
","
","null","<p></p>","null","","","","","","","","","","","","","","","","","","","","","","",""
"","do_trial","170","684635","0.0-95.0-0.0","""event"",""trial"",""time""
""fullscreenenter"",""0"",""3151""
","
","
","""event"",""trial"",""time""
""fullscreenenter"",""0"",""3151""
","
","1187.6000000014901","","","","","","","","49","1,0,0","1","forest","39","probe-117","0.5475293028755782","0.3102059883932225","0.08964982437005822","1","","","","","","","",""
"","html-keyboard-response","171","685643","0.0-95.0-1.0","""event"",""trial"",""time""
""fullscreenenter"",""0"",""3151""
","
","
","""event"",""trial"",""time""
""fullscreenenter"",""0"",""3151""
","
","null","<p></p>","null","","","","","","","","","","","","","","","","","","","","","","",""
"","do_trial","172","690714","0.0-96.0-0.0","""event"",""trial"",""time""
""fullscreenenter"",""0"",""3151""
","
","
","""event"",""trial"",""time""
""fullscreenenter"",""0"",""3151""
","
","520.8000000007451","","","","","","","","49","0,1,0","1","forest","40","probe-220","0.6317581076193386","0.31815216701507043","0.22502416346918586","0","","","","","","","",""
"","html-keyboard-response","173","691719","0.0-96.0-1.0","""event"",""trial"",""time""
""fullscreenenter"",""0"",""3151""
","
","
","""event"",""trial"",""time""
""fullscreenenter"",""0"",""3151""
","
","null","<p></p>","null","","","","","","","","","","","","","","","","","","","","","","",""
"","do_trial","174","696511","0.0-97.0-0.0","""event"",""trial"",""time""
""fullscreenenter"",""0"",""3151""
","
","
","""event"",""trial"",""time""
""fullscreenenter"",""0"",""3151""
","
","236.19999999925494","","","","","","","","51","1,1,0","1","forest","41","probe-39","0.5973005250495315","0.22248337872436083","0.19427701995627422","0","","","","","","","",""
"","html-keyboard-response","175","697515","0.0-97.0-1.0","""event"",""trial"",""time""
""fullscreenenter"",""0"",""3151""
","
","
","""event"",""trial"",""time""
""fullscreenenter"",""0"",""3151""
","
","null","<p></p>","null","","","","","","","","","","","","","","","","","","","","","","",""
"","do_trial","176","702464","0.0-98.0-0.0","""event"",""trial"",""time""
""fullscreenenter"",""0"",""3151""
","
","
","""event"",""trial"",""time""
""fullscreenenter"",""0"",""3151""
","
","391.69999999925494","","","","","","","","51","0,0,0","1","forest","42","probe-129","0.5482219318517624","0.05729572987323769","0.3097138413220632","0","","","","","","","",""
"","html-keyboard-response","177","703468","0.0-98.0-1.0","""event"",""trial"",""time""
""fullscreenenter"",""0"",""3151""
","
","
","""event"",""trial"",""time""
""fullscreenenter"",""0"",""3151""
","
","null","<p></p>","null","","","","","","","","","","","","","","","","","","","","","","",""
"","do_trial","178","708158","0.0-99.0-0.0","""event"",""trial"",""time""
""fullscreenenter"",""0"",""3151""
","
","
","""event"",""trial"",""time""
""fullscreenenter"",""0"",""3151""
","
","143.60000000149012","","","","","","","","50","0,0,1","1","forest","43","probe-139","0.4289356219515886","0.05207048008062403","0.2825728106924684","0","","","","","","","",""
"","html-keyboard-response","179","709165","0.0-99.0-1.0","""event"",""trial"",""time""
""fullscreenenter"",""0"",""3151""
","
","
","""event"",""trial"",""time""
""fullscreenenter"",""0"",""3151""
","
","null","<p></p>","null","","","","","","","","","","","","","","","","","","","","","","",""
"","do_trial","180","713866","0.0-100.0-0.0","""event"",""trial"",""time""
""fullscreenenter"",""0"",""3151""
","
","
","""event"",""trial"",""time""
""fullscreenenter"",""0"",""3151""
","
","143.30000000074506","","","","","","","","49","0,0,1","1","forest","44","probe-110","0.3411262231770349","0.05743179769784067","0.4086272264095746","0","","","","","","","",""
"","html-keyboard-response","181","714873","0.0-100.0-1.0","""event"",""trial"",""time""
""fullscreenenter"",""0"",""3151""
","
","
","""event"",""trial"",""time""
""fullscreenenter"",""0"",""3151""
","
","null","<p></p>","null","","","","","","","","","","","","","","","","","","","","","","",""
"","do_trial","182","719454","0.0-101.0-0.0","""event"",""trial"",""time""
""fullscreenenter"",""0"",""3151""
","
","
","""event"",""trial"",""time""
""fullscreenenter"",""0"",""3151""
","
","34.80000000074506","","","","","","","","49","0,0,1","1","forest","45","probe-189","0.3128737402296878","0.05846248641660934","0.5897261068480331","0","","","","","","","",""
"","html-keyboard-response","183","720462","0.0-101.0-1.0","""event"",""trial"",""time""
""fullscreenenter"",""0"",""3151""
","
","
","""event"",""trial"",""time""
""fullscreenenter"",""0"",""3151""
","
","null","<p></p>","null","","","","","","","","","","","","","","","","","","","","","","",""
"","do_trial","184","725197","0.0-102.0-0.0","""event"",""trial"",""time""
""fullscreenenter"",""0"",""3151""
","
","
","""event"",""trial"",""time""
""fullscreenenter"",""0"",""3151""
","
","178.5","","","","","","","","49","1,0,0","1","forest","46","probe-35","0.19735666160569004","0.07044625083931096","0.7687707284597098","1","","","","","","","",""
"","html-keyboard-response","185","726205","0.0-102.0-1.0","""event"",""trial"",""time""
""fullscreenenter"",""0"",""3151""
","
","
","""event"",""trial"",""time""
""fullscreenenter"",""0"",""3151""
","
","null","<p></p>","null","","","","","","","","","","","","","","","","","","","","","","",""
"","do_trial","186","731040","0.0-103.0-0.0","""event"",""trial"",""time""
""fullscreenenter"",""0"",""3151""
","
","
","""event"",""trial"",""time""
""fullscreenenter"",""0"",""3151""
","
","276.19999999925494","","","","","","","","49","0,0,0","1","forest","47","probe-42","0.27677314827124727","0.11283557905076758","0.6587806575748456","0","","","","","","","",""
"","html-keyboard-response","187","732046","0.0-103.0-1.0","""event"",""trial"",""time""
""fullscreenenter"",""0"",""3151""
","
","
","""event"",""trial"",""time""
""fullscreenenter"",""0"",""3151""
","
","null","<p></p>","null","","","","","","","","","","","","","","","","","","","","","","",""
"","do_trial","188","736769","0.0-104.0-0.0","""event"",""trial"",""time""
""fullscreenenter"",""0"",""3151""
","
","
","""event"",""trial"",""time""
""fullscreenenter"",""0"",""3151""
","
","167.89999999850988","","","","","","","","49","0,1,0","1","forest","48","probe-49","0.24644376792979317","0.06558499681432756","0.6216569525190156","0","","","","","","","",""
"","html-keyboard-response","189","737777","0.0-104.0-1.0","""event"",""trial"",""time""
""fullscreenenter"",""0"",""3151""
","
","
","""event"",""trial"",""time""
""fullscreenenter"",""0"",""3151""
","
","null","<p></p>","null","","","","","","","","","","","","","","","","","","","","","","",""
"","do_trial","190","742454","0.0-105.0-0.0","""event"",""trial"",""time""
""fullscreenenter"",""0"",""3151""
","
","
","""event"",""trial"",""time""
""fullscreenenter"",""0"",""3151""
","
","125.30000000074506","","","","","","","","50","1,0,0","1","forest","49","probe-137","0.29007221816074574","0.10461515909406245","0.5648657298960992","0","","","","","","","",""
"","html-keyboard-response","191","743461","0.0-105.0-1.0","""event"",""trial"",""time""
""fullscreenenter"",""0"",""3151""
","
","
","""event"",""trial"",""time""
""fullscreenenter"",""0"",""3151""
","
","null","<p></p>","null","","","","","","","","","","","","","","","","","","","","","","",""
"","do_trial","192","748014","0.0-106.0-0.0","""event"",""trial"",""time""
""fullscreenenter"",""0"",""3151""
","
","
","""event"",""trial"",""time""
""fullscreenenter"",""0"",""3151""
","
","0.30000000074505806","","","","","","","","50","1,0,1","1","forest","50","probe-218","0.3681592842876686","0.11851468490244838","0.632249721402733","0","","","","","","","",""
"","html-keyboard-response","193","749021","0.0-106.0-1.0","""event"",""trial"",""time""
""fullscreenenter"",""0"",""3151""
","
","
","""event"",""trial"",""time""
""fullscreenenter"",""0"",""3151""
","
","null","<p></p>","null","","","","","","","","","","","","","","","","","","","","","","",""
"","do_trial","194","753582","0.0-107.0-0.0","""event"",""trial"",""time""
""fullscreenenter"",""0"",""3151""
","
","
","""event"",""trial"",""time""
""fullscreenenter"",""0"",""3151""
","
","15.5","","","","","","","","51","0,0,1","1","forest","51","probe-01","0.32164992738032744","0.11386480567543743","0.5793515158339198","1","","","","","","","",""
"","html-keyboard-response","195","754585","0.0-107.0-1.0","""event"",""trial"",""time""
""fullscreenenter"",""0"",""3151""
","
","
","""event"",""trial"",""time""
""fullscreenenter"",""0"",""3151""
","
","null","<p></p>","null","","","","","","","","","","","","","","","","","","","","","","",""
"","do_trial","196","759628","0.0-108.0-0.0","""event"",""trial"",""time""
""fullscreenenter"",""0"",""3151""
","
","
","""event"",""trial"",""time""
""fullscreenenter"",""0"",""3151""
","
","487.30000000074506","","","","","","","","51","0,0,1","1","forest","52","probe-144","0.2980216124694112","0.06504024076327151","0.576366628959341","1","","","","","","","",""
"","html-keyboard-response","197","760632","0.0-108.0-1.0","""event"",""trial"",""time""
""fullscreenenter"",""0"",""3151""
","
","
","""event"",""trial"",""time""
""fullscreenenter"",""0"",""3151""
","
","null","<p></p>","null","","","","","","","","","","","","","","","","","","","","","","",""
"","do_trial","198","765329","0.0-109.0-0.0","""event"",""trial"",""time""
""fullscreenenter"",""0"",""3151""
","
","
","""event"",""trial"",""time""
""fullscreenenter"",""0"",""3151""
","
","142","","","","","","","","51","1,0,1","1","forest","53","probe-142","0.3701710388141729","0.08189613451068822","0.5370200472855642","1","","","","","","","",""
"","html-keyboard-response","199","766333","0.0-109.0-1.0","""event"",""trial"",""time""
""fullscreenenter"",""0"",""3151""
","
","
","""event"",""trial"",""time""
""fullscreenenter"",""0"",""3151""
","
","null","<p></p>","null","","","","","","","","","","","","","","","","","","","","","","",""
"","do_trial","200","771175","0.0-110.0-0.0","""event"",""trial"",""time""
""fullscreenenter"",""0"",""3151""
","
","
","""event"",""trial"",""time""
""fullscreenenter"",""0"",""3151""
","
","286.3999999985099","","","","","","","","51","1,1,0","1","forest","54","probe-45","0.3676373176481836","0.2410491218635061","0.5920265572073463","0","","","","","","","",""
"","html-keyboard-response","201","772182","0.0-110.0-1.0","""event"",""trial"",""time""
""fullscreenenter"",""0"",""3151""
","
","
","""event"",""trial"",""time""
""fullscreenenter"",""0"",""3151""
","
","null","<p></p>","null","","","","","","","","","","","","","","","","","","","","","","",""
"","do_trial","202","777079","0.0-111.0-0.0","""event"",""trial"",""time""
""fullscreenenter"",""0"",""3151""
","
","
","""event"",""trial"",""time""
""fullscreenenter"",""0"",""3151""
","
","346.19999999925494","","","","","","","","49","1,0,0","1","forest","55","probe-122","0.391882155545301","0.17789439931624845","0.5634477619738613","1","","","","","","","",""
"","html-keyboard-response","203","778086","0.0-111.0-1.0","""event"",""trial"",""time""
""fullscreenenter"",""0"",""3151""
","
","
","""event"",""trial"",""time""
""fullscreenenter"",""0"",""3151""
","
","null","<p></p>","null","","","","","","","","","","","","","","","","","","","","","","",""
"","do_trial","204","782926","0.0-112.0-0.0","""event"",""trial"",""time""
""fullscreenenter"",""0"",""3151""
","
","
","""event"",""trial"",""time""
""fullscreenenter"",""0"",""3151""
","
","277","","","","","","","","49","0,0,1","1","forest","56","probe-180","0.3311009805217392","0.10884341361993849","0.6271985494096126","0","","","","","","","",""
"","html-keyboard-response","205","783933","0.0-112.0-1.0","""event"",""trial"",""time""
""fullscreenenter"",""0"",""3151""
","
","
","""event"",""trial"",""time""
""fullscreenenter"",""0"",""3151""
","
","null","<p></p>","null","","","","","","","","","","","","","","","","","","","","","","",""
"","do_trial","206","788793","0.0-113.0-0.0","""event"",""trial"",""time""
""fullscreenenter"",""0"",""3151""
","
","
","""event"",""trial"",""time""
""fullscreenenter"",""0"",""3151""
","
","303.5","","","","","","","","50","1,0,0","1","forest","57","probe-215","0.3179984587370026","0.16083642881421611","0.639176191310943","0","","","","","","","",""
"","html-keyboard-response","207","789798","0.0-113.0-1.0","""event"",""trial"",""time""
""fullscreenenter"",""0"",""3151""
","
","
","""event"",""trial"",""time""
""fullscreenenter"",""0"",""3151""
","
","null","<p></p>","null","","","","","","","","","","","","","","","","","","","","","","",""
"","do_trial","208","794666","0.0-114.0-0.0","""event"",""trial"",""time""
""fullscreenenter"",""0"",""3151""
","
","
","""event"",""trial"",""time""
""fullscreenenter"",""0"",""3151""
","
","310.1000000014901","","","","","","","","51","0,0,1","1","forest","58","probe-178","0.3308625673825858","0.1515958833262846","0.5980664287595119","1","","","","","","","",""
"","html-keyboard-response","209","795671","0.0-114.0-1.0","""event"",""trial"",""time""
""fullscreenenter"",""0"",""3151""
","
","
","""event"",""trial"",""time""
""fullscreenenter"",""0"",""3151""
","
","null","<p></p>","null","","","","","","","","","","","","","","","","","","","","","","",""
"","do_trial","210","800367","0.0-115.0-0.0","""event"",""trial"",""time""
""fullscreenenter"",""0"",""3151""
","
","
","""event"",""trial"",""time""
""fullscreenenter"",""0"",""3151""
","
","151.60000000149012","","","","","","","","51","0,0,1","1","forest","59","probe-13","0.35443781893264387","0.21953089105423926","0.5465574974734715","1","","","","","","","",""
"","html-keyboard-response","211","801374","0.0-115.0-1.0","""event"",""trial"",""time""
""fullscreenenter"",""0"",""3151""
","
","
","""event"",""trial"",""time""
""fullscreenenter"",""0"",""3151""
","
","null","<p></p>","null","","","","","","","","","","","","","","","","","","","","","","",""
"","do_trial","212","806509","0.0-116.0-0.0","""event"",""trial"",""time""
""fullscreenenter"",""0"",""3151""
","
","
","""event"",""trial"",""time""
""fullscreenenter"",""0"",""3151""
","
","591","","","","","","","","51","0,0,1","1","forest","60","probe-186","0.33681428788412915","0.22630424637778512","0.6995653364899858","1","","","","","","","",""
"","html-keyboard-response","213","807513","0.0-116.0-1.0","""event"",""trial"",""time""
""fullscreenenter"",""0"",""3151""
","
","
","""event"",""trial"",""time""
""fullscreenenter"",""0"",""3151""
","
","null","<p></p>","null","","","","","","","","","","","","","","","","","","","","","","",""
"","do_trial","214","812603","0.0-117.0-0.0","""event"",""trial"",""time""
""fullscreenenter"",""0"",""3151""
","
","
","""event"",""trial"",""time""
""fullscreenenter"",""0"",""3151""
","
","535.5","","","","","","","","51","0,0,1","1","forest","61","probe-222","0.18311196043089642","0.08128051647255805","0.6050458513783887","1","","","","","","","",""
"","html-keyboard-response","215","813610","0.0-117.0-1.0","""event"",""trial"",""time""
""fullscreenenter"",""0"",""3151""
","
","
","""event"",""trial"",""time""
""fullscreenenter"",""0"",""3151""
","
","null","<p></p>","null","","","","","","","","","","","","","","","","","","","","","","",""
"","do_trial","216","818730","0.0-118.0-0.0","""event"",""trial"",""time""
""fullscreenenter"",""0"",""3151""
","
","
","""event"",""trial"",""time""
""fullscreenenter"",""0"",""3151""
","
","567.2999999970198","","","","","","","","51","1,0,1","1","forest","62","probe-161","0.2583613815964555","0.07136107888252706","0.5862004154590295","1","","","","","","","",""
"","html-keyboard-response","217","819737","0.0-118.0-1.0","""event"",""trial"",""time""
""fullscreenenter"",""0"",""3151""
","
","
","""event"",""trial"",""time""
""fullscreenenter"",""0"",""3151""
","
","null","<p></p>","null","","","","","","","","","","","","","","","","","","","","","","",""
"","do_trial","218","824656","0.0-119.0-0.0","""event"",""trial"",""time""
""fullscreenenter"",""0"",""3151""
","
","
","""event"",""trial"",""time""
""fullscreenenter"",""0"",""3151""
","
","371.1000000014901","","","","","","","","51","1,0,0","1","forest","63","probe-148","0.18227475870141185","0.11987222800424423","0.47408039712714023","0","","","","","","","",""
"","html-keyboard-response","219","825663","0.0-119.0-1.0","""event"",""trial"",""time""
""fullscreenenter"",""0"",""3151""
","
","
","""event"",""trial"",""time""
""fullscreenenter"",""0"",""3151""
","
","null","<p></p>","null","","","","","","","","","","","","","","","","","","","","","","",""
"","do_trial","220","831120","0.0-120.0-0.0","""event"",""trial"",""time""
""fullscreenenter"",""0"",""3151""
","
","
","""event"",""trial"",""time""
""fullscreenenter"",""0"",""3151""
","
","908.3000000007451","","","","","","","","51","0,0,1","1","forest","64","probe-166","0.330336740045687","0.07322462151204166","0.3679879302551977","1","","","","","","","",""
"","html-keyboard-response","221","832124","0.0-120.0-1.0","""event"",""trial"",""time""
""fullscreenenter"",""0"",""3151""
","
","
","""event"",""trial"",""time""
""fullscreenenter"",""0"",""3151""
","
","null","<p></p>","null","","","","","","","","","","","","","","","","","","","","","","",""
"","do_trial","222","836982","0.0-121.0-0.0","""event"",""trial"",""time""
""fullscreenenter"",""0"",""3151""
","
","
","""event"",""trial"",""time""
""fullscreenenter"",""0"",""3151""
","
","311.69999999925494","","","","","","","","51","0,0,1","1","forest","65","probe-108","0.2996736412733742","0.15746497664372924","0.46029189874491927","1","","","","","","","",""
"","html-keyboard-response","223","837987","0.0-121.0-1.0","""event"",""trial"",""time""
""fullscreenenter"",""0"",""3151""
","
","
","""event"",""trial"",""time""
""fullscreenenter"",""0"",""3151""
","
","null","<p></p>","null","","","","","","","","","","","","","","","","","","","","","","",""
"","do_trial","224","842570","0.0-122.0-0.0","""event"",""trial"",""time""
""fullscreenenter"",""0"",""3151""
","
","
","""event"",""trial"",""time""
""fullscreenenter"",""0"",""3151""
","
","26.299999997019768","","","","","","","","51","1,0,1","1","forest","66","probe-107","0.3911917612615682","0.18935002801570724","0.4189124501957197","1","","","","","","","",""
"","html-keyboard-response","225","843578","0.0-122.0-1.0","""event"",""trial"",""time""
""fullscreenenter"",""0"",""3151""
","
","
","""event"",""trial"",""time""
""fullscreenenter"",""0"",""3151""
","
","null","<p></p>","null","","","","","","","","","","","","","","","","","","","","","","",""
"","do_trial","226","848402","0.0-123.0-0.0","""event"",""trial"",""time""
""fullscreenenter"",""0"",""3151""
","
","
","""event"",""trial"",""time""
""fullscreenenter"",""0"",""3151""
","
","274.5","","","","","","","","51","1,0,0","1","forest","67","probe-82","0.2953745889318663","0.05313179253296484","0.49836997114295506","0","","","","","","","",""
"","html-keyboard-response","227","849410","0.0-123.0-1.0","""event"",""trial"",""time""
""fullscreenenter"",""0"",""3151""
","
","
","""event"",""trial"",""time""
""fullscreenenter"",""0"",""3151""
","
","null","<p></p>","null","","","","","","","","","","","","","","","","","","","","","","",""
"","do_trial","228","854144","0.0-124.0-0.0","""event"",""trial"",""time""
""fullscreenenter"",""0"",""3151""
","
","
","""event"",""trial"",""time""
""fullscreenenter"",""0"",""3151""
","
","176.60000000149012","","","","","","","","51","0,0,0","1","forest","68","probe-140","0.3376008209035172","0.11634367624923625","0.48956679364622313","0","","","","","","","",""
"","html-keyboard-response","229","855152","0.0-124.0-1.0","""event"",""trial"",""time""
""fullscreenenter"",""0"",""3151""
","
","
","""event"",""trial"",""time""
""fullscreenenter"",""0"",""3151""
","
","null","<p></p>","null","","","","","","","","","","","","","","","","","","","","","","",""
"","do_trial","230","860012","0.0-125.0-0.0","""event"",""trial"",""time""
""fullscreenenter"",""0"",""3151""
","
","
","""event"",""trial"",""time""
""fullscreenenter"",""0"",""3151""
","
","304.30000000074506","","","","","","","","50","1,0,0","1","forest","69","probe-44","0.2590474638775598","0.07475806628099115","0.6336408492811388","0","","","","","","","",""
"","html-keyboard-response","231","861020","0.0-125.0-1.0","""event"",""trial"",""time""
""fullscreenenter"",""0"",""3151""
","
","
","""event"",""trial"",""time""
""fullscreenenter"",""0"",""3151""
","
","null","<p></p>","null","","","","","","","","","","","","","","","","","","","","","","",""
"","do_bye","232","862529","0.0-126.0-0.0","""event"",""trial"",""time""
""fullscreenenter"",""0"",""3151""
","
","
","""event"",""trial"",""time""
""fullscreenenter"",""0"",""3151""
","
","null","","","","","","","","null","","","","","","","","","","","","","","","","",""
"","break","233","863566","0.0-126.0-1.0","""event"",""trial"",""time""
""fullscreenenter"",""0"",""3151""
","
","
","""event"",""trial"",""time""
""fullscreenenter"",""0"",""3151""
","
","1035","<div class='center'><p>Time to take a quick break! You have 2 minutes to rest, but you can move on sooner if you'd like.</p><p> Press the <b>space bar</b> to continue.</p></div>","32","","","","","","","","","","","","","","","","","","","","","","",""
"","do_travel","234","872577","0.0-127.0-0.0","""event"",""trial"",""time""
""fullscreenenter"",""0"",""3151""
","
","
","""event"",""trial"",""time""
""fullscreenenter"",""0"",""3151""
","
","null","","","","","","","","null","","","","","","","","","","","","","","","","",""
"","do_welcome","235","876592","0.0-127.0-1.0","""event"",""trial"",""time""
""fullscreenenter"",""0"",""3151""
","
","
","""event"",""trial"",""time""
""fullscreenenter"",""0"",""3151""
","
","null","","","","","","","","null","","","","","","","","","","","","","","","","",""
"","do_trial","236","882647","0.0-128.0-0.0","""event"",""trial"",""time""
""fullscreenenter"",""0"",""3151""
","
","
","""event"",""trial"",""time""
""fullscreenenter"",""0"",""3151""
","
","null","","","","","","","","null","0,0,1","2","coast","70","probe-163","0.3881866266316095","0.07367709858867444","1","","","","","","","","",""
"","html-keyboard-response","237","883650","0.0-128.0-1.0","""event"",""trial"",""time""
""fullscreenenter"",""0"",""3151""
","
","
","""event"",""trial"",""time""
""fullscreenenter"",""0"",""3151""
","
","null","<p></p>","null","","","","","","","","","","","","","","","","","","","","","","",""
"","do_trial","238","890194","0.0-129.0-0.0","""event"",""trial"",""time""
""fullscreenenter"",""0"",""3151""
","
","
","""event"",""trial"",""time""
""fullscreenenter"",""0"",""3151""
","
","1988.0999999977648","","","","","","","","50","0,1,1","2","coast","71","probe-115","0.2792230554182483","0.0588060172462032","1","1","","","","","","","",""
"","html-keyboard-response","239","891201","0.0-129.0-1.0","""event"",""trial"",""time""
""fullscreenenter"",""0"",""3151""
","
","
","""event"",""trial"",""time""
""fullscreenenter"",""0"",""3151""
","
","null","<p></p>","null","","","","","","","","","","","","","","","","","","","","","","",""
"","do_trial","240","896152","0.0-130.0-0.0","""event"",""trial"",""time""
""fullscreenenter"",""0"",""3151""
","
","
","""event"",""trial"",""time""
""fullscreenenter"",""0"",""3151""
","
","396","","","","","","","","49","0,0,1","2","coast","72","probe-193","0.41605211736259107","0.07201295577985703","0.7724653322554871","0","","","","","","","",""
"","html-keyboard-response","241","897160","0.0-130.0-1.0","""event"",""trial"",""time""
""fullscreenenter"",""0"",""3151""
","
","
","""event"",""trial"",""time""
""fullscreenenter"",""0"",""3151""
","
","null","<p></p>","null","","","","","","","","","","","","","","","","","","","","","","",""
"","do_trial","242","902186","0.0-131.0-0.0","""event"",""trial"",""time""
""fullscreenenter"",""0"",""3151""
","
","
","""event"",""trial"",""time""
""fullscreenenter"",""0"",""3151""
","
","471.30000000074506","","","","","","","","51","0,0,1","2","coast","73","probe-79","0.470418895947178","0.08720627576613212","0.5476961214870519","1","","","","","","","",""
"","html-keyboard-response","243","903194","0.0-131.0-1.0","""event"",""trial"",""time""
""fullscreenenter"",""0"",""3151""
","
","
","""event"",""trial"",""time""
""fullscreenenter"",""0"",""3151""
","
","null","<p></p>","null","","","","","","","","","","","","","","","","","","","","","","",""
"","do_trial","244","908072","0.0-132.0-0.0","""event"",""trial"",""time""
""fullscreenenter"",""0"",""3151""
","
","
","""event"",""trial"",""time""
""fullscreenenter"",""0"",""3151""
","
","331","","","","","","","","51","1,0,0","2","coast","74","probe-101","0.5664668410636428","0.19811590988724223","0.5688813625984331","0","","","","","","","",""
"","html-keyboard-response","245","909076","0.0-132.0-1.0","""event"",""trial"",""time""
""fullscreenenter"",""0"",""3151""
","
","
","""event"",""trial"",""time""
""fullscreenenter"",""0"",""3151""
","
","null","<p></p>","null","","","","","","","","","","","","","","","","","","","","","","",""
"","do_trial","246","913879","0.0-133.0-0.0","""event"",""trial"",""time""
""fullscreenenter"",""0"",""3151""
","
","
","""event"",""trial"",""time""
""fullscreenenter"",""0"",""3151""
","
","273.3999999985099","","","","","","","","50","0,0,0","2","coast","75","probe-134","0.38170678952867443","0.09768616875673733","0.6505897273342771","0","","","","","","","",""
"","html-keyboard-response","247","914887","0.0-133.0-1.0","""event"",""trial"",""time""
""fullscreenenter"",""0"",""3151""
","
","
","""event"",""trial"",""time""
""fullscreenenter"",""0"",""3151""
","
","null","<p></p>","null","","","","","","","","","","","","","","","","","","","","","","",""
"","do_trial","248","919802","0.0-134.0-0.0","""event"",""trial"",""time""
""fullscreenenter"",""0"",""3151""
","
","
","""event"",""trial"",""time""
""fullscreenenter"",""0"",""3151""
","
","358.69999999925494","","","","","","","","49","1,0,1","2","coast","76","probe-88","0.34157754676477387","0.15877422501146435","0.7094053273052817","1","","","","","","","",""
"","html-keyboard-response","249","920810","0.0-134.0-1.0","""event"",""trial"",""time""
""fullscreenenter"",""0"",""3151""
","
","
","""event"",""trial"",""time""
""fullscreenenter"",""0"",""3151""
","
","null","<p></p>","null","","","","","","","","","","","","","","","","","","","","","","",""
"","do_trial","250","925729","0.0-135.0-0.0","""event"",""trial"",""time""
""fullscreenenter"",""0"",""3151""
","
","
","""event"",""trial"",""time""
""fullscreenenter"",""0"",""3151""
","
","367.3999999985099","","","","","","","","49","0,0,1","2","coast","77","probe-80","0.34347236904126377","0.1019432724870901","0.7710382833902973","0","","","","","","","",""
"","html-keyboard-response","251","926732","0.0-135.0-1.0","""event"",""trial"",""time""
""fullscreenenter"",""0"",""3151""
","
","
","""event"",""trial"",""time""
""fullscreenenter"",""0"",""3151""
","
","null","<p></p>","null","","","","","","","","","","","","","","","","","","","","","","",""
"","do_trial","252","931721","0.0-136.0-0.0","""event"",""trial"",""time""
""fullscreenenter"",""0"",""3151""
","
","
","""event"",""trial"",""time""
""fullscreenenter"",""0"",""3151""
","
","431.30000000074506","","","","","","","","49","1,0,1","2","coast","78","probe-143","0.3211208543554075","0.10367391247715738","0.6349108275399789","1","","","","","","","",""
"","html-keyboard-response","253","932729","0.0-136.0-1.0","""event"",""trial"",""time""
""fullscreenenter"",""0"",""3151""
","
","
","""event"",""trial"",""time""
""fullscreenenter"",""0"",""3151""
","
","null","<p></p>","null","","","","","","","","","","","","","","","","","","","","","","",""
"","do_trial","254","937486","0.0-137.0-0.0","""event"",""trial"",""time""
""fullscreenenter"",""0"",""3151""
","
","
","""event"",""trial"",""time""
""fullscreenenter"",""0"",""3151""
","
","208.69999999925494","","","","","","","","49","1,0,1","2","coast","79","probe-213","0.40609582146281803","0.13752309697319187","0.6201030737691476","1","","","","","","","",""
"","html-keyboard-response","255","938494","0.0-137.0-1.0","""event"",""trial"",""time""
""fullscreenenter"",""0"",""3151""
","
","
","""event"",""trial"",""time""
""fullscreenenter"",""0"",""3151""
","
","null","<p></p>","null","","","","","","","","","","","","","","","","","","","","","","",""
"","do_trial","256","944169","0.0-138.0-0.0","""event"",""trial"",""time""
""fullscreenenter"",""0"",""3151""
","
","
","""event"",""trial"",""time""
""fullscreenenter"",""0"",""3151""
","
","1129.5","","","","","","","","49","1,0,1","2","coast","80","probe-131","0.3177016502927728","0.05781213691295333","0.725639464374644","1","","","","","","","",""
"","html-keyboard-response","257","945176","0.0-138.0-1.0","""event"",""trial"",""time""
""fullscreenenter"",""0"",""3151""
","
","
","""event"",""trial"",""time""
""fullscreenenter"",""0"",""3151""
","
","null","<p></p>","null","","","","","","","","","","","","","","","","","","","","","","",""
"","do_trial","258","951242","0.0-139.0-0.0","""event"",""trial"",""time""
""fullscreenenter"",""0"",""3151""
","
","
","""event"",""trial"",""time""
""fullscreenenter"",""0"",""3151""
","
","null","","","","","","","","null","0,0,1","2","coast","81","probe-73","0.21932435253105792","0.25004774471197727","0.740105056524424","","","","","","","","",""
"","html-keyboard-response","259","952250","0.0-139.0-1.0","""event"",""trial"",""time""
""fullscreenenter"",""0"",""3151""
","
","
","""event"",""trial"",""time""
""fullscreenenter"",""0"",""3151""
","
","null","<p></p>","null","","","","","","","","","","","","","","","","","","","","","","",""
"","do_trial","260","959385","0.0-140.0-0.0","""event"",""trial"",""time""
""fullscreenenter"",""0"",""3151""
","
","
","""event"",""trial"",""time""
""fullscreenenter"",""0"",""3151""
","
","2577.5","","","","","","","","50","0,0,0","2","coast","82","probe-62","0.4362097363016113","0.12273571240146676","0.5809835233565395","0","","","","","","","",""
"","html-keyboard-response","261","960393","0.0-140.0-1.0","""event"",""trial"",""time""
""fullscreenenter"",""0"",""3151""
","
","
","""event"",""trial"",""time""
""fullscreenenter"",""0"",""3151""
","
","null","<p></p>","null","","","","","","","","","","","","","","","","","","","","","","",""
"","do_trial","262","965329","0.0-141.0-0.0","""event"",""trial"",""time""
