"success","trial_type","trial_index","time_elapsed","internal_node_id","rt","stimulus","key_press","subject_id","response","choice_outcomes","context_n","context_img_id","trial_n","probe_img_id","pR_red","pR_white","pR_black","outcome","is_valid","image_to_show","probed_trial","probed_context","correct","context_id"
"true","fullscreen","0","5231","0.0-0.0","","","","","","","","","","","","","","","","","","","",""
"","pavlovia","1","5235","0.0-1.0","","","","","","","","","","","","","","","","","","","",""
"","html-keyboard-response","2","36834","0.0-2.0","31595.900000095367","<div class='center'><p>Welcome! This experiment will last ~1 hour. In this experiment, you are the head captain of a pirate ship traveling around the world to different places. You will complete several different tasks during this experiment. Here is an overview of these tasks:</p><br><p>1. Tutorial and quiz</p><p>2. Pick a pirate game in 6 different places</p><p>3. Pick a pirate game and memory game</p><p>4. Final questions and payment</p><br><p>If you complete the entire experiment, you will receive $15 and a possible bonus payment.</p><p><b>[Press the space bar to begin the tutorial]</b></p></div>","32","61078eb7c1cb553ff86ee9d1","","","","","","","","","","","","","","","",""
"","html-keyboard-response","3","88323","0.0-3.0","51485","<div class='center'><p>You are the head captain of a pirate ship.</p><p> Your pirates rob other ships as they leave the marketplace port.</p> These ships have just sold all their goods at the marketplace, so they have lots and lots of gold on them.</p><p><img src='run_exp/static/images/ship_center.png' height='400'></p><p><b>[Press the space bar to continue]</b></p></div>","32","","","","","","","","","","","","","","","","",""
"","html-keyboard-response","4","112808","0.0-4.0","24483","<div class='center'><p>As the head captain, you do not have to rob any ships yourself.</p><p>You get to choose which pirate you want to rob the next ship. </p><p>If they are successful at robbing the ship, then you will get gold coins.</p><p> If they are not successful, then you will get no gold coins.</p><p> The more coins you collect, the more bonus money you will win. So, choose your pirate wisely.</p><p><img src='run_exp/static/images/goal.png' height='400'></p><p><b>[Press the space bar to continue]</b></p><div>","32","","","","","","","","","","","","","","","","",""
"","html-keyboard-response","5","134004","0.0-5.0","21193.299999952316","<div class='center'><p>Even the most skilled pirate will not be able to rob EVERY ship.</p><p> Some ships will have very strong defenses against attacks.</p><p> For example, blue beard, here,  is very good at robbing ships.</p><p> You can press the <b>‘1’</b> button on the keyboard to choose him.</p><p> Try choosing him 10 times to see how often he is successful at robbing ships. </p><p><img src='run_exp/static/images/blue.png' height='500'></p></div>","49","","","","","","","","","","","","","","","","",""
"","html-keyboard-response","6","135509","0.0-6.0","null","<br><br><br><br><p><img src='run_exp/static/images/blue_win.png' height='500'></p>","null","","","","","","","","","","","","","","","","",""
"","html-keyboard-response","7","138365","0.0-7.0","2852.100000143051","<br><br><br><br><p><img src='run_exp/static/images/blue.png' height='500'></p>","49","","","","","","","","","","","","","","","","",""
"","html-keyboard-response","8","139872","0.0-8.0","null","<br><br><br><br><p><img src='run_exp/static/images/blue_win.png' height='500'></p>","null","","","","","","","","","","","","","","","","",""
"","html-keyboard-response","9","142145","0.0-9.0","2270.5","<br><br><br><br><p><img src='run_exp/static/images/blue.png' height='500'></p>","49","","","","","","","","","","","","","","","","",""
"","html-keyboard-response","10","143658","0.0-10.0","null","<br><br><br><br><p><img src='run_exp/static/images/blue_win.png' height='500'></p>","null","","","","","","","","","","","","","","","","",""
"","html-keyboard-response","11","144932","0.0-11.0","1271.6000001430511","<br><br><br><br><p><img src='run_exp/static/images/blue.png' height='500'></p>","49","","","","","","","","","","","","","","","","",""
"","html-keyboard-response","12","146445","0.0-12.0","null","<br><br><br><br><p><img src='run_exp/static/images/blue_no_win.png' height='500'></p>","null","","","","","","","","","","","","","","","","",""
"","html-keyboard-response","13","148192","0.0-13.0","1744.3999998569489","<br><br><br><br><p><img src='run_exp/static/images/blue.png' height='500'></p>","49","","","","","","","","","","","","","","","","",""
"","html-keyboard-response","14","149707","0.0-14.0","null","<br><br><br><br><p><img src='run_exp/static/images/blue_win.png' height='500'></p>","null","","","","","","","","","","","","","","","","",""
"","html-keyboard-response","15","152098","0.0-15.0","2388.0999999046326","<br><br><br><br><p><img src='run_exp/static/images/blue.png' height='500'></p>","49","","","","","","","","","","","","","","","","",""
"","html-keyboard-response","16","153610","0.0-16.0","null","<br><br><br><br><p><img src='run_exp/static/images/blue_win.png' height='500'></p>","null","","","","","","","","","","","","","","","","",""
"","html-keyboard-response","17","154650","0.0-17.0","1037.5999999046326","<br><br><br><br><p><img src='run_exp/static/images/blue.png' height='500'></p>","49","","","","","","","","","","","","","","","","",""
"","html-keyboard-response","18","156153","0.0-18.0","null","<br><br><br><br><p><img src='run_exp/static/images/blue_win.png' height='500'></p>","null","","","","","","","","","","","","","","","","",""
"","html-keyboard-response","19","156928","0.0-19.0","773.2000000476837","<br><br><br><br><p><img src='run_exp/static/images/blue.png' height='500'></p>","49","","","","","","","","","","","","","","","","",""
"","html-keyboard-response","20","158432","0.0-20.0","null","<br><br><br><br><p><img src='run_exp/static/images/blue_no_win.png' height='500'></p>","null","","","","","","","","","","","","","","","","",""
"","html-keyboard-response","21","159034","0.0-21.0","600.5","<br><br><br><br><p><img src='run_exp/static/images/blue.png' height='500'></p>","49","","","","","","","","","","","","","","","","",""
"","html-keyboard-response","22","160541","0.0-22.0","null","<br><br><br><br><p><img src='run_exp/static/images/blue_win.png' height='500'></p>","null","","","","","","","","","","","","","","","","",""
"","html-keyboard-response","23","160957","0.0-23.0","414.09999990463257","<br><br><br><br><p><img src='run_exp/static/images/blue.png' height='500'></p>","49","","","","","","","","","","","","","","","","",""
"","html-keyboard-response","24","162467","0.0-24.0","null","<br><br><br><br><p><img src='run_exp/static/images/blue_win.png' height='500'></p>","null","","","","","","","","","","","","","","","","",""
"","html-keyboard-response","25","167749","0.0-25.0","5280.299999952316","<div class='center'><p> See, he was successful at robbing the ships most of the time but not every time. </p><p><b>[Press the space bar to continue]</b></p></div>","32","","","","","","","","","","","","","","","","",""
"","html-keyboard-response","26","187311","0.0-26.0","19558.200000047684","<div class='center'><p>In the game, you will get to choose which of three pirates you want to rob the next ship. <p>Press the <b>‘1’</b> button on your keyboard to pick the pirate with the red beard.</p><p> Press <b>‘2’</b> to pick the pirate with the white beard.</p><p> Press <b>‘3’</b> to pick the pirate with the black beard.</p><p>Try picking a pirate now!</p><p><img src='run_exp/static/images/all_pirates.png' height='500'></p></div>","49","","","","","","","","","","","","","","","","",""
"","html-keyboard-response","27","192290","0.0-27.0-0.0","4973.299999952316","<div class='center'><p>This pirate was successful at robbing the ship!</p><p><img src='run_exp/static/images/red_win.png' height='500'></p><p><b>[Press the space bar to continue]</b></p></div>","32","","","","","","","","","","","","","","","","",""
"","html-keyboard-response","28","198698","0.0-27.0-1.0","6405.100000143051","<div class='center'><p>Now try choosing another</p><p><img src='run_exp/static/images/all_pirates.png' height='500'></p></div>","50","","","","","","","","","","","","","","","","",""
"","html-keyboard-response","29","201195","0.0-28.0-0.0","2492","<div class='center'><p>This pirate was not successful at robbing the ship!</p><p><img src='run_exp/static/images/white_no_win.png' height='500'></p><p><b>[Press the space bar to continue]</b></p></div>","32","","","","","","","","","","","","","","","","",""
"","html-keyboard-response","30","221657","0.0-29.0-0.0","20459.299999952316","<div class='center'><p>You’ll stop at these 6 places on your journey.</p><p><img src='run_exp/static/images/all_contexts.png' height='500'></p><p><b>[Press the space bar to continue]</b></p></div>","32","","","","","","","","","","","","","","","","",""
"","html-keyboard-response","31","232330","0.0-29.0-1.0","10671.5","<div class='center'><p>How good a pirate is at robbing ships will depend on the current place.</p><p> Some pirates will have been to the place before, and will have more experience robbing ships there.</p><p>So, they will be more successful at stealing gold and bringing it back to you.</p><p><b>[Press the space bar to continue]</b></p></div>","32","","","","","","","","","","","","","","","","",""
"","html-keyboard-response","32","249436","0.0-29.0-2.0","17104","<div class='center'><p>How successful a pirate is at robbing ships can also change in a place.<p> Ships may hear about the pirates coming and will improve their defenses. This may make it more difficult to rob them.</p><p> Ships may also grow lazy and lower their defenses. This may make it easier to rob them.</p><br><p>Things are always changing on the high seas! So, try your best to pay attention!</p><p><img src='run_exp/static/images/contingency.png' height='500'></p><p><b>[Press the space bar to continue]</b></p></div>","32","","","","","","","","","","","","","","","","",""
"","html-keyboard-response","33","296178","0.0-29.0-3.0","46739","<div class='center'><p>Once you choose a pirate to rob a ship, you’ll be shown the ship they are robbing.</p><p>The ship will have a picture of the item they sold at the marketplace.</p><p> Try your best to remember the ship and where you saw the ship.</p><p> You’ll have to remember this for later, and remembering this correctly will help you win more bonus money!</p><p>You can remember the ship by remembering the item they sold at the marketplace</p><p>A helpful strategy is to try to come up with a story of the chosen pirate and ship’s item interacting with the scene.</p><p> For example, a ship might have sold travel mugs and you could imagine red beard walking through the city with a travel mug. </p><p>Or imagine an apple falling from a tree into white beard's hands in the forest.</p><p><img src='run_exp/static/images/example_probe.png' height='500'></p><p><b>[Press the space bar to continue]</b></p></div>","32","","","","","","","","","","","","","","","","",""
"","html-keyboard-response","34","305275","0.0-29.0-4.0","9094.200000047684","<div class='center'><p>If you don’t make your choice fast enough, you’ll have to wait a few seconds before you can make another one. </p><p>You can’t win more gold. You just have to sit and wait.</p><p><img src='run_exp/static/images/hurry_up.png' height='500'></p><p><b>[Press the space bar to continue]</b></p></div>","32","","","","","","","","","","","","","","","","",""
"","html-keyboard-response","35","394751","0.0-29.0-5.0","89473.79999995232","<div class='center'><p>Again, you have two important things to do: </p><b><p> 1. Pick the pirate who you think will be most successful at robbing the next ship.</p></b><b><p> 2. Remember where a pirate robbed a ship.</p> </b><p>Both are important in determining how much bonus money you’ll win.</p><br><p>Let’s try a practice game. The game will start by showing you the pirates. First pick a pirate using the <b> 1, 2, 3 </b> buttons on your keyboard. When you are shown a ship, try to remember the place you’re in by making up a story.</p><p> You only have 3 seconds to pick a pirate, so please make a choice quickly! If you are too slow, you’ll have to wait a bit during the time out.</p><p> Don’t feel rushed, but please do try to make a choice every time.</p><p>How good a pirate is at robbing a ship will change depending on the place they are in and how good the defenses are of the ship.</p> <p>This is just a practice game, so you’re not playing for money. </p><p>You’ll receive a bag which may or may not contain gold coins.</p><p> In the real game, though, you’ll be able to see whether or not you received the gold coins.</p><p> Good luck, remember press <b>'1'</b> to choose red beard, <b>'2'</b> to choose white beard, and <b>'3'</b> to choose black beard</p><p><b>[Press the space bar to begin the practice game]</b></p></div>","32","","","","","","","","","","","","","","","","",""
"","do_trial_prac","36","401166","0.0-29.0-6.0","1883","","","","49","","","","","","","","","","","","","","",""
"","do_trial_prac","37","407188","0.0-29.0-7.0","null","","","","null","","","","","","","","","","","","","","",""
"","do_trial_prac","38","413058","0.0-29.0-8.0","1345.6000001430511","","","","49","","","","","","","","","","","","","","",""
"","do_trial_prac","39","420399","0.0-29.0-9.0","2826.199999809265","","","","51","","","","","","","","","","","","","","",""
"","do_trial_prac","40","426654","0.0-29.0-10.0","1736.6999998092651","","","","50","","","","","","","","","","","","","","",""
"","html-keyboard-response","41","436622","0.0-29.0-11.0","9965.5","<div class='center'><p>Great job on the practice game!</p><p> Now, you will be asked you some true or false questions to make sure you really understand the rules of the game.</p><p> Press <b>'1'</b> on the keyboard for true and press <b>'2'</b> for false.</p><p><b>[Press the space bar to begin the quiz]</b></p></div>","32","","","","","","","","","","","","","","","","",""
"","html-keyboard-response","42","458838","0.0-29.0-12.0","22213.5","<div class='center'><p>You win bonus money by making choices as fast as possible.</p><p>Press 1 for true and press  2 for false.</p></div>","49","","","","","","","","","","","","","","","","",""
"","html-keyboard-response","43","463143","0.0-30.0-0.0","4301.199999809265","<br><br><br><br><p>That’s incorrect! You win bonus money by collecting as many gold coins as possible!</p><p><b>[press the space bar to continue with the quiz]</b></p>","32","","","","","","","","","","","","","","","","",""
"","html-keyboard-response","44","471749","0.0-30.0-1.0","8604.099999904633","<div class='center'><p>You press the <b>‘3’</b> button on the keyboard to choose the red bearded pirate? </p><p>Press 1 for true and press  2 for false.</p></div>","50","","","","","","","","","","","","","","","","",""
"","html-keyboard-response","45","474441","0.0-31.0-0.0","2689","<br><br><br><br><p>That's correct!</p> <p><b>[press the space bar to continue with the quiz]</b></p>","32","","","","","","","","","","","","","","","","",""
"","html-keyboard-response","46","481663","0.0-31.0-1.0","7221","<div class='center'><p>A pirate will always be equally successful at robbing ships in each place</p><p>Press 1 for true and press  2 for false.</p></div>","50","","","","","","","","","","","","","","","","",""
"","html-keyboard-response","47","482977","0.0-32.0-0.0","1311.4000000953674","<br><br><br><br><p>That's correct!</p> <p><b>[press the space bar to continue with the quiz]</b></p>","32","","","","","","","","","","","","","","","","",""
"","html-keyboard-response","48","487597","0.0-32.0-1.0","4618","<div class='center'><p>You should remember the place where a pirate robbed a ship.</p><p>Press 1 for true and press  2 for false.</p></div>","49","","","","","","","","","","","","","","","","",""
"","html-keyboard-response","49","491759","0.0-33.0-0.0","4158.700000047684","<br><br><br><br><p>That's correct!</p> <p><b>[press the space bar to continue with the quiz]</b></p>","32","","","","","","","","","","","","","","","","",""
"","html-keyboard-response","50","500735","0.0-34.0-0.0","8971.900000095367","<br><br><br><br><p>Oops, you missed some questions. Now that you’ve heard the correct answers. Try the quiz again! If you fail the quiz too many times, you won’t be able to do the experiment. </p> <p><br>[press the space bar to repeat the quiz]</br></p>","32","","","","","","","","","","","","","","","","",""
"","html-keyboard-response","51","503402","0.0-34.0-1.0","2665","<div class='center'><p>You win bonus money by making choices as fast as possible.</p><p>Press 1 for true and press  2 for false.</p></div>","49","","","","","","","","","","","","","","","","",""
"","html-keyboard-response","52","514656","0.0-35.0-0.0","11251.900000095367","<br><br><br><br><p>That’s incorrect! You win bonus money by collecting as many gold coins as possible!</p><p><b>[press the space bar to continue with the quiz]</b></p>","32","","","","","","","","","","","","","","","","",""
"","html-keyboard-response","53","527678","0.0-35.0-1.0","13020","<div class='center'><p>You press the <b>‘3’</b> button on the keyboard to choose the red bearded pirate? </p><p>Press 1 for true and press  2 for false.</p></div>","50","","","","","","","","","","","","","","","","",""
"","html-keyboard-response","54","528956","0.0-36.0-0.0","1276","<br><br><br><br><p>That's correct!</p> <p><b>[press the space bar to continue with the quiz]</b></p>","32","","","","","","","","","","","","","","","","",""
"","html-keyboard-response","55","532538","0.0-36.0-1.0","3579.2000000476837","<div class='center'><p>A pirate will always be equally successful at robbing ships in each place</p><p>Press 1 for true and press  2 for false.</p></div>","50","","","","","","","","","","","","","","","","",""
"","html-keyboard-response","56","533272","0.0-37.0-0.0","731.9000000953674","<br><br><br><br><p>That's correct!</p> <p><b>[press the space bar to continue with the quiz]</b></p>","32","","","","","","","","","","","","","","","","",""
"","html-keyboard-response","57","537188","0.0-37.0-1.0","3913.9000000953674","<div class='center'><p>You should remember the place where a pirate robbed a ship.</p><p>Press 1 for true and press  2 for false.</p></div>","49","","","","","","","","","","","","","","","","",""
"","html-keyboard-response","58","538282","0.0-38.0-0.0","1092.1000001430511","<br><br><br><br><p>That's correct!</p> <p><b>[press the space bar to continue with the quiz]</b></p>","32","","","","","","","","","","","","","","","","",""
"","html-keyboard-response","59","539351","0.0-39.0-0.0","1066.8999998569489","<br><br><br><br><p>Oops, you missed some questions. Now that you’ve heard the correct answers. Try the quiz again! If you fail the quiz too many times, you won’t be able to do the experiment. </p> <p><br>[press the space bar to repeat the quiz]</br></p>","32","","","","","","","","","","","","","","","","",""
"","html-keyboard-response","60","543142","0.0-39.0-1.0","3789","<div class='center'><p>You win bonus money by making choices as fast as possible.</p><p>Press 1 for true and press  2 for false.</p></div>","50","","","","","","","","","","","","","","","","",""
"","html-keyboard-response","61","543903","0.0-40.0-0.0","757.2000000476837","<br><br><br><br><p>That's correct!</p> <p><b>[press the space bar to continue with the quiz]</b></p>","32","","","","","","","","","","","","","","","","",""
"","html-keyboard-response","62","550301","0.0-40.0-1.0","6395.700000047684","<div class='center'><p>You press the <b>‘3’</b> button on the keyboard to choose the red bearded pirate? </p><p>Press 1 for true and press  2 for false.</p></div>","50","","","","","","","","","","","","","","","","",""
"","html-keyboard-response","63","551060","0.0-41.0-0.0","757","<br><br><br><br><p>That's correct!</p> <p><b>[press the space bar to continue with the quiz]</b></p>","32","","","","","","","","","","","","","","","","",""
"","html-keyboard-response","64","554731","0.0-41.0-1.0","3668.7000000476837","<div class='center'><p>A pirate will always be equally successful at robbing ships in each place</p><p>Press 1 for true and press  2 for false.</p></div>","50","","","","","","","","","","","","","","","","",""
"","html-keyboard-response","65","555466","0.0-42.0-0.0","733","<br><br><br><br><p>That's correct!</p> <p><b>[press the space bar to continue with the quiz]</b></p>","32","","","","","","","","","","","","","","","","",""
"","html-keyboard-response","66","559921","0.0-42.0-1.0","4453","<div class='center'><p>You should remember the place where a pirate robbed a ship.</p><p>Press 1 for true and press  2 for false.</p></div>","49","","","","","","","","","","","","","","","","",""
"","html-keyboard-response","67","560806","0.0-43.0-0.0","853.6999998092651","<br><br><br><br><p>That's correct!</p> <p><b>[press the space bar to continue with the quiz]</b></p>","32","","","","","","","","","","","","","","","","",""
"","html-keyboard-response","68","562778","0.0-44.0-0.0","1970","<br><br><br><br><p>Good job! You’re now ready to move on to the real game!</p> <p><br>[press the space bar to begin!]</br></p>","32","","","","","","","","","","","","","","","","",""
"","do_welcome","69","564292","0.0-45.0-0.0","null","","","","null","","","","","","","","","","","","","","",""
"","do_trial","70","572214","0.0-46.0-0.0","2332.7000000476837","","","","49","1,1,0","0","coast","0","probe-202","1","0.4","0.1","1","","","","","",""
"","do_trial","71","580699","0.0-47.0-0.0","2850.699999809265","","","","50","1,0,0","0","coast","1","probe-76","1","0.33455429786650753","0.16227931349561484","0","","","","","",""
"","do_trial","72","588411","0.0-48.0-0.0","2123.300000190735","","","","51","1,1,0","0","coast","2","probe-20","1","0.4908927193292809","0.22663294613965174","0","","","","","",""
"","do_trial","73","594514","0.0-49.0-0.0","null","","","","null","1,0,0","0","coast","3","probe-228","1","0.589320623457717","0.08655314058389106","","","","","","",""
"","do_trial","74","600746","0.0-50.0-0.0","649.3000001907349","","","","49","1,0,0","0","coast","4","probe-107","0.8952279878691648","0.5500671776240057","0.1494064744707998","1","","","","","",""
"","do_trial","75","607515","0.0-51.0-0.0","1155.7999999523163","","","","50","1,1,0","0","coast","5","probe-197","0.8719961738525039","0.3762810381934882","0.17304175678769365","1","","","","","",""
"","do_trial","76","614097","0.0-52.0-0.0","990.7999999523163","","","","51","1,0,0","0","coast","6","probe-184","0.775481211482932","0.40477586777552693","0.22678837723619752","0","","","","","",""
"","do_trial","77","621086","0.0-53.0-0.0","1392.2999999523163","","","","49","0,0,0","0","coast","7","probe-175","0.7011357097721671","0.31562118652835963","0.06784285321393041","0","","","","","",""
"","do_trial","78","627798","0.0-54.0-0.0","1122.7999999523163","","","","51","0,1,0","0","coast","8","probe-201","0.6410523075235989","0.3944200274856431","0.13400084232480328","0","","","","","",""
"","do_trial","79","634215","0.0-55.0-0.0","828.2999999523163","","","","50","1,0,0","0","coast","9","probe-218","0.7505361991379796","0.38585325945714305","0.145239725637066","0","","","","","",""
"","do_trial","80","640934","0.0-56.0-0.0","1106.3999998569489","","","","51","1,0,0","0","coast","10","probe-212","0.6214263556719236","0.5351427119216641","0.22520255725615038","0","","","","","",""
"","do_trial","81","647014","0.0-57.0-0.0","485","","","","49","0,1,0","0","coast","11","probe-159","0.29569511528422043","0.6445713407333882","0.2504104463931263","0","","","","","",""
"","do_trial","82","653605","0.0-58.0-0.0","1000.9000000953674","","","","50","0,1,0","0","coast","12","probe-237","0.3309810313598298","0.8402623009268356","0.22102099519898516","1","","","","","",""
"","do_trial","83","660429","0.0-59.0-0.0","1242.2000000476837","","","","51","1,0,1","0","coast","13","probe-10","0.24586599358129266","0.9451229469797493","0.3687670799400693","1","","","","","",""
"","do_trial","84","666528","0.0-60.0-0.0","null","","","","null","1,1,0","0","coast","14","probe-100","0.21477401143290104","0.9010758568855364","0.4301116276569561","","","","","","",""
"","do_trial","85","673058","0.0-61.0-0.0","947.1000001430511","","","","50","0,1,1","0","coast","15","probe-95","0.09185178365981965","0.8637934104549663","0.3327779313585347","1","","","","","",""
"","do_trial","86","679194","0.0-62.0-0.0","null","","","","null","0,1,1","0","coast","16","probe-21","0.11233228044034904","0.9058223468116547","0.40619743343225856","","","","","","",""
"","do_trial","87","685595","0.0-63.0-0.0","775.4000000953674","","","","49","1,1,0","0","coast","17","probe-210","0.15890640728318667","0.9266107462570149","0.2435123582925909","1","","","","","",""
"","do_trial","88","692292","0.0-64.0-0.0","1110.2000000476837","","","","50","1,0,1","0","coast","18","probe-114","0.1722377517668432","0.7372913843378927","0.40820521792037684","0","","","","","",""
"","do_trial","89","699501","0.0-65.0-0.0","1619.7999999523163","","","","51","0,1,0","0","coast","19","probe-35","0.1345889665816809","0.6944995000212603","0.3527927731006898","0","","","","","",""
"","do_trial","90","705604","0.0-66.0-0.0","525.7999999523163","","","","49","0,1,1","0","coast","20","probe-230","0.21282569427878797","0.7791579831121866","0.3349777236982287","0","","","","","",""
"","do_trial","91","712186","0.0-67.0-0.0","988.7000000476837","","","","50","0,1,1","0","coast","21","probe-48","0.059563140289148414","0.6810048030725183","0.3685327238819954","1","","","","","",""
"","do_trial","92","718759","0.0-68.0-0.0","988.0999999046326","","","","51","0,0,0","0","coast","22","probe-37","0.07092856048773452","0.8056412420553509","0.4871671643458006","0","","","","","",""
"","do_trial","93","725732","0.0-69.0-0.0","1386.4000000953674","","","","49","0,1,1","0","coast","23","probe-234","0.10473713917455832","0.8152327585813897","0.423653588813539","0","","","","","",""
"","do_trial","94","732291","0.0-70.0-0.0","965.4000000953674","","","","50","0,0,1","0","coast","24","probe-79","0.08603055644347041","0.7730352723905636","0.4691202010198018","0","","","","","",""
"","do_trial","95","740574","0.0-71.0-0.0","2690.199999809265","","","","51","0,1,1","0","coast","25","probe-208","0.2679868672500642","0.8800481040807714","0.32666493809121383","1","","","","","",""
"","do_trial","96","746671","0.0-72.0-0.0","null","","","","null","0,1,0","0","coast","26","probe-111","0.2940904103990865","0.8623343664477061","0.306552003397556","","","","","","",""
"","do_trial","97","752592","0.0-73.0-0.0","311.7999999523163","","","","49","0,1,0","0","coast","27","probe-161","0.2543143808234898","0.8566231921441396","0.39449039613186637","0","","","","","",""
"","do_trial","98","758607","0.0-74.0-0.0","408.7999999523163","","","","50","0,1,0","0","coast","28","probe-205","0.19703327726592462","0.9053980248652758","0.4053746395386984","1","","","","","",""
"","do_trial","99","765041","0.0-75.0-0.0","843.2000000476837","","","","51","0,1,0","0","coast","29","probe-110","0.08606505661551113","0.9368628725222123","0.5047852714803533","0","","","","","",""
"","do_trial","100","771308","0.0-76.0-0.0","659.0999999046326","","","","49","1,1,1","0","coast","30","probe-43","0.0767045594524256","0.9340320039051752","0.4768085634492327","1","","","","","",""
"","do_trial","101","777869","0.0-77.0-0.0","972.7999999523163","","","","50","0,1,0","0","coast","31","probe-36","0.15957144887197647","0.8726781807565872","0.4690764321111645","1","","","","","",""
"","do_trial","102","785875","0.0-78.0-0.0","2416.7000000476837","","","","51","0,1,1","0","coast","32","probe-78","0.1494504368898134","0.7183874835756691","0.4690904398390138","1","","","","","",""
"","do_trial","103","793066","0.0-79.0-0.0","1598.5","","","","49","1,1,0","0","coast","33","probe-109","0.14714946053244243","0.8478060586075006","0.3122992996328102","1","","","","","",""
"","do_trial","104","800308","0.0-80.0-0.0","1644.2999999523163","","","","50","0,1,1","0","coast","34","probe-215","0.17707748199914458","0.8675375943652347","0.3147229965700579","1","","","","","",""
"","do_trial","105","806404","0.0-81.0-0.0","null","","","","null","1,1,0","0","coast","35","probe-164","0.09850446029129854","0.8917593233767395","0.3249244280554837","","","","","","",""
"","do_trial","106","812339","0.0-82.0-0.0","356.59999990463257","","","","51","0,1,1","0","coast","36","probe-77","0.2141625465243834","0.9083187341020295","0.38042008178681563","1","","","","","",""
"","do_trial","107","819025","0.0-83.0-0.0","1096.2000000476837","","","","49","0,1,0","0","coast","37","probe-207","0.21759507983588366","0.9472886028407959","0.27652290289128073","0","","","","","",""
"","do_trial","108","825512","0.0-84.0-0.0","884.4000000953674","","","","50","0,1,0","0","coast","38","probe-03","0.18070671510662362","0.8452678423917743","0.25555391511655035","1","","","","","",""
"","do_trial","109","831948","0.0-85.0-0.0","838","","","","51","0,1,1","0","coast","39","probe-30","0.0836674492540916","0.9179909865120014","0.39955628295724077","1","","","","","",""
"","do_bye","110","833465","0.0-86.0-0.0","null","","","","null","","","","","","","","","","","","","","",""
"","do_travel","111","839475","0.0-87.0-0.0","null","","","","null","","","","","","","","","","","","","","",""
"","do_welcome","112","841004","0.0-87.0-1.0","null","","","","null","","","","","","","","","","","","","","",""
"","do_trial","113","848562","0.0-88.0-0.0","1970.1999998092651","","","","49","0,1,0","1","forest","40","probe-97","0.12202041058476622","1","0.2954809738831117","0","","","","","",""
"","do_trial","114","856008","0.0-89.0-0.0","1847.5999999046326","","","","50","0,1,0","1","forest","41","probe-06","0.07518780078183492","1","0.3418188304824962","1","","","","","",""
"","do_trial","115","862824","0.0-90.0-0.0","1225.7999999523163","","","","51","0,1,0","1","forest","42","probe-199","0.12126845431760687","1","0.22842378073752248","0","","","","","",""
"","do_trial","116","870402","0.0-91.0-0.0","2016","","","","49","0,1,0","1","forest","43","probe-198","0.16288951219098188","1","0.1884645288086725","0","","","","","",""
"","do_trial","117","877014","0.0-92.0-0.0","1003.6999998092651","","","","50","0,1,0","1","forest","44","probe-91","0.0867952411879098","0.907367796826974","0.2687073044357557","1","","","","","",""
"","do_trial","118","885592","0.0-93.0-0.0","2993.7000000476837","","","","51","0,1,0","1","forest","45","probe-214","0.16032145510857185","0.8719714626206304","0.41261112958013285","0","","","","","",""
"","do_trial","119","892274","0.0-94.0-0.0","1099.9000000953674","","","","49","1,1,1","1","forest","46","probe-203","0.1382455904707215","0.9086059559068462","0.35599108489899856","1","","","","","",""
"","do_trial","120","899266","0.0-95.0-0.0","1394.2999999523163","","","","50","0,1,0","1","forest","47","probe-118","0.1919040628961956","0.7977333834786484","0.2542315854861543","1","","","","","",""
"","do_trial","121","906396","0.0-96.0-0.0","1503.3999998569489","","","","51","0,1,0","1","forest","48","probe-84","0.05932771645664779","0.8997735696123991","0.2902094414716889","0","","","","","",""
"","do_trial","122","912995","0.0-97.0-0.0","1002.6000001430511","","","","49","0,1,1","1","forest","49","probe-239","0.17416981293594","0.8406257498424751","0.32215758824022017","0","","","","","",""
"","do_trial","123","919170","0.0-98.0-0.0","585.5","","","","50","0,0,0","1","forest","50","probe-133","0.21397694250623678","0.5098597699878744","0.540322359561149","0","","","","","",""
"","do_trial","124","925311","0.0-99.0-0.0","545.8999998569489","","","","51","0,0,0","1","forest","51","probe-11","0.14710333182521299","0.4557519919618674","0.7077802558469677","0","","","","","",""
"","do_trial","125","931484","0.0-100.0-0.0","591.3999998569489","","","","49","0,0,1","1","forest","52","probe-112","0.06716908828639913","0.23660046250119382","0.7297049501805135","0","","","","","",""
"","do_trial","126","937609","0.0-101.0-0.0","538.5","","","","50","0,0,1","1","forest","53","probe-22","0.1909876572779938","0.22076511127710702","0.6814509294409173","0","","","","","",""
"","do_trial","127","943681","0.0-102.0-0.0","489.7000000476837","","","","51","0,1,1","1","forest","54","probe-188","0.3416571647203989","0.16371548633292157","0.7718906714663143","1","","","","","",""
"","do_trial","128","950387","0.0-103.0-0.0","1119.5999999046326","","","","49","1,0,1","1","forest","55","probe-90","0.31455434176887753","0.1850621463755876","0.729758930396464","1","","","","","",""
"","do_trial","129","956777","0.0-104.0-0.0","810.2000000476837","","","","49","0,0,1","1","forest","56","probe-174","0.40143890891187406","0.1267889067978094","0.7736278877198024","0","","","","","",""
"","do_trial","130","963922","0.0-105.0-0.0","1542.6999998092651","","","","49","1,0,0","1","forest","57","probe-148","0.44444541629172124","0.2766291296596464","0.6893845358778881","1","","","","","",""
"","do_trial","131","970403","0.0-106.0-0.0","883.3999998569489","","","","51","1,0,1","1","forest","58","probe-191","0.4276289939288778","0.27634112394915067","0.7898213294276529","1","","","","","",""
"","do_trial","132","976730","0.0-107.0-0.0","731.7999999523163","","","","50","1,0,1","1","forest","59","probe-122","0.45230110278024266","0.2746419764476154","0.8502193301414653","0","","","","","",""
"","do_trial","133","982680","0.0-108.0-0.0","365.7999999523163","","","","49","1,1,1","1","forest","60","probe-24","0.38219880794141764","0.160135653198166","0.8229744389476215","1","","","","","",""
"","do_trial","134","989226","0.0-109.0-0.0","911.7999999523163","","","","50","0,1,1","1","forest","61","probe-124","0.3824777914211193","0.14257296008403067","0.9390393748542826","1","","","","","",""
"","do_trial","135","995541","0.0-110.0-0.0","727.2999999523163","","","","51","0,0,1","1","forest","62","probe-45","0.2902204066781238","0.2360716154446138","0.9387296231084085","1","","","","","",""
"","do_trial","136","1001661","0.0-111.0-0.0","520.2000000476837","","","","49","0,0,1","1","forest","63","probe-181","0.37263145727167407","0.06907318687076609","0.7700620689028402","0","","","","","",""
"","do_trial","137","1007743","0.0-112.0-0.0","481.60000014305115","","","","50","0,0,1","1","forest","64","probe-18","0.49842520955340447","0.05239548281125558","0.8108779641543107","0","","","","","",""
"","do_trial","138","1013681","0.0-113.0-0.0","358.89999985694885","","","","51","1,0,1","1","forest","65","probe-25","0.4902623097886661","0.060502878980449426","0.8153520854182782","1","","","","","",""
"","do_trial","139","1020136","0.0-114.0-0.0","882.1000001430511","","","","49","0,0,0","1","forest","66","probe-146","0.42808478755955387","0.1401206114480678","0.7058413115888048","0","","","","","",""
"","do_trial","140","1026166","0.0-115.0-0.0","436.2999999523163","","","","50","1,0,1","1","forest","67","probe-23","0.4449205211923674","0.12403498660351032","0.7996587940736111","0","","","","","",""
"","do_trial","141","1032124","0.0-116.0-0.0","368.2000000476837","","","","51","1,0,1","1","forest","68","probe-213","0.5274534930300577","0.18683162437974143","0.8424875818849061","1","","","","","",""
"","do_trial","142","1039422","0.0-117.0-0.0","1710.3999998569489","","","","49","1,0,1","1","forest","69","probe-12","0.44455872210167086","0.23883379273539412","0.7999892981196358","1","","","","","",""
"","do_trial","143","1046233","0.0-118.0-0.0","1223","","","","50","0,0,1","1","forest","70","probe-238","0.443993097347129","0.29250265596697683","0.8058169572938332","0","","","","","",""
"","do_trial","144","1052693","0.0-119.0-0.0","868","","","","51","0,0,1","1","forest","71","probe-65","0.37773364956002425","0.3085179823326427","0.941349154531327","1","","","","","",""
"","do_trial","145","1059319","0.0-120.0-0.0","1029.2999999523163","","","","49","1,0,0","1","forest","72","probe-233","0.47220052961118586","0.2922107203418662","0.8063219467990121","1","","","","","",""
"","do_trial","146","1067166","0.0-121.0-0.0","2243.399999856949","","","","49","0,0,1","1","forest","73","probe-132","0.42647073982907124","0.1740156043232051","0.8904236048425104","0","","","","","",""
"","do_trial","147","1073449","0.0-122.0-0.0","694.7000000476837","","","","50","0,0,1","1","forest","74","probe-64","0.393448455677578","0.13786774680495664","0.8951829892838429","0","","","","","",""
"","do_trial","148","1079971","0.0-123.0-0.0","900.9000000953674","","","","51","1,0,1","1","forest","75","probe-28","0.4375594072541022","0.24358710349487125","0.794923631357757","1","","","","","",""
"","do_trial","149","1086939","0.0-124.0-0.0","1381.5","","","","49","0,0,0","1","forest","76","probe-135","0.5185056325893443","0.2899096234093787","0.9196754504642488","0","","","","","",""
"","do_trial","150","1094198","0.0-125.0-0.0","1672.7000000476837","","","","50","0,0,0","1","forest","77","probe-117","0.4459819058490813","0.19101071151185445","0.9340154956339106","0","","","","","",""
"","do_trial","151","1100277","0.0-126.0-0.0","471","","","","51","1,0,1","1","forest","78","probe-92","0.48750423173245977","0.1462014901108064","0.7769910303043007","1","","","","","",""
"","do_trial","152","1106400","0.0-127.0-0.0","null","","","","null","0,0,1","1","forest","79","probe-51","0.40393361173656445","0.06705495644337775","0.5984002911830101","","","","","","",""
"","do_bye","153","1107920","0.0-128.0-0.0","null","","","","null","","","","","","","","","","","","","","",""
"","do_travel","154","1113929","0.0-129.0-0.0","null","","","","null","","","","","","","","","","","","","","",""
"","do_welcome","155","1115446","0.0-129.0-1.0","null","","","","null","","","","","","","","","","","","","","",""
"","do_trial","156","1121529","0.0-130.0-0.0","null","","","","null","1,0,1","2","mountain","80","probe-138","0.3701264729357435","0.149428004061675","1","","","","","","",""
"","do_trial","157","1127734","0.0-131.0-0.0","618.2000000476837","","","","50","0,0,1","2","mountain","81","probe-85","0.29264645815915236","0.23198539455630568","1","0","","","","","",""
"","do_trial","158","1133843","0.0-132.0-0.0","529.0999999046326","","","","50","0,0,1","2","mountain","82","probe-223","0.26020421346104045","0.05156578746352263","1","0","","","","","",""
"","do_trial","159","1140271","0.0-133.0-0.0","822.2000000476837","","","","50","0,0,1","2","mountain","83","probe-02","0.3155197440628384","0.1486457762752627","1","0","","","","","",""
"","do_trial","160","1146367","0.0-134.0-0.0","506","","","","50","1,1,1","2","mountain","84","probe-99","0.3300834671995775","0.19268717006868502","0.7764299664132186","1","","","","","",""
"","do_trial","161","1153017","0.0-135.0-0.0","1068","","","","50","1,0,1","2","mountain","85","probe-156","0.3840741130364033","0.259956915986989","0.7365602662776045","0","","","","","",""
"","do_trial","162","1159636","0.0-136.0-0.0","1028.5","","","","50","0,0,1","2","mountain","86","probe-192","0.45617021552955933","0.17152719116702322","0.7330099291122393","0","","","","","",""
"","do_trial","163","1165690","0.0-137.0-0.0","439.2000000476837","","","","49","1,0,1","2","mountain","87","probe-105","0.39118844369319133","0.14338871267974176","0.7722508836465396","1","","","","","",""
"","do_trial","164","1173542","0.0-138.0-0.0","2261.7999999523163","","","","49","1,1,1","2","mountain","88","probe-47","0.4732612735233711","0.10206900360464091","0.71814163928428","1","","","","","",""
"","do_trial","165","1180111","0.0-139.0-0.0","970.2999999523163","","","","49","1,0,1","2","mountain","89","probe-67","0.5249792254854834","0.15915934577373209","0.7551738032474196","1","","","","","",""
"","do_trial","166","1186843","0.0-140.0-0.0","1151","","","","49","0,1,0","2","mountain","90","probe-42","0.5150737843719161","0.4189413071607752","0.3597525755572539","0","","","","","",""
"","do_trial","167","1192799","0.0-141.0-0.0","381.69999980926514","","","","51","0,0,1","2","mountain","91","probe-63","0.18962068384604294","0.6140703103942451","0.32858114360623886","1","","","","","",""
"","do_trial","168","1200363","0.0-142.0-0.0","1968.6999998092651","","","","49","0,0,1","2","mountain","92","probe-50","0.19479470461265938","0.7284728591409508","0.43031804741092294","0","","","","","",""
"","do_trial","169","1206334","0.0-143.0-0.0","362.5","","","","51","0,1,1","2","mountain","93","probe-204","0.051957355544505916","0.7335993467918581","0.35076842638833294","1","","","","","",""
"","do_trial","170","1212437","0.0-144.0-0.0","474","","","","50","0,1,0","2","mountain","94","probe-52","0.19370665818685648","0.6995516487579682","0.4350585835227267","1","","","","","",""
"","do_trial","171","1218938","0.0-145.0-0.0","875.9000000953674","","","","51","0,1,0","2","mountain","95","probe-142","0.05585656984837989","0.9232002273633542","0.48746750008268763","0","","","","","",""
"","do_trial","172","1225025","0.0-146.0-0.0","null","","","","null","0,1,0","2","mountain","96","probe-68","0.12344155994529017","0.9156786392730473","0.47710611438499734","","","","","","",""
"","do_trial","173","1231101","0.0-147.0-0.0","475.2999999523163","","","","49","0,1,1","2","mountain","97","probe-88","0.11765486914188365","0.7864166981632597","0.37462723078451987","0","","","","","",""
"","do_trial","174","1237294","0.0-148.0-0.0","578.8000001907349","","","","50","0,1,1","2","mountain","98","probe-196","0.11420701810789917","0.7547054214218488","0.29763336302072874","1","","","","","",""
"","do_trial","175","1244015","0.0-149.0-0.0","1134.8999998569489","","","","51","0,1,0","2","mountain","99","probe-94","0.15911705616506328","0.9390619614900082","0.37973116536294954","0","","","","","",""
"","do_trial","176","1252543","0.0-150.0-0.0","2946","","","","49","0,1,1","2","mountain","100","probe-119","0.06598775243654761","0.9443126052398494","0.45975336396378036","0","","","","","",""
"","do_trial","177","1258883","0.0-151.0-0.0","743.6999998092651","","","","50","0,1,0","2","mountain","101","probe-224","0.2721529726995315","0.9093299212902174","0.38007278425210883","1","","","","","",""
"","do_trial","178","1265514","0.0-152.0-0.0","1040","","","","51","1,0,1","2","mountain","102","probe-130","0.14385666553261497","0.8293269032649679","0.4474486315718198","1","","","","","",""
"","do_trial","179","1272527","0.0-153.0-0.0","1429.0999999046326","","","","49","1,1,1","2","mountain","103","probe-38","0.07794224112621632","0.7459148874004756","0.5044242738609233","1","","","","","",""
"","do_trial","180","1280212","0.0-154.0-0.0","2108.5","","","","50","0,0,0","2","mountain","104","probe-155","0.07631923334296227","0.8148737642035817","0.5400091976662855","0","","","","","",""
"","do_trial","181","1286735","0.0-155.0-0.0","915.1999998092651","","","","51","0,1,0","2","mountain","105","probe-53","0.08936937564355173","0.7900242254167194","0.6406800533850637","0","","","","","",""
"","do_trial","182","1292480","0.0-156.0-0.0","155.79999995231628","","","","49","0,1,0","2","mountain","106","probe-167","0.2049245129945603","0.8813435956727206","0.3890432120386209","0","","","","","",""
"","do_trial","183","1299133","0.0-157.0-0.0","1024.1999998092651","","","","50","0,1,1","2","mountain","107","probe-131","0.16470350274754716","0.9383270263570939","0.5396870319496564","1","","","","","",""
"","do_trial","184","1305826","0.0-158.0-0.0","1092.2000000476837","","","","51","0,0,1","2","mountain","108","probe-182","0.23885855511486398","0.874067810606427","0.552292539560719","1","","","","","",""
"","do_trial","185","1313107","0.0-159.0-0.0","1706.2000000476837","","","","49","0,1,0","2","mountain","109","probe-54","0.1900425554187924","0.8507359243019496","0.343760024172409","0","","","","","",""
"","do_trial","186","1319727","0.0-160.0-0.0","1026.0999999046326","","","","50","0,1,0","2","mountain","110","probe-60","0.11929125104707372","0.851757065569915","0.2629159919367327","1","","","","","",""
"","do_trial","187","1326341","0.0-161.0-0.0","1026.4000000953674","","","","50","0,1,1","2","mountain","111","probe-40","0.1363492098677592","0.708695240734829","0.3647990835256071","1","","","","","",""
"","do_trial","188","1332984","0.0-162.0-0.0","1066.7000000476837","","","","50","0,1,0","2","mountain","112","probe-07","0.25428810526538304","0.8311527863507252","0.41194209951267263","1","","","","","",""
"","do_trial","189","1339832","0.0-163.0-0.0","1245.4000000953674","","","","50","0,0,0","2","mountain","113","probe-211","0.08197877770470478","0.7587609371485275","0.3993204278772092","0","","","","","",""
"","do_trial","190","1346182","0.0-164.0-0.0","763.5999999046326","","","","50","1,1,0","2","mountain","114","probe-217","0.11104968109042038","0.8618843216915364","0.32638671903649696","1","","","","","",""
"","do_trial","191","1353431","0.0-165.0-0.0","1650.2999999523163","","","","50","1,1,0","2","mountain","115","probe-82","0.14068510692191058","0.7110539509139813","0.3313309363545707","1","","","","","",""
"","do_trial","192","1359699","0.0-166.0-0.0","704.2999999523163","","","","50","1,1,1","2","mountain","116","probe-216","0.14502501275823285","0.9329654430505722","0.4779262790276178","1","","","","","",""
"","do_trial","193","1366604","0.0-167.0-0.0","1324.2000000476837","","","","50","1,1,1","2","mountain","117","probe-32","0.10271032676760079","0.7395085954790898","0.4104073924781164","1","","","","","",""
"","do_trial","194","1374775","0.0-168.0-0.0","2553.100000143051","","","","50","0,1,1","2","mountain","118","probe-152","0.08539480571817062","0.7668504766482035","0.4494888395523305","1","","","","","",""
"","do_trial","195","1383178","0.0-169.0-0.0","2820.2999999523163","","","","50","0,1,1","2","mountain","119","probe-74","0.139965147431218","0.853649483517797","0.22848021885792372","1","","","","","",""
"","do_bye","196","1384693","0.0-170.0-0.0","null","","","","null","","","","","","","","","","","","","","",""
"","do_travel","197","1390699","0.0-171.0-0.0","null","","","","null","","","","","","","","","","","","","","",""
"","do_welcome","198","1392225","0.0-171.0-1.0","null","","","","null","","","","","","","","","","","","","","",""
"","do_trial","199","1398308","0.0-172.0-0.0","null","","","","null","1,1,1","3","countryside","120","probe-127","0.07629727195942745","1","0.27415123212386555","","","","","","",""
"","do_trial","200","1404652","0.0-173.0-0.0","740.9000000953674","","","","50","0,1,0","3","countryside","121","probe-129","0.07305405660065112","1","0.05133925077155162","1","","","","","",""
"","do_trial","201","1411482","0.0-174.0-0.0","1228","","","","49","1,1,0","3","countryside","122","probe-229","0.1481351377282705","1","0.19897553457372172","1","","","","","",""
"","do_trial","202","1419657","0.0-175.0-0.0","2591.7000000476837","","","","51","0,1,0","3","countryside","123","probe-195","0.07472537869040762","1","0.254882262187289","0","","","","","",""
"","do_trial","203","1426466","0.0-176.0-0.0","1229.7999999523163","","","","51","1,1,0","3","countryside","124","probe-05","0.19435442490578073","0.7250149114725611","0.3608391089142356","0","","","","","",""
"","do_trial","204","1433017","0.0-177.0-0.0","957.9000000953674","","","","51","0,1,0","3","countryside","125","probe-41","0.24102983819649068","0.906514620205775","0.29354326636164246","0","","","","","",""
"","do_trial","205","1439668","0.0-178.0-0.0","1074.2999999523163","","","","51","0,1,0","3","countryside","126","probe-172","0.06820519030145913","0.7935939235605419","0.25933096575773734","0","","","","","",""
"","do_trial","206","1445749","0.0-179.0-0.0","null","","","","null","0,1,1","3","countryside","127","probe-236","0.05731438559925982","0.7945895689296016","0.3159937954274299","","","","","","",""
"","do_trial","207","1451809","0.0-180.0-0.0","466.2000000476837","","","","51","0,1,0","3","countryside","128","probe-115","0.09510313600565198","0.6741498024306859","0.38940029238287077","0","","","","","",""
"","do_trial","208","1458186","0.0-181.0-0.0","783.5999999046326","","","","50","0,1,0","3","countryside","129","probe-55","0.21364791931647553","0.9280417116641015","0.4656735977285181","1","","","","","",""
"","do_trial","209","1464547","0.0-182.0-0.0","772.3999998569489","","","","50","1,0,0","3","countryside","130","probe-183","0.41480591124621013","0.8282806210359938","0.2580136154547227","0","","","","","",""
"","do_trial","210","1471509","0.0-183.0-0.0","1377.3999998569489","","","","50","1,0,0","3","countryside","131","probe-87","0.5969665005741663","0.608861064287207","0.21312411512596752","0","","","","","",""
"","do_trial","211","1477415","0.0-184.0-0.0","303.7000000476837","","","","50","1,1,0","3","countryside","132","probe-128","0.7673498964973903","0.48711296551954514","0.12767604086207562","1","","","","","",""
"","do_trial","212","1484126","0.0-185.0-0.0","1104","","","","50","1,0,1","3","countryside","133","probe-80","0.8423804142178943","0.38879268643555004","0.10497791506170233","0","","","","","",""
"","do_trial","213","1490318","0.0-186.0-0.0","631.4000000953674","","","","49","1,1,0","3","countryside","134","probe-29","0.8399084737604531","0.3672298052719701","0.15862322034811263","1","","","","","",""
"","do_trial","214","1496747","0.0-187.0-0.0","788.3000001907349","","","","49","1,1,0","3","countryside","135","probe-185","0.7682120612059798","0.3386033727066963","0.10053005282895935","1","","","","","",""
"","do_trial","215","1504121","0.0-188.0-0.0","1786.3999998569489","","","","49","1,0,0","3","countryside","136","probe-219","0.9174265061480154","0.33769106226567713","0.08456245809901707","1","","","","","",""
"","do_trial","216","1511322","0.0-189.0-0.0","1613.8999998569489","","","","49","1,1,0","3","countryside","137","probe-59","0.8850694447517724","0.3101816647254551","0.12414533284002606","1","","","","","",""
"","do_trial","217","1518998","0.0-190.0-0.0","2082.399999856949","","","","49","1,1,0","3","countryside","138","probe-147","0.8620254202381069","0.46784551005617003","0.1662962542929383","1","","","","","",""
"","do_trial","218","1525670","0.0-191.0-0.0","1096.6000001430511","","","","49","1,0,0","3","countryside","139","probe-34","0.751086497585817","0.48014238588204955","0.1169481878356525","1","","","","","",""
"","do_trial","219","1532693","0.0-192.0-0.0","1431.8999998569489","","","","49","0,1,1","3","countryside","140","probe-240","0.7067459109026677","0.4201233077975403","0.1910903508323436","0","","","","","",""
"","do_trial","220","1538790","0.0-193.0-0.0","null","","","","null","0,0,1","3","countryside","141","probe-160","0.6775229313718621","0.49467652986027866","0.20581819728546913","","","","","","",""
"","do_trial","221","1544841","0.0-194.0-0.0","479.5","","","","49","0,0,1","3","countryside","142","probe-194","0.9040088990053217","0.48847815826641544","0.25664888803469565","0","","","","","",""
"","do_trial","222","1550749","0.0-195.0-0.0","326","","","","50","1,0,0","3","countryside","143","probe-69","0.9478255542241013","0.5008492873542861","0.2954151327749074","0","","","","","",""
"","do_trial","223","1556591","0.0-196.0-0.0","261.90000009536743","","","","51","0,1,0","3","countryside","144","probe-125","0.8690861518384366","0.4514831390933627","0.25533161051112957","0","","","","","",""
"","do_trial","224","1562669","0.0-197.0-0.0","498.7999999523163","","","","51","1,0,0","3","countryside","145","probe-187","0.8228360868062695","0.35909523707716445","0.18225395019347082","0","","","","","",""
"","do_trial","225","1569155","0.0-198.0-0.0","843.7000000476837","","","","50","1,1,0","3","countryside","146","probe-235","0.8190910915283546","0.42479626037083607","0.0747893517073169","1","","","","","",""
"","do_trial","226","1575941","0.0-199.0-0.0","1188.4000000953674","","","","49","1,0,0","3","countryside","147","probe-151","0.7857098454808782","0.3355201269387144","0.15782582250975632","1","","","","","",""
"","do_trial","227","1582469","0.0-200.0-0.0","940.7000000476837","","","","49","1,0,1","3","countryside","148","probe-46","0.8225728557791806","0.4537775753606914","0.33308988504595133","1","","","","","",""
"","do_trial","228","1589451","0.0-201.0-0.0","1371.2999999523163","","","","49","1,0,1","3","countryside","149","probe-56","0.8554136036400103","0.4407679732033447","0.3582367726791085","1","","","","","",""
"","do_trial","229","1595842","0.0-202.0-0.0","816.2000000476837","","","","49","0,0,1","3","countryside","150","probe-73","0.7694095240398815","0.30709341998999007","0.23807515563156476","0","","","","","",""
"","do_trial","230","1602809","0.0-203.0-0.0","1394.4000000953674","","","","50","1,1,1","3","countryside","151","probe-123","0.6337927734977064","0.3061109459064301","0.3585258750192843","1","","","","","",""
"","do_trial","231","1610424","0.0-204.0-0.0","2013.7999999523163","","","","50","1,0,0","3","countryside","152","probe-173","0.7539171649092136","0.2647123284994276","0.4318018364924806","0","","","","","",""
"","do_trial","232","1616385","0.0-205.0-0.0","391.39999985694885","","","","51","1,1,0","3","countryside","153","probe-227","0.6541206209149489","0.19734779240135425","0.2648420409872642","0","","","","","",""
"","do_trial","233","1622313","0.0-206.0-0.0","339.2000000476837","","","","51","1,1,1","3","countryside","154","probe-04","0.7928963533642811","0.4398870152710916","0.22789869984694122","1","","","","","",""
"","do_trial","234","1629155","0.0-207.0-0.0","1251.6000001430511","","","","50","1,1,0","3","countryside","155","probe-226","0.703772548278936","0.3150878235501575","0.2452055993124246","1","","","","","",""
"","do_trial","235","1635584","0.0-208.0-0.0","835","","","","50","0,0,1","3","countryside","156","probe-14","0.706135525528331","0.4341085470030579","0.16627077350319325","0","","","","","",""
"","do_trial","236","1641459","0.0-209.0-0.0","291.90000009536743","","","","49","1,1,0","3","countryside","157","probe-177","0.7023320351194937","0.5851383889213161","0.059598644515999395","1","","","","","",""
"","do_trial","237","1647982","0.0-210.0-0.0","951.7000000476837","","","","50","0,0,0","3","countryside","158","probe-225","0.7425302491886984","0.4112737665064794","0.06141109669992614","0","","","","","",""
"","do_trial","238","1654055","0.0-211.0-0.0","482.39999985694885","","","","49","1,1,0","3","countryside","159","probe-171","0.775184929550148","0.4259180814358033","0.17543597224951107","1","","","","","",""
"","do_bye","239","1655570","0.0-212.0-0.0","null","","","","null","","","","","","","","","","","","","","",""
"","do_travel","240","1661575","0.0-213.0-0.0","null","","","","null","","","","","","","","","","","","","","",""
"","do_welcome","241","1663092","0.0-213.0-1.0","null","","","","null","","","","","","","","","","","","","","",""
"","do_trial","242","1670621","0.0-214.0-0.0","1930.2999999523163","","","","49","1,0,0","4","city","160","probe-19","1","0.2572758741027034","0.14420939670804575","1","","","","","",""
"","do_trial","243","1677232","0.0-215.0-0.0","1015.5","","","","49","1,0,0","4","city","161","probe-170","1","0.2869955372035785","0.1053234841711297","1","","","","","",""
"","do_trial","244","1683326","0.0-216.0-0.0","501.30000019073486","","","","49","1,0,0","4","city","162","probe-08","1","0.2668472654450567","0.11188964407794048","1","","","","","",""
"","do_trial","245","1689604","0.0-217.0-0.0","694","","","","49","1,0,0","4","city","163","probe-96","1","0.2997712627522441","0.20064061668636382","1","","","","","",""
"","do_trial","246","1696120","0.0-218.0-0.0","930.3999998569489","","","","49","1,0,0","4","city","164","probe-103","0.9230663108617146","0.290391080285773","0.13491619731062143","1","","","","","",""
"","do_trial","247","1702569","0.0-219.0-0.0","871.4000000953674","","","","49","1,0,0","4","city","165","probe-149","0.9420648827334942","0.33007010896964545","0.2194119515393824","1","","","","","",""
"","do_trial","248","1708559","0.0-220.0-0.0","401.59999990463257","","","","49","1,0,0","4","city","166","probe-137","0.8904091304104762","0.27596532300205245","0.24737492519512824","1","","","","","",""
"","do_trial","249","1714712","0.0-221.0-0.0","553.6000001430511","","","","49","1,0,0","4","city","167","probe-158","0.8906947853910905","0.3403669313266475","0.12440046973701326","1","","","","","",""
"","do_trial","250","1721396","0.0-222.0-0.0","1082.7999999523163","","","","49","1,0,0","4","city","168","probe-143","0.8407646289961762","0.284852135713531","0.09363347610198952","1","","","","","",""
"","do_trial","251","1727498","0.0-223.0-0.0","483","","","","49","1,0,0","4","city","169","probe-58","0.9413596598753471","0.30431818269923616","0.07017557145555563","1","","","","","",""
"","do_trial","252","1733525","0.0-224.0-0.0","444.5","","","","49","1,0,0","4","city","170","probe-116","0.6717753076073062","0.18304837692394743","0.416286573053836","1","","","","","",""
"","do_trial","253","1739670","0.0-225.0-0.0","528","","","","49","0,0,1","4","city","171","probe-31","0.5171024415815547","0.09369749220966406","0.5071453906869317","0","","","","","",""
"","do_trial","254","1745686","0.0-226.0-0.0","435.39999985694885","","","","49","1,1,1","4","city","172","probe-165","0.6404210100189238","0.25617600370108434","0.6019222083702718","1","","","","","",""
"","do_trial","255","1751728","0.0-227.0-0.0","454.90000009536743","","","","49","0,0,1","4","city","173","probe-166","0.5586995406801335","0.14245420634879252","0.5079252126531564","0","","","","","",""
"","do_trial","256","1757874","0.0-228.0-0.0","544.8999998569489","","","","49","1,0,1","4","city","174","probe-98","0.37983498199622545","0.10336729533131254","0.7189346610683229","1","","","","","",""
"","do_trial","257","1763493","0.0-229.0-0.0","34.700000047683716","","","","49","0,0,1","4","city","175","probe-150","0.46357499984124134","0.22276995462002558","0.7209101258260603","0","","","","","",""
"","do_trial","258","1769403","0.0-230.0-0.0","323.59999990463257","","","","49","1,0,1","4","city","176","probe-178","0.4329675156342716","0.18494087480388982","0.8381699527965453","1","","","","","",""
"","do_trial","259","1775499","0.0-231.0-0.0","484.7000000476837","","","","49","0,0,1","4","city","177","probe-120","0.4247969961565243","0.1855110261308491","0.8921517042183055","0","","","","","",""
"","do_trial","260","1782231","0.0-232.0-0.0","1148.2999999523163","","","","49","1,0,1","4","city","178","probe-27","0.434541206981746","0.18821437866720012","0.760650922037548","1","","","","","",""
"","do_trial","261","1788319","0.0-233.0-0.0","515.5","","","","49","1,0,0","4","city","179","probe-168","0.3299838000231458","0.07051301282360325","0.7057173183437756","1","","","","","",""
"","do_trial","262","1795420","0.0-234.0-0.0","1530.6000001430511","","","","49","1,0,1","4","city","180","probe-157","0.5133779985546459","0.07312088040284125","0.7680164774010644","1","","","","","",""
"","do_trial","263","1803839","0.0-235.0-0.0","2836.7999999523163","","","","49","0,1,1","4","city","181","probe-189","0.27622750285641223","0.14207327816297702","0.8214193975985796","0","","","","","",""
"","do_trial","264","1810054","0.0-236.0-0.0","623.1999998092651","","","","49","0,0,1","4","city","182","probe-49","0.2760020959742164","0.053140872509531645","0.9485971232637234","0","","","","","",""
"","do_trial","265","1816119","0.0-237.0-0.0","475.30000019073486","","","","49","0,0,1","4","city","183","probe-144","0.29445077496393124","0.061506941104341996","0.8902144521859064","0","","","","","",""
"","do_trial","266","1822203","0.0-238.0-0.0","508.59999990463257","","","","49","1,0,1","4","city","184","probe-145","0.40707108987284557","0.055548887912382876","0.9409755026169004","1","","","","","",""
"","do_trial","267","1828801","0.0-239.0-0.0","1020.9000000953674","","","","49","0,0,1","4","city","185","probe-57","0.3599403498255731","0.12195358392121676","0.8995950943168336","0","","","","","",""
"","do_trial","268","1835593","0.0-240.0-0.0","1205.4000000953674","","","","49","0,0,1","4","city","186","probe-154","0.3265672163907206","0.13598341009417994","0.8957300119241391","0","","","","","",""
"","do_trial","269","1842091","0.0-241.0-0.0","915.2000000476837","","","","49","0,0,1","4","city","187","probe-190","0.46427812814713226","0.06162958959918059","0.8702781890045794","0","","","","","",""
"","do_trial","270","1849625","0.0-242.0-0.0","1936.5","","","","49","1,0,1","4","city","188","probe-39","0.5118950751878691","0.08762012975101875","0.8260162862134677","1","","","","","",""
"","do_trial","271","1856447","0.0-243.0-0.0","1230.5","","","","49","1,1,1","4","city","189","probe-220","0.49474619368386485","0.07361867629164907","0.9480769263658825","1","","","","","",""
"","do_trial","272","1863513","0.0-244.0-0.0","1475.2000000476837","","","","49","1,0,1","4","city","190","probe-13","0.43487729381660145","0.1180947532396935","0.8667153070666175","1","","","","","",""
"","do_trial","273","1870541","0.0-245.0-0.0","1431.5999999046326","","","","49","1,0,1","4","city","191","probe-221","0.34105169725465756","0.1863975101580879","0.7653803592066047","1","","","","","",""
"","do_trial","274","1877304","0.0-246.0-0.0","1170","","","","49","1,0,1","4","city","192","probe-15","0.20741608233239103","0.16161835457765103","0.6595154645927588","1","","","","","",""
"","do_trial","275","1884015","0.0-247.0-0.0","1134.2000000476837","","","","49","0,1,0","4","city","193","probe-81","0.3020816440710731","0.13163159479795675","0.7528684969417404","0","","","","","",""
"","do_trial","276","1890090","0.0-248.0-0.0","null","","","","null","0,0,1","4","city","194","probe-09","0.38317952189603544","0.0652267275233514","0.7676702289490553","","","","","","",""
"","do_trial","277","1896048","0.0-249.0-0.0","360.10000014305115","","","","49","1,0,0","4","city","195","probe-139","0.4550424366693877","0.14549207431238856","0.729506849277173","1","","","","","",""
"","do_trial","278","1902440","0.0-250.0-0.0","792.2999999523163","","","","49","1,0,1","4","city","196","probe-141","0.31766332319573837","0.13367815365872834","0.8607258403329948","1","","","","","",""
"","do_trial","279","1909762","0.0-251.0-0.0","1742.2999999523163","","","","49","0,1,1","4","city","197","probe-179","0.34775691101719075","0.06829067005674913","0.6999623756383672","0","","","","","",""
"","do_trial","280","1916058","0.0-252.0-0.0","716.5","","","","49","1,0,1","4","city","198","probe-134","0.31849035636182105","0.07234033098071443","0.7953045085505599","1","","","","","",""
"","do_trial","281","1922086","0.0-253.0-0.0","426.10000014305115","","","","49","1,0,1","4","city","199","probe-153","0.25131073975645846","0.08905774678438526","0.892641705032272","1","","","","","",""
"","do_bye","282","1923606","0.0-254.0-0.0","null","","","","null","","","","","","","","","","","","","","",""
"","do_travel","283","1929624","0.0-255.0-0.0","null","","","","null","","","","","","","","","","","","","","",""
"","do_welcome","284","1931152","0.0-255.0-1.0","null","","","","null","","","","","","","","","","","","","","",""
"","do_trial","285","1937841","0.0-256.0-0.0","1111.3999998569489","","","","49","0,0,1","5","highway","200","probe-231","0.3045647481232418","0.09571069877181701","1","0","","","","","",""
"","do_trial","286","1943766","0.0-257.0-0.0","312.7999999523163","","","","50","0,0,1","5","highway","201","probe-136","0.3934371033940524","0.15538397248883132","1","0","","","","","",""
"","do_trial","287","1949671","0.0-258.0-0.0","310.90000009536743","","","","50","1,0,1","5","highway","202","probe-71","0.43072458055533397","0.07843250513565732","1","0","","","","","",""
"","do_trial","288","1955545","0.0-259.0-0.0","260","","","","51","1,0,1","5","highway","203","probe-61","0.3742282048005809","0.0612899070758849","1","1","","","","","",""
"","do_trial","289","1961621","0.0-260.0-0.0","492.7000000476837","","","","51","0,0,1","5","highway","204","probe-232","0.3429475359918189","0.1278537677950819","0.9199994132777161","1","","","","","",""
"","do_trial","290","1967873","0.0-261.0-0.0","644","","","","51","1,0,1","5","highway","205","probe-83","0.3080349287080859","0.07304857031720843","0.8453392053006304","1","","","","","",""
"","do_trial","291","1974200","0.0-262.0-0.0","747.5","","","","51","0,0,1","5","highway","206","probe-33","0.26052079113555626","0.1481909630234923","0.8905345568939048","1","","","","","",""
"","do_trial","292","1980407","0.0-263.0-0.0","619.9000000953674","","","","51","0,1,0","5","highway","207","probe-101","0.33803141523152186","0.14038577409667374","0.7927515294294287","0","","","","","",""
"","do_trial","293","1986326","0.0-264.0-0.0","327.2000000476837","","","","51","1,1,1","5","highway","208","probe-180","0.4691890780284341","0.28660386830400586","0.7505090817323083","1","","","","","",""
"","do_trial","294","1992887","0.0-265.0-0.0","978.5999999046326","","","","51","0,1,1","5","highway","209","probe-106","0.4868515339534497","0.3241692928264213","0.779161426616763","1","","","","","",""
"","do_trial","295","1999652","0.0-266.0-0.0","1172.5","","","","51","1,0,1","5","highway","210","probe-209","0.54918129984187","0.18823975233887424","0.6117285007094951","1","","","","","",""
"","do_trial","296","2005744","0.0-267.0-0.0","null","","","","null","1,0,1","5","highway","211","probe-140","0.5961658642237461","0.1124146206786871","0.439988463606194","","","","","","",""
"","do_trial","297","2011697","0.0-268.0-0.0","373.90000009536743","","","","51","1,0,0","5","highway","212","probe-162","0.7004822767822454","0.11227086856743725","0.35186123849562767","0","","","","","",""
"","do_trial","298","2017748","0.0-269.0-0.0","473.39999985694885","","","","51","0,0,1","5","highway","213","probe-200","0.7018301225548298","0.13921075540815395","0.42927851545523604","1","","","","","",""
"","do_trial","299","2023764","0.0-270.0-0.0","437.2999999523163","","","","51","0,0,1","5","highway","214","probe-102","0.7516070216107099","0.1533084914928894","0.3261456643868189","1","","","","","",""
"","do_trial","300","2029885","0.0-271.0-0.0","null","","","","null","1,0,1","5","highway","215","probe-206","0.675033857392883","0.05676669516486044","0.40295823580611706","","","","","","",""
"","do_trial","301","2035783","0.0-272.0-0.0","306.2999999523163","","","","51","1,0,0","5","highway","216","probe-62","0.5969660167445191","0.08674780724457659","0.370580536279885","0","","","","","",""
"","do_trial","302","2041967","0.0-273.0-0.0","578.7999999523163","","","","51","1,0,1","5","highway","217","probe-72","0.8098020019855077","0.11273043093755539","0.47029751541241605","1","","","","","",""
"","do_trial","303","2049507","0.0-274.0-0.0","1950.7000000476837","","","","51","1,0,1","5","highway","218","probe-17","0.7229829308430428","0.30682878104095124","0.5211428842354738","1","","","","","",""
"","do_trial","304","2056839","0.0-275.0-0.0","1751.5","","","","51","0,0,0","5","highway","219","probe-113","0.7280462759212775","0.08840140105711256","0.46009979128580086","0","","","","","",""
"","do_trial","305","2063760","0.0-276.0-0.0","1335.9000000953674","","","","51","0,0,0","5","highway","220","probe-86","0.6176871049141653","0.08964227865070715","0.457778378237596","0","","","","","",""
"","do_trial","306","2069747","0.0-277.0-0.0","403.7000000476837","","","","51","1,0,0","5","highway","221","probe-163","0.7622225050958076","0.09994522458239136","0.3866911697561792","0","","","","","",""
"","do_trial","307","2075923","0.0-278.0-0.0","588.3999998569489","","","","51","0,1,1","5","highway","222","probe-26","0.6747800490952983","0.24947157493538036","0.400754222626634","1","","","","","",""
"","do_trial","308","2082278","0.0-279.0-0.0","778","","","","51","0,1,0","5","highway","223","probe-66","0.7270507505231512","0.22049554576537211","0.4315579731830653","0","","","","","",""
"","do_trial","309","2088615","0.0-280.0-0.0","743.9000000953674","","","","51","1,0,1","5","highway","224","probe-01","0.8049176883679815","0.19323994436297637","0.5905593209450085","1","","","","","",""
"","do_trial","310","2094792","0.0-281.0-0.0","585.7000000476837","","","","51","1,0,1","5","highway","225","probe-89","0.9024576069761514","0.16469694200324264","0.4979120218130042","1","","","","","",""
"","do_trial","311","2102126","0.0-282.0-0.0","1741.8999998569489","","","","51","0,1,0","5","highway","226","probe-176","0.7940757309882074","0.12922183375495755","0.484201969590818","0","","","","","",""
"","do_trial","312","2108029","0.0-283.0-0.0","314.69999980926514","","","","49","1,0,1","5","highway","227","probe-104","0.648191586408943","0.2259004985273433","0.4132088056155027","1","","","","","",""
"","do_trial","313","2113999","0.0-284.0-0.0","389.7000000476837","","","","49","1,0,1","5","highway","228","probe-222","0.6180094911105355","0.22467631334127805","0.3943335407734037","1","","","","","",""
"","do_trial","314","2120465","0.0-285.0-0.0","874.2000000476837","","","","49","0,0,0","5","highway","229","probe-126","0.6183399365451987","0.08347344123012095","0.3211415622084245","0","","","","","",""
"","do_trial","315","2128037","0.0-286.0-0.0","1978.9000000953674","","","","50","0,0,0","5","highway","230","probe-75","0.5238298404381806","0.13170197293266353","0.3448774912896657","0","","","","","",""
"","do_trial","316","2134709","0.0-287.0-0.0","1081.8999998569489","","","","51","1,0,1","5","highway","231","probe-93","0.5367029377706034","0.11323302737540031","0.33082305080110225","1","","","","","",""
"","do_trial","317","2142040","0.0-288.0-0.0","1745.1000001430511","","","","51","1,1,0","5","highway","232","probe-44","0.6449430332494958","0.20403505662785734","0.27465172561190637","0","","","","","",""
"","do_trial","318","2150314","0.0-289.0-0.0","2673.600000143051","","","","51","0,0,0","5","highway","233","probe-70","0.5902460326825089","0.15145232995912752","0.36588340106354855","0","","","","","",""
"","do_trial","319","2157080","0.0-290.0-0.0","1198.0999999046326","","","","51","1,1,1","5","highway","234","probe-169","0.671092761290953","0.21140264917274804","0.4597612456429049","1","","","","","",""
"","do_trial","320","2164510","0.0-291.0-0.0","1845.5999999046326","","","","51","1,0,0","5","highway","235","probe-193","0.8264363278954577","0.1646126124578669","0.318155539082498","0","","","","","",""
"","do_trial","321","2172372","0.0-292.0-0.0","2276.4000000953674","","","","51","1,0,1","5","highway","236","probe-121","0.7471611297769754","0.24174387230720143","0.3905393178507983","1","","","","","",""
"","do_trial","322","2178609","0.0-293.0-0.0","645.0999999046326","","","","51","1,0,1","5","highway","237","probe-16","0.6538180721935961","0.09354542194111208","0.44044424978002567","1","","","","","",""
"","do_trial","323","2184751","0.0-294.0-0.0","498.7999999523163","","","","51","1,1,0","5","highway","238","probe-108","0.6303730158751983","0.17655900781172215","0.3559148191952332","0","","","","","",""
"","do_trial","324","2190657","0.0-295.0-0.0","312.09999990463257","","","","50","1,1,0","5","highway","239","probe-186","0.8094993400495818","0.16075020615202967","0.3471814726454217","1","","","","","",""
"","do_bye","325","2192184","0.0-296.0-0.0","null","","","","null","","","","","","","","","","","","","","",""
"","html-keyboard-response","326","2312198","0.0-296.0-1.0","null","<div class='center'><p>You may take a break now!</p><p> Stretch for a little bit. Get a glass of water.</p><p> You have two minutes to rest. Then, the game will automatically move on.</p><p>If you’d like to get started on the second half of the experiment sooner, then press the <b>space bar</b></p></div>","null","","","","","","","","","","","","","","","","",""
"","html-keyboard-response","327","2344912","0.0-296.0-2.0","32708","<div class='center'><p>You’ve arrived at the final destination of your journey! Unfortunately, it’s very foggy out, so you won’t be able to see it in the distance like in previous places you've visited.</p><p>You’ll still be deciding which pirates you want to rob ships. However, because of the fog you also won’t be able to see the ship in the distance. </p><p><b>[Press the space bar to continue]</b></p></div>","32","","","","","","","","","","","","","","","","",""
"","html-keyboard-response","328","2612758","0.0-296.0-3.0","267842.40000009537","<div class='center'><p> Sometimes you’ll be asked if you’ve seen a ship before (see the example below). You will use the 5, 6, 7, 8 buttons on your keyboard to respond. </p><p> If you definitely did not see the ship, pick the the big red thumbs down by pressing <b>5</b>.</p><p> If you don’t think you saw it but aren’t sure, then pick the small red thumbs down by pressing <b>6</b>.</p><p> If you think you might have seen it, then pick the small green thumbs up by pressing <b>7</b>.</p><p> If you definitely did see this ship before, then pick the big thumb green thumbs up by pressing <b>8</b>.</p><p> If you recall correctly, then you’ll get a gold coin!</p><p><b>[Press the space bar to begin the next phase of the experiment]</b></p><p><img src='run_exp/static/images/example_recog_trial.png' height='500'></p></div>","32","","","","","","","","","","","","","","","","",""
"","do_welcome","329","2614284","0.0-296.0-4.0","null","","","","null","","","","","","","","","","","","","","",""
"","do_trial","330","2620423","0.0-297.0-0.0","null","","","","null","1,1,0","6","blank","240","null","1","0.15612060566898306","0.2774646479243751","","","","","","",""
"","do_trial","331","2625007","0.0-298.0-0.0","992.4000000953674","","","","49","1,0,0","6","blank","241","null","0.8591339402229748","0.21886538204028494","0.22347654930986732","1","","","","","",""
"","do_recog","332","2631039","0.0-299.0-0.0","null","","","","null","","","","242","probe-83","","","","","1","[object Object]","205","5","0",""
"","do_trial","333","2636118","0.0-300.0-0.0","1496.7999999523163","","","","50","0,0,1","6","blank","243","null","0.760268070125011","0.2977843226986518","0.3349767259183249","0","","","","","",""
"","do_trial","334","2640912","0.0-301.0-0.0","1208.4000000953674","","","","49","1,0,1","6","blank","244","null","0.6353561834858714","0.305176236015355","0.47810903018508966","1","","","","","",""
"","do_trial","335","2646736","0.0-302.0-0.0","2232.899999856949","","","","51","1,0,1","6","blank","245","null","0.5872395433841104","0.24946576582559996","0.3601561393414365","1","","","","","",""
"","do_recog","336","2651815","0.0-303.0-0.0","3547.4000000953674","","","","53","","","","246","probe-253","","","","","0","[object Object]","null","null","1",""
"","do_trial","337","2657901","0.0-304.0-0.0","null","","","","null","0,1,0","6","blank","247","null","0.7663046637274392","0.29006260219292207","0.39458602352885463","","","","","","",""
"","do_recog","338","2661806","0.0-305.0-0.0","2377.5","","","","53","","","","248","probe-05","","","","","1","[object Object]","124","3","0",""
"","do_trial","339","2667901","0.0-306.0-0.0","null","","","","null","0,0,1","6","blank","249","null","0.671258992719094","0.15100443626542137","0.3456485304523352","","","","","","",""
"","do_trial","340","2671955","0.0-307.0-0.0","467.10000014305115","","","","50","1,1,0","6","blank","250","null","0.6515338584253426","0.10454439553233166","0.2900986232695496","1","","","","","",""
"","do_recog","341","2676720","0.0-308.0-0.0","3240.7000000476837","","","","56","","","","251","probe-55","","","","","1","[object Object]","129","3","1",""
"","do_trial","342","2682567","0.0-309.0-0.0","2247.2000000476837","","","","49","0,0,1","6","blank","252","null","0.764741372985168","0.09271376089072328","0.4076701396252467","0","","","","","",""
"","do_trial","343","2687199","0.0-310.0-0.0","1036.7999999523163","","","","49","1,0,0","6","blank","253","null","0.6790564565139822","0.15887818718544344","0.42376372925317407","1","","","","","",""
"","do_trial","344","2693366","0.0-311.0-0.0","2580.5999999046326","","","","49","1,0,1","6","blank","254","null","0.6061037317375889","0.3283908064982134","0.7061648207580078","1","","","","","",""
"","do_recog","345","2697824","0.0-312.0-0.0","2927","","","","56","","","","255","probe-97","","","","","1","[object Object]","40","1","1",""
"","do_trial","346","2703217","0.0-313.0-0.0","1775.9000000953674","","","","49","0,0,1","6","blank","256","null","0.42165356275290417","0.16999968170685612","0.731854344695022","0","","","","","",""
"","do_recog","347","2707172","0.0-314.0-0.0","2436.199999809265","","","","56","","","","257","probe-129","","","","","1","[object Object]","121","3","1",""
"","do_trial","348","2713293","0.0-315.0-0.0","null","","","","null","0,0,1","6","blank","258","null","0.40377891949260375","0.18222009059218222","0.8097163179191957","","","","","","",""
"","do_recog","349","2716342","0.0-316.0-0.0","1518.4000000953674","","","","56","","","","259","probe-149","","","","","1","[object Object]","165","4","1",""
"","do_trial","350","2721229","0.0-317.0-0.0","1293.9000000953674","","","","50","0,0,1","6","blank","260","null","0.3535475480366342","0.08494007419822984","0.8307303414036605","0","","","","","",""
"","do_trial","351","2725375","0.0-318.0-0.0","556","","","","49","0,0,1","6","blank","261","null","0.31437315279305056","0.06105951584587107","0.7286087054033","0","","","","","",""
"","do_trial","352","2729288","0.0-319.0-0.0","333.5","","","","51","0,0,1","6","blank","262","null","0.6643387837277482","0.08017548540261023","0.7476839549246312","1","","","","","",""
"","do_trial","353","2733827","0.0-320.0-0.0","924","","","","49","0,0,0","6","blank","263","null","0.5468817693327673","0.06421830926814931","0.7680110312706069","0","","","","","",""
"","do_trial","354","2737760","0.0-321.0-0.0","324","","","","51","1,0,0","6","blank","264","null","0.60609242966254","0.1981898483431635","0.7882701197791516","0","","","","","",""
"","do_trial","355","2741682","0.0-322.0-0.0","337.59999990463257","","","","50","1,0,0","6","blank","265","null","0.6540227713244546","0.11603996535880928","0.7583587706921219","0","","","","","",""
"","do_trial","356","2745635","0.0-323.0-0.0","372.5","","","","49","0,0,1","6","blank","266","null","0.5115387449691738","0.08895436299034552","0.6603032248084055","0","","","","","",""
"","do_recog","357","2749965","0.0-324.0-0.0","2803.2000000476837","","","","53","","","","267","probe-08","","","","","1","[object Object]","162","4","0",""
"","do_trial","358","2754216","0.0-325.0-0.0","659.7000000476837","","","","49","0,0,1","6","blank","268","null","0.486052827894598","0.06119882315851651","0.710348191347385","0","","","","","",""
"","do_recog","359","2757293","0.0-326.0-0.0","1556.9000000953674","","","","53","","","","269","probe-02","","","","","1","[object Object]","83","2","0",""
"","do_trial","360","2761699","0.0-327.0-0.0","819.1000001430511","","","","49","0,0,1","6","blank","270","null","0.4337922109699096","0.15644520148684415","0.7665255756518716","0","","","","","",""
"","do_trial","361","2765737","0.0-328.0-0.0","462.90000009536743","","","","50","0,0,1","6","blank","271","null","0.5946877734527363","0.06613234094328674","0.7183057255646768","0","","","","","",""
"","do_recog","362","2768800","0.0-329.0-0.0","1529","","","","56","","","","272","probe-170","","","","","1","[object Object]","161","4","1",""
"","do_trial","363","2773388","0.0-330.0-0.0","1000.4000000953674","","","","49","1,0,1","6","blank","273","null","0.42832419833835617","0.14310034717892017","0.753179673443345","1","","","","","",""
"","do_trial","364","2778053","0.0-331.0-0.0","1047.4000000953674","","","","51","0,1,1","6","blank","274","null","0.46523132978746456","0.10084130434490518","0.7802461821693969","1","","","","","",""
"","do_trial","365","2782280","0.0-332.0-0.0","631.2000000476837","","","","50","0,1,1","6","blank","275","null","0.4686386296240259","0.11434682114757169","0.6972628884785602","1","","","","","",""
"","do_recog","366","2785421","0.0-333.0-0.0","1611","","","","53","","","","276","probe-252","","","","","0","[object Object]","null","null","1",""
"","do_trial","367","2789790","0.0-334.0-0.0","796.7000000476837","","","","49","1,0,1","6","blank","277","null","0.4080961955551416","0.1614506183162403","0.8425945548790631","1","","","","","",""
"","do_trial","368","2794354","0.0-335.0-0.0","972.2000000476837","","","","51","0,1,1","6","blank","278","null","0.335162302684826","0.29196641206556484","0.8838598299152994","1","","","","","",""
"","do_recog","369","2797356","0.0-336.0-0.0","1470.6999998092651","","","","53","","","","279","probe-192","","","","","1","[object Object]","86","2","0",""
"","do_trial","370","2802042","0.0-337.0-0.0","1089.3999998569489","","","","50","0,0,1","6","blank","280","null","0.4879271246622097","0.28173618690938124","0.9030070984938129","0","","","","","",""
"","do_recog","371","2806062","0.0-338.0-0.0","2502.699999809265","","","","56","","","","281","probe-229","","","","","1","[object Object]","122","3","1",""
"","do_trial","372","2810733","0.0-339.0-0.0","1066.5","","","","49","0,1,1","6","blank","282","null","0.4344556564760702","0.24616729724581293","0.8484703835040524","0","","","","","",""
"","do_recog","373","2813485","0.0-340.0-0.0","1227.0999999046326","","","","56","","","","283","probe-84","","","","","1","[object Object]","48","1","1",""
"","do_trial","374","2817498","0.0-341.0-0.0","346.5","","","","50","1,0,1","6","blank","284","null","0.5184168539035928","0.25950886096083847","1","0","","","","","",""
"","do_trial","375","2821340","0.0-342.0-0.0","265.19999980926514","","","","51","0,0,1","6","blank","285","null","0.37063523819562755","0.22662118199274298","0.9491758196780602","1","","","","","",""
"","do_recog","376","2824949","0.0-343.0-0.0","2083","","","","53","","","","286","probe-61","","","","","1","[object Object]","203","5","0",""
"","do_trial","377","2829136","0.0-344.0-0.0","609.5","","","","49","1,0,1","6","blank","287","null","0.5337558381193759","0.08472721106694073","0.9250507414818872","1","","","","","",""
"","do_recog","378","2833077","0.0-345.0-0.0","2418.5","","","","53","","","","288","probe-250","","","","","0","[object Object]","null","null","1",""
"","do_trial","379","2837216","0.0-346.0-0.0","552.5999999046326","","","","51","1,0,1","6","blank","289","null","0.5515573273693875","0.10751720959222666","0.8750653485294005","1","","","","","",""
"","do_recog","380","2840214","0.0-347.0-0.0","1476.0999999046326","","","","56","","","","290","probe-172","","","","","1","[object Object]","126","3","1",""
"","do_trial","381","2846090","0.0-348.0-0.0","2282.7999999523163","","","","49","0,0,1","6","blank","291","null","0.3224608894240352","0.10760763543609736","0.9056770053919644","0","","","","","",""
"","do_recog","382","2850167","0.0-349.0-0.0","2545.5","","","","56","","","","292","probe-223","","","","","1","[object Object]","82","2","1",""
"","do_trial","383","2854325","0.0-350.0-0.0","566.9000000953674","","","","49","1,0,1","6","blank","293","null","0.37788103539036927","0.08586425384625158","0.816867851385731","1","","","","","",""
"","do_recog","384","2857372","0.0-351.0-0.0","1520.0999999046326","","","","53","","","","294","probe-103","","","","","1","[object Object]","164","4","0",""
"","do_trial","385","2862089","0.0-352.0-0.0","1130.7000000476837","","","","50","0,0,1","6","blank","295","null","0.3156894987758813","0.06484390700927924","0.7633932999142303","0","","","","","",""
"","do_recog","386","2864688","0.0-353.0-0.0","1073.7000000476837","","","","56","","","","296","probe-115","","","","","1","[object Object]","128","3","1",""
"","do_trial","387","2869343","0.0-354.0-0.0","1062.0999999046326","","","","49","1,1,1","6","blank","297","null","0.21085310774124438","0.07903242361598252","0.7536310229073301","1","","","","","",""
"","do_recog","388","2871954","0.0-355.0-0.0","1074.6999998092651","","","","56","","","","298","probe-47","","","","","1","[object Object]","88","2","1",""
"","do_trial","389","2876019","0.0-356.0-0.0","464.7000000476837","","","","51","1,0,1","6","blank","299","null","0.31024576015724564","0.12744462990573763","0.8868093081854668","1","","","","","",""
"","do_trial","390","2880073","0.0-357.0-0.0","476.2000000476837","","","","50","1,0,1","6","blank","300","null","0.4588581649933083","0.06270216770632396","0.8844042406323948","0","","","","","",""
"","do_trial","391","2884015","0.0-358.0-0.0","358.40000009536743","","","","49","1,0,1","6","blank","301","null","0.4864416536862153","0.09278060645633762","0.8494539840730098","1","","","","","",""
"","do_recog","392","2886598","0.0-359.0-0.0","1064.7999999523163","","","","56","","","","302","probe-96","","","","","1","[object Object]","163","4","1",""
"","do_trial","393","2890897","0.0-360.0-0.0","696.5999999046326","","","","50","1,0,1","6","blank","303","null","0.5534699923275135","0.16692635176888992","0.7635790536417635","0","","","","","",""
"","do_trial","394","2894819","0.0-361.0-0.0","348.2999999523163","","","","49","0,0,1","6","blank","304","null","0.710744646998284","0.05849039073278051","0.5551722047718766","0","","","","","",""
"","do_trial","395","2898690","0.0-362.0-0.0","277.30000019073486","","","","49","1,0,1","6","blank","305","null","0.7693160145327247","0.14239578848734202","0.4570359927442123","1","","","","","",""
"","do_trial","396","2902948","0.0-363.0-0.0","677.5999999046326","","","","49","1,0,0","6","blank","306","null","0.7569500191941395","0.06614266620040782","0.32827337513372945","1","","","","","",""
"","do_trial","397","2906943","0.0-364.0-0.0","390.7999999523163","","","","49","1,0,0","6","blank","307","null","0.7081330184530638","0.11710566389814499","0.492309829856592","1","","","","","",""
"","do_recog","398","2909851","0.0-365.0-0.0","1389","","","","53","","","","308","probe-245","","","","","0","[object Object]","null","null","1",""
"","do_trial","399","2914031","0.0-366.0-0.0","560.0999999046326","","","","49","0,0,0","6","blank","309","null","0.8011147615623846","0.1493959665232818","0.49012661802437857","0","","","","","",""
"","do_recog","400","2916845","0.0-367.0-0.0","1291.9000000953674","","","","56","","","","310","probe-239","","","","","1","[object Object]","49","1","1",""
"","do_trial","401","2921058","0.0-368.0-0.0","621","","","","49","1,0,0","6","blank","311","null","0.8203030108916296","0.20140809601740373","0.4361173000191116","1","","","","","",""
"","do_recog","402","2924759","0.0-369.0-0.0","2175.5","","","","53","","","","312","probe-91","","","","","1","[object Object]","44","1","0",""
"","do_trial","403","2929028","0.0-370.0-0.0","683.6999998092651","","","","51","1,0,0","6","blank","313","null","0.8450919416287539","0.17540895640489063","0.4860863218474783","0","","","","","",""
"","do_recog","404","2932315","0.0-371.0-0.0","1769.6000001430511","","","","56","","","","314","probe-105","","","","","1","[object Object]","87","2","1",""
"","do_trial","405","2936447","0.0-372.0-0.0","546","","","","51","1,0,0","6","blank","315","null","0.8240806833723859","0.3280856322484142","0.49485908890191155","0","","","","","",""
"","do_recog","406","2939620","0.0-373.0-0.0","1652.7999999523163","","","","56","","","","316","probe-71","","","","","1","[object Object]","202","5","1",""
"","do_trial","407","2944480","0.0-374.0-0.0","1276.4000000953674","","","","49","1,1,0","6","blank","317","null","0.8122451365696008","0.22447437624570923","0.40948519163706354","1","","","","","",""
"","do_recog","408","2949590","0.0-375.0-0.0","3592","","","","56","","","","318","probe-158","","","","","1","[object Object]","167","4","1",""
"","do_trial","409","2954681","0.0-376.0-0.0","1512.2999999523163","","","","49","1,1,0","6","blank","319","null","0.8818992937616911","0.1279006478518765","0.30412744429183625","1","","","","","",""
"","do_recog","410","2958021","0.0-377.0-0.0","1821.2000000476837","","","","56","","","","320","probe-58","","","","","1","[object Object]","169","4","1",""
"","do_trial","411","2963328","0.0-378.0-0.0","1730.9000000953674","","","","49","0,1,0","6","blank","321","null","0.7724858345321617","0.21294396581416716","0.36608177276042364","0","","","","","",""
"","do_recog","412","2966382","0.0-379.0-0.0","1533.7000000476837","","","","56","","","","322","probe-137","","","","","1","[object Object]","166","4","1",""
"","do_trial","413","2970580","0.0-380.0-0.0","603.9000000953674","","","","49","1,0,1","6","blank","323","null","0.8982559296596014","0.2709605523264078","0.5107687281783564","1","","","","","",""
"","do_trial","414","2974765","0.0-381.0-0.0","592.2999999523163","","","","51","0,1,0","6","blank","324","null","0.8647091517264553","0.21610601238514357","0.4076205970641742","0","","","","","",""
"","do_recog","415","2977500","0.0-382.0-0.0","1214.2999999523163","","","","56","","","","325","probe-41","","","","","1","[object Object]","125","3","1",""
"","do_trial","416","2981601","0.0-383.0-0.0","510.5","","","","49","0,1,1","6","blank","326","null","0.8678877709149616","0.2836283094598552","0.3672650491730674","0","","","","","",""
"","do_trial","417","2985492","0.0-384.0-0.0","296.7000000476837","","","","51","1,0,1","6","blank","327","null","0.8104336300371694","0.2384384951849491","0.21471188492118048","1","","","","","",""
"","do_trial","418","2989486","0.0-385.0-0.0","409.40000009536743","","","","51","1,1,0","6","blank","328","null","0.8484359519104147","0.30271202092705446","0.2718678854830579","0","","","","","",""
"","do_recog","419","2993006","0.0-386.0-0.0","1994.2000000476837","","","","53","","","","329","probe-106","","","","","1","[object Object]","209","5","0",""
"","do_trial","420","2997463","0.0-387.0-0.0","857.6000001430511","","","","49","1,0,1","6","blank","330","null","0.809441627647673","0.27247650471330725","0.4269979826903045","1","","","","","",""
"","do_trial","421","3002249","0.0-388.0-0.0","1200.2999999523163","","","","51","1,1,0","6","blank","331","null","0.8202659704557739","0.12037368328336402","0.4550385847121028","0","","","","","",""
"","do_recog","422","3005094","0.0-389.0-0.0","1319.3000001907349","","","","56","","","","332","probe-198","","","","","1","[object Object]","43","1","1",""
"","do_trial","423","3009201","0.0-390.0-0.0","516.6000001430511","","","","49","1,0,0","6","blank","333","null","1","0.054097912060575154","0.47694388201465054","1","","","","","",""
"","do_recog","424","3012293","0.0-391.0-0.0","1562.9000000953674","","","","56","","","","334","probe-199","","","","","1","[object Object]","42","1","1",""
"","do_trial","425","3016337","0.0-392.0-0.0","473","","","","49","1,0,0","6","blank","335","null","0.8986739764066602","0.13776401688117457","0.41917126484627715","1","","","","","",""
"","do_recog","426","3019092","0.0-393.0-0.0","1228.7999999523163","","","","56","","","","336","probe-118","","","","","1","[object Object]","47","1","1",""
"","do_trial","427","3025183","0.0-394.0-0.0","null","","","","null","1,0,1","6","blank","337","null","0.7899698909322947","0.17677389322834297","0.3479775904378265","","","","","","",""
"","do_trial","428","3029515","0.0-395.0-0.0","750","","","","49","1,0,1","6","blank","338","null","0.7401382795399815","0.2377150683653904","0.36614580770814414","1","","","","","",""
"","do_trial","429","3035126","0.0-396.0-0.0","2010","","","","49","1,1,1","6","blank","339","null","0.6748907869066244","0.19578456465952637","0.30485607582025076","1","","","","","",""
"","do_recog","430","3037903","0.0-397.0-0.0","1244.2999999523163","","","","56","","","","340","probe-214","","","","","1","[object Object]","45","1","1",""
"","do_trial","431","3042044","0.0-398.0-0.0","556.9000000953674","","","","51","1,0,0","6","blank","341","null","0.6079766389073659","0.06092631555040983","0.28983932002077667","0","","","","","",""
"","do_trial","432","3046106","0.0-399.0-0.0","456.2000000476837","","","","50","0,0,0","6","blank","342","null","0.6852536646799007","0.11565047443960381","0.29419007112964707","0","","","","","",""
"","do_trial","433","3050030","0.0-400.0-0.0","330.90000009536743","","","","49","1,0,0","6","blank","343","null","0.7184034215306779","0.2805242257255414","0.18066772572500206","1","","","","","",""
"","do_trial","434","3054089","0.0-401.0-0.0","466","","","","49","1,1,0","6","blank","344","null","0.8100937799817481","0.36777311564818826","0.39221720134461374","1","","","","","",""
"","do_trial","435","3057968","0.0-402.0-0.0","294.5","","","","49","1,1,1","6","blank","345","null","0.9061322465682554","0.23442461938401823","0.4672983785904941","1","","","","","",""
"","do_recog","436","3060390","0.0-403.0-0.0","901.5999999046326","","","","56","","","","346","probe-06","","","","","1","[object Object]","41","1","1",""
"","do_trial","437","3064288","0.0-404.0-0.0","322.90000009536743","","","","49","0,0,1","6","blank","347","null","0.6980830426534916","0.13322837819000521","0.4917302258289159","0","","","","","",""
"","do_recog","438","3066784","0.0-405.0-0.0","970.7000000476837","","","","56","","","","348","probe-143","","","","","1","[object Object]","168","4","1",""
"","do_trial","439","3071388","0.0-406.0-0.0","1024.4000000953674","","","","49","1,0,0","6","blank","349","null","0.6010836395870355","0.09746130510444007","0.4832865409704792","1","","","","","",""
"","do_recog","440","3074040","0.0-407.0-0.0","1131.0999999046326","","","","56","","","","350","probe-99","","","","","1","[object Object]","84","2","1",""
"","do_trial","441","3078026","0.0-408.0-0.0","412.40000009536743","","","","49","0,0,1","6","blank","351","null","0.42873582145106176","0.13474967774242905","0.6450510709371647","0","","","","","",""
"","do_recog","442","3080592","0.0-409.0-0.0","1038.1000001430511","","","","53","","","","352","probe-247","","","","","0","[object Object]","null","null","1",""
"","do_trial","443","3085010","0.0-410.0-0.0","797.8000001907349","","","","51","0,0,1","6","blank","353","null","0.31804088861981744","0.1336365971963178","0.7125462391476474","1","","","","","",""
"","do_recog","444","3088041","0.0-411.0-0.0","1499","","","","56","","","","354","probe-85","","","","","1","[object Object]","81","2","1",""
"","do_trial","445","3092651","0.0-412.0-0.0","1012.0999999046326","","","","51","0,0,0","6","blank","355","null","0.3602085730892095","0.15676121094096654","0.8028734571737914","0","","","","","",""
"","do_recog","446","3095245","0.0-413.0-0.0","1064.1000001430511","","","","56","","","","356","probe-101","","","","","1","[object Object]","207","5","1",""
"","do_trial","447","3099323","0.0-414.0-0.0","477.59999990463257","","","","50","1,0,0","6","blank","357","null","0.3949225656300369","0.06008525697675559","0.7905968486674485","0","","","","","",""
"","do_trial","448","3103260","0.0-415.0-0.0","350.7000000476837","","","","49","0,1,1","6","blank","358","null","0.44402266750374614","0.18732101413707788","0.851911048852925","0","","","","","",""
"","do_trial","449","3107684","0.0-416.0-0.0","839.2000000476837","","","","50","1,0,0","6","blank","359","null","0.3471934117157248","0.07767300027116399","0.8029220705219834","0","","","","","",""
"","do_trial","450","3111626","0.0-417.0-0.0","331.19999980926514","","","","49","0,0,1","6","blank","360","null","0.3614254220707029","0.11748313884198963","0.8067271000367033","0","","","","","",""
"","do_recog","451","3114436","0.0-418.0-0.0","1283.8999998569489","","","","56","","","","361","probe-67","","","","","1","[object Object]","89","2","1",""
"","do_trial","452","3118872","0.0-419.0-0.0","841.3999998569489","","","","49","1,0,1","6","blank","362","null","0.38606495234178395","0.05770711021503967","0.8161506741393727","1","","","","","",""
"","do_trial","453","3123126","0.0-420.0-0.0","656.2000000476837","","","","49","1,0,1","6","blank","363","null","0.2975653775504887","0.19005717303901334","0.7720108516856172","1","","","","","",""
"","do_trial","454","3127826","0.0-421.0-0.0","1113.3999998569489","","","","49","0,0,1","6","blank","364","null","0.2527964327109771","0.19721613642352329","0.6284608119071146","0","","","","","",""
"","do_recog","455","3130514","0.0-422.0-0.0","1165.0999999046326","","","","53","","","","365","probe-156","","","","","1","[object Object]","85","2","0",""
"","do_trial","456","3135627","0.0-423.0-0.0","1518.9000000953674","","","","49","0,0,1","6","blank","366","null","0.25605253568041514","0.17065976324249935","0.746196535996714","0","","","","","",""
"","do_trial","457","3140049","0.0-424.0-0.0","837.7999999523163","","","","50","1,0,1","6","blank","367","null","0.3364083362650382","0.10461499808390536","0.6359264053128849","0","","","","","",""
"","do_recog","458","3142652","0.0-425.0-0.0","1079.5","","","","56","","","","368","probe-33","","","","","1","[object Object]","206","5","1",""
"","do_trial","459","3146831","0.0-426.0-0.0","572.2000000476837","","","","49","0,1,0","6","blank","369","null","0.39000117231374726","0.11313668288679511","0.732623536190038","0","","","","","",""
"","do_trial","460","3152034","0.0-427.0-0.0","1621.8999998569489","","","","49","0,0,1","6","blank","370","null","0.4179527532217691","0.05385659369243019","0.7828330871777144","0","","","","","",""
"","do_trial","461","3156246","0.0-428.0-0.0","602.5","","","","50","0,0,0","6","blank","371","null","0.40324733808918767","0.12563076615648716","0.7170668093614887","0","","","","","",""
"","do_trial","462","3160389","0.0-429.0-0.0","552.0999999046326","","","","49","0,0,1","6","blank","372","null","0.371391367175985","0.1177628986911709","0.8028224264669088","0","","","","","",""
"","do_recog","463","3163311","0.0-430.0-0.0","1388.8999998569489","","","","53","","","","373","probe-243","","","","","0","[object Object]","null","null","1",""
"","do_trial","464","3168166","0.0-431.0-0.0","1273.9000000953674","","","","50","0,0,1","6","blank","374","null","0.2902078078003407","0.10331900764657846","0.712781878135583","0","","","","","",""
"","do_recog","465","3171233","0.0-432.0-0.0","1537.9000000953674","","","","56","","","","375","probe-232","","","","","1","[object Object]","204","5","1",""
"","do_trial","466","3175291","0.0-433.0-0.0","431.40000009536743","","","","49","0,0,1","6","blank","376","null","0.20504499923005273","0.1274617492884543","0.6923665118183585","0","","","","","",""
"","do_trial","467","3179403","0.0-434.0-0.0","508.80000019073486","","","","50","1,0,1","6","blank","377","null","0.35616337100534773","0.10748034081937412","1","0","","","","","",""
"","do_recog","468","3181951","0.0-435.0-0.0","1029.7000000476837","","","","56","","","","378","probe-203","","","","","1","[object Object]","46","1","1",""
"","do_trial","469","3187311","0.0-436.0-0.0","1784.3999998569489","","","","49","0,0,1","6","blank","379","null","0.3473286643906017","0.12003121560446149","0.8547324964118326","0","","","","","",""
"","do_recog","470","3189860","0.0-437.0-0.0","1016.7999999523163","","","","56","","","","380","probe-19","","","","","1","[object Object]","160","4","1",""
"","do_trial","471","3194040","0.0-438.0-0.0","574.5","","","","49","0,0,0","6","blank","381","null","0.40645667853747625","0.15266806878299616","0.7546771097436357","0","","","","","",""
"","do_recog","472","3196835","0.0-439.0-0.0","1265.1000001430511","","","","56","","","","382","probe-180","","","","","1","[object Object]","208","5","1",""
