"success","trial_type","trial_index","time_elapsed","internal_node_id","rt","stimulus","key_press","subject_id","response","choice_outcomes","context_n","context_img_id","trial_n","probe_img_id","pR_red","pR_white","pR_black","outcome","is_valid","image_to_show","probed_trial","probed_context","correct","context_id"
"true","fullscreen","0","5301","0.0-0.0","","","","","","","","","","","","","","","","","","","",""
"","pavlovia","1","5303","0.0-1.0","","","","","","","","","","","","","","","","","","","",""
"","html-keyboard-response","2","123313","0.0-2.0","118009.20000004768","<div class='center'><p>Welcome! This experiment will last ~1 hour. In this experiment, you are the head captain of a pirate ship traveling around the world to different places. You will complete several different tasks during this experiment. Here is an overview of these tasks:</p><br><p>1. Tutorial and quiz</p><p>2. Pick a pirate game in 6 different places</p><p>3. Pick a pirate game and memory game</p><p>4. Final questions and payment</p><br><p>If you complete the entire experiment, you will receive $15 and a possible bonus payment.</p><p><b>[Press the space bar to begin the tutorial]</b></p></div>","32","610b480c86dc2a9c3289b29f","","","","","","","","","","","","","","","",""
"","html-keyboard-response","3","131133","0.0-3.0","7819.400000095367","<div class='center'><p>You are the head captain of a pirate ship.</p><p> Your pirates rob other ships as they leave the marketplace port.</p> These ships have just sold all their goods at the marketplace, so they have lots and lots of gold on them.</p><p><img src='run_exp/static/images/ship_center.png' height='400'></p><p><b>[Press the space bar to continue]</b></p></div>","32","","","","","","","","","","","","","","","","",""
"","html-keyboard-response","4","147149","0.0-4.0","16015.700000047684","<div class='center'><p>As the head captain, you do not have to rob any ships yourself.</p><p>You get to choose which pirate you want to rob the next ship. </p><p>If they are successful at robbing the ship, then you will get gold coins.</p><p> If they are not successful, then you will get no gold coins.</p><p> The more coins you collect, the more bonus money you will win. So, choose your pirate wisely.</p><p><img src='run_exp/static/images/goal.png' height='400'></p><p><b>[Press the space bar to continue]</b></p><div>","32","","","","","","","","","","","","","","","","",""
"","html-keyboard-response","5","161695","0.0-5.0","14545.899999856949","<div class='center'><p>Even the most skilled pirate will not be able to rob EVERY ship.</p><p> Some ships will have very strong defenses against attacks.</p><p> For example, blue beard, here,  is very good at robbing ships.</p><p> You can press the <b>‘1’</b> button on the keyboard to choose him.</p><p> Try choosing him 10 times to see how often he is successful at robbing ships. </p><p><img src='run_exp/static/images/blue.png' height='500'></p></div>","49","","","","","","","","","","","","","","","","",""
"","html-keyboard-response","6","163198","0.0-6.0","null","<br><br><br><br><p><img src='run_exp/static/images/blue_win.png' height='500'></p>","null","","","","","","","","","","","","","","","","",""
"","html-keyboard-response","7","164435","0.0-7.0","1236.5","<br><br><br><br><p><img src='run_exp/static/images/blue.png' height='500'></p>","49","","","","","","","","","","","","","","","","",""
"","html-keyboard-response","8","165936","0.0-8.0","null","<br><br><br><br><p><img src='run_exp/static/images/blue_win.png' height='500'></p>","null","","","","","","","","","","","","","","","","",""
"","html-keyboard-response","9","166532","0.0-9.0","594.7000000476837","<br><br><br><br><p><img src='run_exp/static/images/blue.png' height='500'></p>","49","","","","","","","","","","","","","","","","",""
"","html-keyboard-response","10","168033","0.0-10.0","null","<br><br><br><br><p><img src='run_exp/static/images/blue_win.png' height='500'></p>","null","","","","","","","","","","","","","","","","",""
"","html-keyboard-response","11","168407","0.0-11.0","373.59999990463257","<br><br><br><br><p><img src='run_exp/static/images/blue.png' height='500'></p>","49","","","","","","","","","","","","","","","","",""
"","html-keyboard-response","12","169908","0.0-12.0","null","<br><br><br><br><p><img src='run_exp/static/images/blue_no_win.png' height='500'></p>","null","","","","","","","","","","","","","","","","",""
"","html-keyboard-response","13","170414","0.0-13.0","504.30000019073486","<br><br><br><br><p><img src='run_exp/static/images/blue.png' height='500'></p>","49","","","","","","","","","","","","","","","","",""
"","html-keyboard-response","14","171915","0.0-14.0","null","<br><br><br><br><p><img src='run_exp/static/images/blue_win.png' height='500'></p>","null","","","","","","","","","","","","","","","","",""
"","html-keyboard-response","15","172385","0.0-15.0","469.10000014305115","<br><br><br><br><p><img src='run_exp/static/images/blue.png' height='500'></p>","49","","","","","","","","","","","","","","","","",""
"","html-keyboard-response","16","173886","0.0-16.0","null","<br><br><br><br><p><img src='run_exp/static/images/blue_win.png' height='500'></p>","null","","","","","","","","","","","","","","","","",""
"","html-keyboard-response","17","174414","0.0-17.0","528.0999999046326","<br><br><br><br><p><img src='run_exp/static/images/blue.png' height='500'></p>","49","","","","","","","","","","","","","","","","",""
"","html-keyboard-response","18","175916","0.0-18.0","null","<br><br><br><br><p><img src='run_exp/static/images/blue_win.png' height='500'></p>","null","","","","","","","","","","","","","","","","",""
"","html-keyboard-response","19","176644","0.0-19.0","727.6000001430511","<br><br><br><br><p><img src='run_exp/static/images/blue.png' height='500'></p>","49","","","","","","","","","","","","","","","","",""
"","html-keyboard-response","20","178146","0.0-20.0","null","<br><br><br><br><p><img src='run_exp/static/images/blue_no_win.png' height='500'></p>","null","","","","","","","","","","","","","","","","",""
"","html-keyboard-response","21","178997","0.0-21.0","849.7999999523163","<br><br><br><br><p><img src='run_exp/static/images/blue.png' height='500'></p>","49","","","","","","","","","","","","","","","","",""
"","html-keyboard-response","22","180497","0.0-22.0","null","<br><br><br><br><p><img src='run_exp/static/images/blue_win.png' height='500'></p>","null","","","","","","","","","","","","","","","","",""
"","html-keyboard-response","23","181093","0.0-23.0","594.7999999523163","<br><br><br><br><p><img src='run_exp/static/images/blue.png' height='500'></p>","49","","","","","","","","","","","","","","","","",""
"","html-keyboard-response","24","182606","0.0-24.0","null","<br><br><br><br><p><img src='run_exp/static/images/blue_win.png' height='500'></p>","null","","","","","","","","","","","","","","","","",""
"","html-keyboard-response","25","185464","0.0-25.0","2857.199999809265","<div class='center'><p> See, he was successful at robbing the ships most of the time but not every time. </p><p><b>[Press the space bar to continue]</b></p></div>","32","","","","","","","","","","","","","","","","",""
"","html-keyboard-response","26","196337","0.0-26.0","10872.400000095367","<div class='center'><p>In the game, you will get to choose which of three pirates you want to rob the next ship. <p>Press the <b>‘1’</b> button on your keyboard to pick the pirate with the red beard.</p><p> Press <b>‘2’</b> to pick the pirate with the white beard.</p><p> Press <b>‘3’</b> to pick the pirate with the black beard.</p><p>Try picking a pirate now!</p><p><img src='run_exp/static/images/all_pirates.png' height='500'></p></div>","49","","","","","","","","","","","","","","","","",""
"","html-keyboard-response","27","198448","0.0-27.0-0.0","2110.7999999523163","<div class='center'><p>This pirate was successful at robbing the ship!</p><p><img src='run_exp/static/images/red_win.png' height='500'></p><p><b>[Press the space bar to continue]</b></p></div>","32","","","","","","","","","","","","","","","","",""
"","html-keyboard-response","28","199665","0.0-27.0-1.0","1216.2999999523163","<div class='center'><p>Now try choosing another</p><p><img src='run_exp/static/images/all_pirates.png' height='500'></p></div>","50","","","","","","","","","","","","","","","","",""
"","html-keyboard-response","29","202196","0.0-28.0-0.0","2530.5999999046326","<div class='center'><p>This pirate was not successful at robbing the ship!</p><p><img src='run_exp/static/images/white_no_win.png' height='500'></p><p><b>[Press the space bar to continue]</b></p></div>","32","","","","","","","","","","","","","","","","",""
"","html-keyboard-response","30","208828","0.0-29.0-0.0","6630.600000143051","<div class='center'><p>You’ll stop at these 6 places on your journey.</p><p><img src='run_exp/static/images/all_contexts.png' height='500'></p><p><b>[Press the space bar to continue]</b></p></div>","32","","","","","","","","","","","","","","","","",""
"","html-keyboard-response","31","219197","0.0-29.0-1.0","10368.600000143051","<div class='center'><p>How good a pirate is at robbing ships will depend on the current place.</p><p> Some pirates will have been to the place before, and will have more experience robbing ships there.</p><p>So, they will be more successful at stealing gold and bringing it back to you.</p><p><b>[Press the space bar to continue]</b></p></div>","32","","","","","","","","","","","","","","","","",""
"","html-keyboard-response","32","232622","0.0-29.0-2.0","13424.400000095367","<div class='center'><p>How successful a pirate is at robbing ships can also change in a place.<p> Ships may hear about the pirates coming and will improve their defenses. This may make it more difficult to rob them.</p><p> Ships may also grow lazy and lower their defenses. This may make it easier to rob them.</p><br><p>Things are always changing on the high seas! So, try your best to pay attention!</p><p><img src='run_exp/static/images/contingency.png' height='500'></p><p><b>[Press the space bar to continue]</b></p></div>","32","","","","","","","","","","","","","","","","",""
"","html-keyboard-response","33","275728","0.0-29.0-3.0","43106.10000014305","<div class='center'><p>Once you choose a pirate to rob a ship, you’ll be shown the ship they are robbing.</p><p>The ship will have a picture of the item they sold at the marketplace.</p><p> Try your best to remember the ship and where you saw the ship.</p><p> You’ll have to remember this for later, and remembering this correctly will help you win more bonus money!</p><p>You can remember the ship by remembering the item they sold at the marketplace</p><p>A helpful strategy is to try to come up with a story of the chosen pirate and ship’s item interacting with the scene.</p><p> For example, a ship might have sold travel mugs and you could imagine red beard walking through the city with a travel mug. </p><p>Or imagine an apple falling from a tree into white beard's hands in the forest.</p><p><img src='run_exp/static/images/example_probe.png' height='500'></p><p><b>[Press the space bar to continue]</b></p></div>","32","","","","","","","","","","","","","","","","",""
"","html-keyboard-response","34","290683","0.0-29.0-4.0","14953.799999952316","<div class='center'><p>If you don’t make your choice fast enough, you’ll have to wait a few seconds before you can make another one. </p><p>You can’t win more gold. You just have to sit and wait.</p><p><img src='run_exp/static/images/hurry_up.png' height='500'></p><p><b>[Press the space bar to continue]</b></p></div>","32","","","","","","","","","","","","","","","","",""
"","html-keyboard-response","35","338985","0.0-29.0-5.0","48301","<div class='center'><p>Again, you have two important things to do: </p><b><p> 1. Pick the pirate who you think will be most successful at robbing the next ship.</p></b><b><p> 2. Remember where a pirate robbed a ship.</p> </b><p>Both are important in determining how much bonus money you’ll win.</p><br><p>Let’s try a practice game. The game will start by showing you the pirates. First pick a pirate using the <b> 1, 2, 3 </b> buttons on your keyboard. When you are shown a ship, try to remember the place you’re in by making up a story.</p><p> You only have 3 seconds to pick a pirate, so please make a choice quickly! If you are too slow, you’ll have to wait a bit during the time out.</p><p> Don’t feel rushed, but please do try to make a choice every time.</p><p>How good a pirate is at robbing a ship will change depending on the place they are in and how good the defenses are of the ship.</p> <p>This is just a practice game, so you’re not playing for money. </p><p>You’ll receive a bag which may or may not contain gold coins.</p><p> In the real game, though, you’ll be able to see whether or not you received the gold coins.</p><p> Good luck, remember press <b>'1'</b> to choose red beard, <b>'2'</b> to choose white beard, and <b>'3'</b> to choose black beard</p><p><b>[Press the space bar to begin the practice game]</b></p></div>","32","","","","","","","","","","","","","","","","",""
"","do_trial_prac","36","344288","0.0-29.0-6.0","788.2999999523163","","","","49","","","","","","","","","","","","","","",""
"","do_trial_prac","37","350373","0.0-29.0-7.0","1577.7000000476837","","","","50","","","","","","","","","","","","","","",""
"","do_trial_prac","38","355734","0.0-29.0-8.0","851.7000000476837","","","","51","","","","","","","","","","","","","","",""
"","do_trial_prac","39","361433","0.0-29.0-9.0","1182","","","","49","","","","","","","","","","","","","","",""
"","do_trial_prac","40","366526","0.0-29.0-10.0","589.3999998569489","","","","50","","","","","","","","","","","","","","",""
"","html-keyboard-response","41","371975","0.0-29.0-11.0","5449","<div class='center'><p>Great job on the practice game!</p><p> Now, you will be asked you some true or false questions to make sure you really understand the rules of the game.</p><p> Press <b>'1'</b> on the keyboard for true and press <b>'2'</b> for false.</p><p><b>[Press the space bar to begin the quiz]</b></p></div>","32","","","","","","","","","","","","","","","","",""
"","html-keyboard-response","42","373322","0.0-29.0-12.0","1345.7999999523163","<div class='center'><p>You win bonus money by making choices as fast as possible.</p><p>Press 1 for true and press  2 for false.</p></div>","49","","","","","","","","","","","","","","","","",""
"","html-keyboard-response","43","377366","0.0-30.0-0.0","4043.399999856949","<br><br><br><br><p>That’s incorrect! You win bonus money by collecting as many gold coins as possible!</p><p><b>[press the space bar to continue with the quiz]</b></p>","32","","","","","","","","","","","","","","","","",""
"","html-keyboard-response","44","384755","0.0-30.0-1.0","7388.800000190735","<div class='center'><p>You press the <b>‘3’</b> button on the keyboard to choose the red bearded pirate? </p><p>Press 1 for true and press  2 for false.</p></div>","50","","","","","","","","","","","","","","","","",""
"","html-keyboard-response","45","385731","0.0-31.0-0.0","975.5","<br><br><br><br><p>That's correct!</p> <p><b>[press the space bar to continue with the quiz]</b></p>","32","","","","","","","","","","","","","","","","",""
"","html-keyboard-response","46","387942","0.0-31.0-1.0","2210.0999999046326","<div class='center'><p>A pirate will always be equally successful at robbing ships in each place</p><p>Press 1 for true and press  2 for false.</p></div>","50","","","","","","","","","","","","","","","","",""
"","html-keyboard-response","47","388743","0.0-32.0-0.0","800.7999999523163","<br><br><br><br><p>That's correct!</p> <p><b>[press the space bar to continue with the quiz]</b></p>","32","","","","","","","","","","","","","","","","",""
"","html-keyboard-response","48","390542","0.0-32.0-1.0","1799.3999998569489","<div class='center'><p>You should remember the place where a pirate robbed a ship.</p><p>Press 1 for true and press  2 for false.</p></div>","49","","","","","","","","","","","","","","","","",""
"","html-keyboard-response","49","391357","0.0-33.0-0.0","813.5","<br><br><br><br><p>That's correct!</p> <p><b>[press the space bar to continue with the quiz]</b></p>","32","","","","","","","","","","","","","","","","",""
"","html-keyboard-response","50","395225","0.0-34.0-0.0","3866.7999999523163","<br><br><br><br><p>Oops, you missed some questions. Now that you’ve heard the correct answers. Try the quiz again! If you fail the quiz too many times, you won’t be able to do the experiment. </p> <p><br>[press the space bar to repeat the quiz]</br></p>","32","","","","","","","","","","","","","","","","",""
"","html-keyboard-response","51","402319","0.0-34.0-1.0","7093.700000047684","<div class='center'><p>You win bonus money by making choices as fast as possible.</p><p>Press 1 for true and press  2 for false.</p></div>","50","","","","","","","","","","","","","","","","",""
"","html-keyboard-response","52","403235","0.0-35.0-0.0","915.8999998569489","<br><br><br><br><p>That's correct!</p> <p><b>[press the space bar to continue with the quiz]</b></p>","32","","","","","","","","","","","","","","","","",""
"","html-keyboard-response","53","406806","0.0-35.0-1.0","3570.300000190735","<div class='center'><p>You press the <b>‘3’</b> button on the keyboard to choose the red bearded pirate? </p><p>Press 1 for true and press  2 for false.</p></div>","50","","","","","","","","","","","","","","","","",""
"","html-keyboard-response","54","407423","0.0-36.0-0.0","617","<br><br><br><br><p>That's correct!</p> <p><b>[press the space bar to continue with the quiz]</b></p>","32","","","","","","","","","","","","","","","","",""
"","html-keyboard-response","55","408933","0.0-36.0-1.0","1509.2000000476837","<div class='center'><p>A pirate will always be equally successful at robbing ships in each place</p><p>Press 1 for true and press  2 for false.</p></div>","50","","","","","","","","","","","","","","","","",""
"","html-keyboard-response","56","409464","0.0-37.0-0.0","531.2000000476837","<br><br><br><br><p>That's correct!</p> <p><b>[press the space bar to continue with the quiz]</b></p>","32","","","","","","","","","","","","","","","","",""
"","html-keyboard-response","57","410841","0.0-37.0-1.0","1376.3999998569489","<div class='center'><p>You should remember the place where a pirate robbed a ship.</p><p>Press 1 for true and press  2 for false.</p></div>","49","","","","","","","","","","","","","","","","",""
"","html-keyboard-response","58","411331","0.0-38.0-0.0","486","<br><br><br><br><p>That's correct!</p> <p><b>[press the space bar to continue with the quiz]</b></p>","32","","","","","","","","","","","","","","","","",""
"","html-keyboard-response","59","415430","0.0-39.0-0.0","4097.5","<br><br><br><br><p>Good job! You’re now ready to move on to the real game!</p> <p><br>[press the space bar to begin!]</br></p>","32","","","","","","","","","","","","","","","","",""
"","do_welcome","60","416937","0.0-40.0-0.0","null","","","","null","","","","","","","","","","","","","","",""
"","do_trial","61","425230","0.0-41.0-0.0","2755","","","","49","1,0,0","0","countryside","0","probe-227","1","0.4","0.1","1","","","","","",""
"","do_trial","62","431625","0.0-42.0-0.0","861.6999998092651","","","","50","1,0,0","0","countryside","1","probe-222","1","0.39246949886345783","0.09230441481872267","0","","","","","",""
"","do_trial","63","437532","0.0-43.0-0.0","372.7999999523163","","","","51","1,1,0","0","countryside","2","probe-77","1","0.4569599360430751","0.1558373313696757","0","","","","","",""
"","do_trial","64","443570","0.0-44.0-0.0","507.40000009536743","","","","49","1,0,0","0","countryside","3","probe-165","1","0.3518240282214555","0.0988599701173452","1","","","","","",""
"","do_trial","65","449954","0.0-45.0-0.0","828.5","","","","50","1,0,0","0","countryside","4","probe-89","0.8697871266435986","0.3411615514938044","0.13767601487520525","0","","","","","",""
"","do_trial","66","456233","0.0-46.0-0.0","742.5999999046326","","","","51","1,1,0","0","countryside","5","probe-137","0.9312353020800234","0.31302648995218985","0.13528806314093778","0","","","","","",""
"","do_trial","67","462677","0.0-47.0-0.0","905.2000000476837","","","","49","1,0,0","0","countryside","6","probe-224","0.848840701405959","0.28112746281628437","0.053750954420372664","1","","","","","",""
"","do_trial","68","468990","0.0-48.0-0.0","774.4000000953674","","","","49","1,0,0","0","countryside","7","probe-155","0.9379789697234548","0.2951819593392829","0.08427280117784872","1","","","","","",""
"","do_trial","69","475804","0.0-49.0-0.0","1285.6000001430511","","","","49","0,0,0","0","countryside","8","probe-190","0.8230719145619165","0.20557391116578294","0.05328571776923036","0","","","","","",""
"","do_trial","70","481776","0.0-50.0-0.0","444","","","","49","1,0,0","0","countryside","9","probe-168","0.7928631056521904","0.2573365361543585","0.1819518724628037","1","","","","","",""
"","do_trial","71","487809","0.0-51.0-0.0","505.89999985694885","","","","49","1,1,0","0","countryside","10","probe-148","0.6164332515807254","0.5967152718005672","0.11302748775729368","1","","","","","",""
"","do_trial","72","493632","0.0-52.0-0.0","294.2000000476837","","","","49","0,1,0","0","countryside","11","probe-228","0.5118449742855762","0.7160456182496964","0.19349634182958356","0","","","","","",""
"","do_trial","73","499648","0.0-53.0-0.0","485.60000014305115","","","","49","0,0,0","0","countryside","12","probe-144","0.4408734912350246","0.7380548676704008","0.23618189482507107","0","","","","","",""
"","do_trial","74","505776","0.0-54.0-0.0","601.2000000476837","","","","49","0,1,1","0","countryside","13","probe-13","0.4866869816198699","0.7902732460898098","0.1556504232895585","0","","","","","",""
"","do_trial","75","511815","0.0-55.0-0.0","511.09999990463257","","","","49","0,0,0","0","countryside","14","probe-72","0.5079436609203714","0.7532663052605447","0.12090535945008844","0","","","","","",""
"","do_trial","76","519270","0.0-56.0-0.0","1915.7999999523163","","","","49","1,1,0","0","countryside","15","probe-145","0.45852151554695747","0.7358359308437283","0.06603889599060932","1","","","","","",""
"","do_trial","77","525386","0.0-57.0-0.0","586.5","","","","49","1,1,0","0","countryside","16","probe-162","0.4931520731581878","0.9104018715258769","0.18868671897731484","1","","","","","",""
"","do_trial","78","531606","0.0-58.0-0.0","691.5","","","","49","1,0,0","0","countryside","17","probe-205","0.47269569973517","0.8692871184087452","0.1959939142151976","1","","","","","",""
"","do_trial","79","537530","0.0-59.0-0.0","391.59999990463257","","","","49","1,0,1","0","countryside","18","probe-22","0.4035484515459538","0.7445383237177946","0.13672155452143492","1","","","","","",""
"","do_trial","80","543518","0.0-60.0-0.0","455.90000009536743","","","","50","1,1,0","0","countryside","19","probe-17","0.4799415215614298","0.8312099463329902","0.19727283242817337","1","","","","","",""
"","do_trial","81","549489","0.0-61.0-0.0","436.09999990463257","","","","51","0,1,1","0","countryside","20","probe-185","0.42316394763741605","0.784416226731451","0.26655934891834504","1","","","","","",""
"","do_trial","82","555685","0.0-62.0-0.0","666.1000001430511","","","","50","0,1,0","0","countryside","21","probe-28","0.3627450027268446","0.7907478652117018","0.20150398337451614","1","","","","","",""
"","do_trial","83","561595","0.0-63.0-0.0","382.59999990463257","","","","51","0,0,0","0","countryside","22","probe-68","0.47834784728689683","0.8021355936957866","0.23337903605226737","0","","","","","",""
"","do_trial","84","567530","0.0-64.0-0.0","387.90000009536743","","","","49","1,1,1","0","countryside","23","probe-63","0.4640393696019131","0.7602360197277692","0.13608086714443643","1","","","","","",""
"","do_trial","85","573650","0.0-65.0-0.0","591.5999999046326","","","","49","1,1,0","0","countryside","24","probe-70","0.3948594481754151","0.7916721787017611","0.131269116803393","1","","","","","",""
"","do_trial","86","579439","0.0-66.0-0.0","256.5","","","","49","0,1,0","0","countryside","25","probe-32","0.29547931325343096","0.9252338925405511","0.1548040007017688","0","","","","","",""
"","do_trial","87","585323","0.0-67.0-0.0","342.30000019073486","","","","49","0,0,1","0","countryside","26","probe-236","0.34659664897993425","0.8515865009000904","0.17394794681980194","0","","","","","",""
"","do_trial","88","591156","0.0-68.0-0.0","289.39999985694885","","","","49","1,1,0","0","countryside","27","probe-117","0.4932375412234343","0.8926548421802201","0.14729185926754582","1","","","","","",""
"","do_trial","89","596857","0.0-69.0-0.0","173.39999985694885","","","","49","0,1,0","0","countryside","28","probe-123","0.5496589418919211","0.7926666748948151","0.10556845880562257","0","","","","","",""
"","do_trial","90","602612","0.0-70.0-0.0","217.5","","","","49","0,1,0","0","countryside","29","probe-209","0.5862135103892875","0.7407869462055061","0.11417547484345963","0","","","","","",""
"","do_trial","91","608593","0.0-71.0-0.0","445.69999980926514","","","","49","0,1,0","0","countryside","30","probe-218","0.6191189102857907","0.6162679087411825","0.15482358559060477","0","","","","","",""
"","do_trial","92","614221","0.0-72.0-0.0","97.10000014305115","","","","49","0,1,0","0","countryside","31","probe-53","0.769239856219443","0.6627636322742536","0.10469717465244045","0","","","","","",""
"","do_trial","93","620179","0.0-73.0-0.0","404.2000000476837","","","","49","1,0,0","0","countryside","32","probe-116","0.5225694573879123","0.6870658914121945","0.08640241246380163","1","","","","","",""
"","do_trial","94","625840","0.0-74.0-0.0","99.79999995231628","","","","50","0,1,0","0","countryside","33","probe-45","0.4382600414478068","0.8023867341156414","0.09455145703915568","1","","","","","",""
"","do_trial","95","631851","0.0-75.0-0.0","469.5","","","","50","0,1,0","0","countryside","34","probe-133","0.42592138278257774","0.7106054168764523","0.09996828155190683","1","","","","","",""
"","do_trial","96","637656","0.0-76.0-0.0","272.90000009536743","","","","50","1,0,0","0","countryside","35","probe-182","0.3896020751485689","0.5717516467594435","0.10238802024002366","0","","","","","",""
"","do_trial","97","643581","0.0-77.0-0.0","393.40000009536743","","","","49","0,1,0","0","countryside","36","probe-50","0.3851190955665988","0.6988728289384117","0.12494353261405634","0","","","","","",""
"","do_trial","98","649558","0.0-78.0-0.0","434.59999990463257","","","","50","0,1,1","0","countryside","37","probe-07","0.3643836590848804","0.7246356283535309","0.11249729867856013","1","","","","","",""
"","do_trial","99","655681","0.0-79.0-0.0","584.0999999046326","","","","49","1,1,0","0","countryside","38","probe-149","0.21975534272414185","0.8327467629458183","0.21861315357330063","1","","","","","",""
"","do_trial","100","661580","0.0-80.0-0.0","356.60000014305115","","","","49","1,1,0","0","countryside","39","probe-110","0.3758849633885196","0.8103354376421129","0.1162780219567009","1","","","","","",""
"","do_bye","101","663086","0.0-81.0-0.0","null","","","","null","","","","","","","","","","","","","","",""
"","do_travel","102","669087","0.0-82.0-0.0","null","","","","null","","","","","","","","","","","","","","",""
"","do_welcome","103","670591","0.0-82.0-1.0","null","","","","null","","","","","","","","","","","","","","",""
"","do_trial","104","676996","0.0-83.0-0.0","873.7999999523163","","","","50","0,1,0","1","highway","40","probe-99","0.39214221417174394","1","0.3049774976785399","1","","","","","",""
"","do_trial","105","683542","0.0-84.0-0.0","1007.5","","","","50","1,1,0","1","highway","41","probe-220","0.2782516390999914","1","0.3041007497699332","1","","","","","",""
"","do_trial","106","689388","0.0-85.0-0.0","316.09999990463257","","","","50","1,1,0","1","highway","42","probe-31","0.29681374221872864","1","0.23440086490951878","1","","","","","",""
"","do_trial","107","694922","0.0-86.0-0.0","0","","","","50","1,1,1","1","highway","43","probe-188","0.3735725891565972","1","0.2768672650470578","1","","","","","",""
"","do_trial","108","701044","0.0-87.0-0.0","587.0999999046326","","","","50","0,1,0","1","highway","44","probe-62","0.389833242578032","0.931841580745322","0.2575547884078204","1","","","","","",""
"","do_trial","109","706682","0.0-88.0-0.0","94.20000004768372","","","","50","0,1,0","1","highway","45","probe-122","0.4882790217085804","0.8549684811607827","0.19904380578576042","1","","","","","",""
"","do_trial","110","712228","0.0-89.0-0.0","0.10000014305114746","","","","50","1,1,0","1","highway","46","probe-113","0.6140175132902247","0.7538707650421335","0.08604130629306762","1","","","","","",""
"","do_trial","111","718332","0.0-90.0-0.0","563.2999999523163","","","","50","1,1,0","1","highway","47","probe-226","0.6135157774770826","0.80790180866119","0.1272722992137903","1","","","","","",""
"","do_trial","112","725413","0.0-91.0-0.0","1553.1000001430511","","","","50","1,0,0","1","highway","48","probe-09","0.6047121545364804","0.8421444244981418","0.16329451929342478","0","","","","","",""
"","do_trial","113","731427","0.0-92.0-0.0","483.60000014305115","","","","50","1,1,0","1","highway","49","probe-16","0.5539573841166525","0.8798236500142411","0.12916707428911914","1","","","","","",""
"","do_trial","114","737283","0.0-93.0-0.0","314.5","","","","50","1,0,0","1","highway","50","probe-64","0.6538023517693007","0.5184646316489151","0.2644611121526738","0","","","","","",""
"","do_trial","115","743170","0.0-94.0-0.0","355.5","","","","51","1,0,0","1","highway","51","probe-82","0.6108302252960267","0.4039570988118003","0.28040254641937284","0","","","","","",""
"","do_trial","116","748969","0.0-95.0-0.0","268.40000009536743","","","","50","1,1,1","1","highway","52","probe-128","0.6892250795882088","0.3316459073758501","0.4659455603586319","1","","","","","",""
"","do_trial","117","754980","0.0-96.0-0.0","476.7000000476837","","","","50","0,1,0","1","highway","53","probe-230","0.7155147103911383","0.20921665659132316","0.3475935394794805","1","","","","","",""
"","do_trial","118","760895","0.0-97.0-0.0","373.39999985694885","","","","50","1,1,0","1","highway","54","probe-181","0.7894980234724137","0.12296472743764371","0.24804306165933035","1","","","","","",""
"","do_trial","119","766986","0.0-98.0-0.0","530.3000001907349","","","","50","1,0,1","1","highway","55","probe-37","0.7500641164316248","0.14728618446499467","0.2951246506355459","0","","","","","",""
"","do_trial","120","773066","0.0-99.0-0.0","539.7999999523163","","","","50","1,0,0","1","highway","56","probe-223","0.793901868981353","0.1267595407627133","0.2441954536726371","0","","","","","",""
"","do_trial","121","778830","0.0-100.0-0.0","221.79999995231628","","","","50","1,1,0","1","highway","57","probe-206","0.7801889963722626","0.12633819255078174","0.25193583270201425","1","","","","","",""
"","do_trial","122","784707","0.0-101.0-0.0","345.40000009536743","","","","50","1,1,0","1","highway","58","probe-21","0.8767863457272567","0.12411248082836027","0.3668421515064958","1","","","","","",""
"","do_trial","123","790609","0.0-102.0-0.0","373.80000019073486","","","","50","1,0,0","1","highway","59","probe-141","0.7237653421389595","0.11858681963724246","0.41088110476473605","0","","","","","",""
"","do_trial","124","796343","0.0-103.0-0.0","203","","","","50","1,0,1","1","highway","60","probe-08","0.7937068136458783","0.10238778456528101","0.4155043877415107","0","","","","","",""
"","do_trial","125","801984","0.0-104.0-0.0","112.20000004768372","","","","50","1,0,1","1","highway","61","probe-27","0.780850112029529","0.09240792536504301","0.45358796414023184","0","","","","","",""
"","do_trial","126","808206","0.0-105.0-0.0","679.8999998569489","","","","50","1,0,1","1","highway","62","probe-79","0.8568899908969617","0.0542831661571123","0.555325728018631","0","","","","","",""
"","do_trial","127","814170","0.0-106.0-0.0","427.7000000476837","","","","50","1,0,0","1","highway","63","probe-238","0.8733293428115998","0.13102910289358663","0.5610778570544882","0","","","","","",""
"","do_trial","128","820284","0.0-107.0-0.0","575.7000000476837","","","","50","1,0,1","1","highway","64","probe-104","0.8573475227967836","0.17108570575540405","0.4707550456622905","0","","","","","",""
"","do_trial","129","826303","0.0-108.0-0.0","476.30000019073486","","","","50","1,0,1","1","highway","65","probe-212","0.9291074955432046","0.09622519796880152","0.39797475511339075","0","","","","","",""
"","do_trial","130","832876","0.0-109.0-0.0","1035.5999999046326","","","","51","0,1,0","1","highway","66","probe-11","0.8534355062541245","0.1364544365420806","0.503504351564088","0","","","","","",""
"","do_trial","131","838755","0.0-110.0-0.0","342.90000009536743","","","","50","1,0,0","1","highway","67","probe-90","0.7027075118149406","0.08673244988233084","0.4534200155782472","0","","","","","",""
"","do_trial","132","844623","0.0-111.0-0.0","324.5","","","","49","0,0,0","1","highway","68","probe-214","0.6828044470238777","0.0645244286661199","0.4262443607319186","0","","","","","",""
"","do_trial","133","850516","0.0-112.0-0.0","363.89999985694885","","","","49","0,0,1","1","highway","69","probe-26","0.7165402990516161","0.12674736736030348","0.43266756375343135","0","","","","","",""
"","do_trial","134","856405","0.0-113.0-0.0","358.7999999523163","","","","50","1,0,0","1","highway","70","probe-142","0.6946378994281672","0.10199968752169815","0.3937981415527326","0","","","","","",""
"","do_trial","135","861973","0.0-114.0-0.0","33.60000014305115","","","","50","1,0,0","1","highway","71","probe-66","0.9225840755666144","0.16095162080785216","0.5278556431549718","0","","","","","",""
"","do_trial","136","868227","0.0-115.0-0.0","711.7999999523163","","","","51","1,0,1","1","highway","72","probe-58","0.9129308710437692","0.2777541911692412","0.479518461890735","1","","","","","",""
"","do_trial","137","874153","0.0-116.0-0.0","392.09999990463257","","","","51","1,0,0","1","highway","73","probe-138","0.8554398348462167","0.1073383649753947","0.4591539047775436","0","","","","","",""
"","do_trial","138","880094","0.0-117.0-0.0","398.7000000476837","","","","51","1,0,1","1","highway","74","probe-211","0.8676464905889916","0.07295597464851312","0.43410655395178643","1","","","","","",""
"","do_trial","139","885909","0.0-118.0-0.0","275","","","","51","1,1,1","1","highway","75","probe-161","0.758739219378938","0.20539872758247535","0.405262548935351","1","","","","","",""
"","do_trial","140","891881","0.0-119.0-0.0","418.39999985694885","","","","51","1,0,1","1","highway","76","probe-83","0.7838142207061688","0.16903488359741578","0.4870173320208994","1","","","","","",""
"","do_trial","141","897461","0.0-120.0-0.0","51.200000047683716","","","","51","1,0,0","1","highway","77","probe-106","0.7461302982263176","0.08271236979577108","0.516371904523834","0","","","","","",""
"","do_trial","142","903317","0.0-121.0-0.0","322.7999999523163","","","","50","1,0,0","1","highway","78","probe-35","0.7948255286183816","0.12240407728914399","0.5154651664966119","0","","","","","",""
"","do_trial","143","908895","0.0-122.0-0.0","49.40000009536743","","","","51","1,1,0","1","highway","79","probe-01","0.8087046646372464","0.1627615519095812","0.37319901346667544","0","","","","","",""
"","do_bye","144","910412","0.0-123.0-0.0","null","","","","null","","","","","","","","","","","","","","",""
"","do_travel","145","916426","0.0-124.0-0.0","null","","","","null","","","","","","","","","","","","","","",""
"","do_welcome","146","917929","0.0-124.0-1.0","null","","","","null","","","","","","","","","","","","","","",""
"","do_trial","147","923878","0.0-125.0-0.0","413.7000000476837","","","","49","1,1,0","2","forest","80","probe-229","1","0.26862993986816797","0.40157819361447383","1","","","","","",""
"","do_trial","148","929696","0.0-126.0-0.0","286.40000009536743","","","","49","1,0,1","2","forest","81","probe-74","1","0.23323313841548735","0.33632100247260943","1","","","","","",""
"","do_trial","149","935437","0.0-127.0-0.0","210.39999985694885","","","","49","1,0,1","2","forest","82","probe-160","1","0.2282130834479829","0.519582589240313","1","","","","","",""
"","do_trial","150","941535","0.0-128.0-0.0","567.7999999523163","","","","49","1,0,0","2","forest","83","probe-154","1","0.2146939590977999","0.45174905288897566","1","","","","","",""
"","do_trial","151","947159","0.0-129.0-0.0","85.09999990463257","","","","49","1,1,1","2","forest","84","probe-195","0.9464024139845588","0.2181667721895392","0.42581126512254736","1","","","","","",""
"","do_trial","152","953232","0.0-130.0-0.0","528.3999998569489","","","","49","0,0,0","2","forest","85","probe-193","0.9043387091323624","0.16611761384505194","0.39439068512140374","0","","","","","",""
"","do_trial","153","959474","0.0-131.0-0.0","700.7999999523163","","","","49","1,0,1","2","forest","86","probe-40","0.7969321058294925","0.07794083310394244","0.42082915610933236","1","","","","","",""
"","do_trial","154","965265","0.0-132.0-0.0","255.09999990463257","","","","49","1,0,0","2","forest","87","probe-178","0.787148493184427","0.06290924178055819","0.49281062112108687","1","","","","","",""
"","do_trial","155","971204","0.0-133.0-0.0","412.2000000476837","","","","49","1,1,0","2","forest","88","probe-207","0.859547975959965","0.0747539683248815","0.3178115916577271","1","","","","","",""
"","do_trial","156","976842","0.0-134.0-0.0","104.79999995231628","","","","49","1,0,1","2","forest","89","probe-152","0.8858439291256349","0.09110897845198278","0.29864679611510075","1","","","","","",""
"","do_trial","157","982883","0.0-135.0-0.0","null","","","","null","0,0,0","2","forest","90","probe-208","0.5400537355809273","0.07747541585284533","0.45083907473384066","","","","","","",""
"","do_trial","158","988745","0.0-136.0-0.0","320.7999999523163","","","","49","0,0,1","2","forest","91","probe-84","0.513866431468918","0.07624910194892519","0.6158093037433678","0","","","","","",""
"","do_trial","159","994770","0.0-137.0-0.0","485.7000000476837","","","","49","1,0,0","2","forest","92","probe-20","0.6674010282539666","0.09633414906550547","0.5175175767248","1","","","","","",""
"","do_trial","160","1000758","0.0-138.0-0.0","448.40000009536743","","","","49","0,0,0","2","forest","93","probe-57","0.5251416277101728","0.07708142893012535","0.6184083185313047","0","","","","","",""
"","do_trial","161","1006826","0.0-139.0-0.0","527.9000000953674","","","","49","1,0,0","2","forest","94","probe-75","0.37014173477481194","0.08068066947472087","0.6559034339524179","1","","","","","",""
"","do_trial","162","1012798","0.0-140.0-0.0","444","","","","49","0,0,1","2","forest","95","probe-47","0.27758906866083527","0.07347129336486564","0.6935511079797522","0","","","","","",""
"","do_trial","163","1018576","0.0-141.0-0.0","247.20000004768372","","","","49","0,0,0","2","forest","96","probe-132","0.4943639760660466","0.06579176771248327","0.7740668602920725","0","","","","","",""
"","do_trial","164","1025190","0.0-142.0-0.0","1084.9000000953674","","","","49","0,0,1","2","forest","97","probe-93","0.40698914669813996","0.10601585410026126","0.7243907988267095","0","","","","","",""
"","do_trial","165","1030883","0.0-143.0-0.0","146.79999995231628","","","","49","1,0,0","2","forest","98","probe-06","0.5085280621751374","0.14009241093159314","0.8271344433491712","1","","","","","",""
"","do_trial","166","1037374","0.0-144.0-0.0","956.5","","","","49","1,0,0","2","forest","99","probe-46","0.5148380336262838","0.15666297952344072","0.7956734682786593","1","","","","","",""
"","do_trial","167","1043597","0.0-145.0-0.0","680.1000001430511","","","","49","0,1,0","2","forest","100","probe-150","0.4090128048263691","0.11091912860209249","0.9344929263238485","0","","","","","",""
"","do_trial","168","1050436","0.0-146.0-0.0","1311.7000000476837","","","","49","1,0,1","2","forest","101","probe-34","0.4080602840120082","0.13948265457857803","0.942093487263486","1","","","","","",""
"","do_trial","169","1056058","0.0-147.0-0.0","87.20000004768372","","","","49","1,0,1","2","forest","102","probe-88","0.21535030618662931","0.07083562467949833","0.8832060607034324","1","","","","","",""
"","do_trial","170","1061837","0.0-148.0-0.0","243.09999990463257","","","","49","0,1,1","2","forest","103","probe-180","0.2705543079122619","0.09623822663373927","0.861781333471034","0","","","","","",""
"","do_trial","171","1067506","0.0-149.0-0.0","139","","","","49","0,1,1","2","forest","104","probe-200","0.35802486923528065","0.1817473189370622","0.8181388880163165","0","","","","","",""
"","do_trial","172","1073449","0.0-150.0-0.0","411.7000000476837","","","","49","1,0,1","2","forest","105","probe-67","0.39168430854681663","0.2550014424778623","0.7061386588104559","1","","","","","",""
"","do_trial","173","1079261","0.0-151.0-0.0","283.2000000476837","","","","49","0,0,1","2","forest","106","probe-189","0.4954861712679373","0.15193022425880046","0.8157847612567748","0","","","","","",""
"","do_trial","174","1085045","0.0-152.0-0.0","253.09999990463257","","","","49","1,0,1","2","forest","107","probe-85","0.49680374671215005","0.17494732904814186","0.7196739763735738","1","","","","","",""
"","do_trial","175","1090949","0.0-153.0-0.0","371.60000014305115","","","","49","1,0,1","2","forest","108","probe-192","0.4334377620806219","0.1641626775788328","0.789925644401414","1","","","","","",""
"","do_trial","176","1096957","0.0-154.0-0.0","478","","","","49","1,1,1","2","forest","109","probe-43","0.3212927542355474","0.11054906489909927","0.7946643997812218","1","","","","","",""
"","do_trial","177","1102917","0.0-155.0-0.0","431","","","","49","0,0,0","2","forest","110","probe-125","0.30146494105555005","0.08752367385905675","0.8613286560998027","0","","","","","",""
"","do_trial","178","1110513","0.0-156.0-0.0","2067.5999999046326","","","","49","1,0,1","2","forest","111","probe-78","0.5187516751022896","0.061908705788020185","0.7905514963805372","1","","","","","",""
"","do_trial","179","1116238","0.0-157.0-0.0","197.90000009536743","","","","49","1,0,0","2","forest","112","probe-73","0.5327644120875752","0.214673072066769","0.8533125263825616","1","","","","","",""
"","do_trial","180","1122308","0.0-158.0-0.0","542.3000001907349","","","","49","0,0,1","2","forest","113","probe-233","0.4610249339037621","0.18889143731811267","0.7810342905980093","0","","","","","",""
"","do_trial","181","1128702","0.0-159.0-0.0","861.4000000953674","","","","49","0,0,1","2","forest","114","probe-41","0.401809487071494","0.18742636884703495","0.9128428573583669","0","","","","","",""
"","do_trial","182","1134808","0.0-160.0-0.0","577.0999999046326","","","","49","1,0,1","2","forest","115","probe-135","0.40788634932497647","0.14959768782809785","0.8610963729543274","1","","","","","",""
"","do_trial","183","1140455","0.0-161.0-0.0","120.20000004768372","","","","49","0,0,1","2","forest","116","probe-164","0.3028023301837747","0.2228465939860618","0.8049516898971482","0","","","","","",""
"","do_trial","184","1146369","0.0-162.0-0.0","352.10000014305115","","","","49","0,1,1","2","forest","117","probe-59","0.13229943121966853","0.16147179671541814","0.9316369786478441","0","","","","","",""
"","do_trial","185","1152752","0.0-163.0-0.0","843.2000000476837","","","","49","0,0,1","2","forest","118","probe-95","0.14165811031123357","0.08799625697881204","0.7888307437756129","0","","","","","",""
"","do_trial","186","1158624","0.0-164.0-0.0","344.59999990463257","","","","49","1,0,1","2","forest","119","probe-91","0.30529607984421814","0.20940964204198992","0.769990149326671","1","","","","","",""
"","do_bye","187","1160127","0.0-165.0-0.0","null","","","","null","","","","","","","","","","","","","","",""
"","do_travel","188","1166132","0.0-166.0-0.0","null","","","","null","","","","","","","","","","","","","","",""
"","do_welcome","189","1167634","0.0-166.0-1.0","null","","","","null","","","","","","","","","","","","","","",""
"","do_trial","190","1174870","0.0-167.0-0.0","1703.1000001430511","","","","51","1,0,1","3","city","120","probe-129","0.19213718595936974","0.2617606760489648","1","1","","","","","",""
"","do_trial","191","1181152","0.0-168.0-0.0","752.0999999046326","","","","51","0,0,1","3","city","121","probe-216","0.05922216192940063","0.22014288206459218","1","1","","","","","",""
"","do_trial","192","1187310","0.0-169.0-0.0","626.1000001430511","","","","51","0,0,1","3","city","122","probe-127","0.2576332053998209","0.20571063621703556","1","1","","","","","",""
"","do_trial","193","1193207","0.0-170.0-0.0","365.90000009536743","","","","51","1,1,1","3","city","123","probe-239","0.33587543937440123","0.09637603072849693","1","1","","","","","",""
"","do_trial","194","1198963","0.0-171.0-0.0","226.09999990463257","","","","51","1,0,1","3","city","124","probe-197","0.28782306692058685","0.11148379379635062","0.9296274243627111","1","","","","","",""
"","do_trial","195","1204757","0.0-172.0-0.0","261.69999980926514","","","","51","0,0,1","3","city","125","probe-61","0.39967277603577833","0.11798186546863307","0.8225962278640547","1","","","","","",""
"","do_trial","196","1210303","0.0-173.0-0.0","0","","","","51","0,0,0","3","city","126","probe-124","0.4299373293152107","0.07813428918004343","0.8166835092817455","0","","","","","",""
"","do_trial","197","1216228","0.0-174.0-0.0","387.59999990463257","","","","51","1,0,0","3","city","127","probe-134","0.27505781532370305","0.1004827609989227","0.9458004037601171","0","","","","","",""
"","do_trial","198","1221957","0.0-175.0-0.0","186.79999995231628","","","","51","0,0,1","3","city","128","probe-02","0.16048892799188746","0.11632379483232062","0.840169195202944","1","","","","","",""
"","do_trial","199","1227670","0.0-176.0-0.0","176.59999990463257","","","","51","0,1,1","3","city","129","probe-49","0.21185520521555112","0.10050615259592056","0.6565434445877937","1","","","","","",""
"","do_trial","200","1233262","0.0-177.0-0.0","62.200000047683716","","","","51","0,1,1","3","city","130","probe-24","0.16113407391324144","0.41224896170564324","0.6128635852173766","1","","","","","",""
"","do_trial","201","1238870","0.0-178.0-0.0","68.29999995231628","","","","51","1,0,1","3","city","131","probe-80","0.2551985109246228","0.5838829013552902","0.4485853655332923","1","","","","","",""
"","do_trial","202","1244448","0.0-179.0-0.0","43.799999952316284","","","","51","0,0,0","3","city","132","probe-163","0.05160319200570438","0.6942554687750873","0.30107015284125943","0","","","","","",""
"","do_trial","203","1250336","0.0-180.0-0.0","323.10000014305115","","","","51","0,1,1","3","city","133","probe-159","0.09846697456969976","0.8156053059142597","0.266964261030949","1","","","","","",""
"","do_trial","204","1256078","0.0-181.0-0.0","211","","","","51","1,1,1","3","city","134","probe-204","0.13440472008728807","0.836276247934984","0.3208937197980688","1","","","","","",""
"","do_trial","205","1262188","0.0-182.0-0.0","582.8000001907349","","","","51","0,0,1","3","city","135","probe-30","0.09589789873340912","0.8877973774952017","0.21373705031770734","1","","","","","",""
"","do_trial","206","1268133","0.0-183.0-0.0","417.2999999523163","","","","51","0,1,0","3","city","136","probe-10","0.12825992163565542","0.8066933240059992","0.1838597143625995","0","","","","","",""
"","do_trial","207","1273857","0.0-184.0-0.0","195.29999995231628","","","","51","0,0,0","3","city","137","probe-23","0.12594418035976598","0.6846968686769843","0.14725266994745942","0","","","","","",""
"","do_trial","208","1279633","0.0-185.0-0.0","249","","","","51","1,1,1","3","city","138","probe-03","0.21348985610012847","0.8304435117593666","0.12957046719505477","1","","","","","",""
"","do_trial","209","1285812","0.0-186.0-0.0","650.5","","","","51","0,1,0","3","city","139","probe-139","0.2508975827683341","0.8466953530026169","0.27393016232000766","0","","","","","",""
"","do_trial","210","1291792","0.0-187.0-0.0","453.2999999523163","","","","51","1,1,0","3","city","140","probe-25","0.2971210003493208","0.9431920204951766","0.3681515872462768","0","","","","","",""
"","do_trial","211","1297647","0.0-188.0-0.0","323.7000000476837","","","","51","1,1,1","3","city","141","probe-98","0.3196534903033015","0.7757782782216518","0.3751987606159943","1","","","","","",""
"","do_trial","212","1303224","0.0-189.0-0.0","33.40000009536743","","","","51","1,1,1","3","city","142","probe-174","0.1775453880100981","0.870037005471954","0.3997667993885641","1","","","","","",""
"","do_trial","213","1308785","0.0-190.0-0.0","20.200000047683716","","","","51","0,1,1","3","city","143","probe-146","0.24434972310290667","0.7537237065109867","0.3663572327908356","1","","","","","",""
"","do_trial","214","1314488","0.0-191.0-0.0","175","","","","51","0,0,1","3","city","144","probe-151","0.12919974234690693","0.7476355831892962","0.3600051152344404","1","","","","","",""
"","do_trial","215","1320491","0.0-192.0-0.0","472.09999990463257","","","","51","0,1,1","3","city","145","probe-87","0.05670189751117183","0.6836995022342477","0.27887429525554835","1","","","","","",""
"","do_trial","216","1327044","0.0-193.0-0.0","1021.7999999523163","","","","51","0,0,0","3","city","146","probe-221","0.12324125184996743","0.7057216917320596","0.3336529160501737","0","","","","","",""
"","do_trial","217","1332619","0.0-194.0-0.0","21.09999990463257","","","","51","0,1,0","3","city","147","probe-166","0.06281057988791887","0.7461083133906979","0.3724068824074559","0","","","","","",""
"","do_trial","218","1338546","0.0-195.0-0.0","394.89999985694885","","","","51","0,1,0","3","city","148","probe-105","0.16654563604246966","0.68597797838987","0.40292674548747665","0","","","","","",""
"","do_trial","219","1344459","0.0-196.0-0.0","374.2000000476837","","","","51","0,1,0","3","city","149","probe-33","0.15075798965750076","0.7927266495990395","0.41098100736367044","0","","","","","",""
"","do_trial","220","1350673","0.0-197.0-0.0","671.1000001430511","","","","51","0,1,0","3","city","150","probe-56","0.21794749856731738","0.6935638112646096","0.35321793345899044","0","","","","","",""
"","do_trial","221","1356488","0.0-198.0-0.0","267.5","","","","51","0,1,0","3","city","151","probe-60","0.2576965293897236","0.5555293909760439","0.4450952203134365","0","","","","","",""
"","do_trial","222","1362073","0.0-199.0-0.0","50.5","","","","51","0,1,0","3","city","152","probe-143","0.256133799274104","0.679980898550985","0.34142161726916564","0","","","","","",""
"","do_trial","223","1367955","0.0-200.0-0.0","356.2000000476837","","","","51","0,1,0","3","city","153","probe-101","0.17369347186799","0.8091713179353639","0.4208503427699559","0","","","","","",""
"","do_trial","224","1373694","0.0-201.0-0.0","208.5","","","","51","0,1,0","3","city","154","probe-97","0.20394497262624725","0.842017630367092","0.3460903152108284","0","","","","","",""
"","do_trial","225","1379270","0.0-202.0-0.0","47.5","","","","51","1,1,1","3","city","155","probe-203","0.13003464610940096","0.8888511466920389","0.27085298789724893","1","","","","","",""
"","do_trial","226","1385270","0.0-203.0-0.0","460.10000014305115","","","","51","0,1,1","3","city","156","probe-157","0.09741916828957566","0.8681006413620648","0.45197851505691666","1","","","","","",""
"","do_trial","227","1391218","0.0-204.0-0.0","404.2000000476837","","","","51","0,1,1","3","city","157","probe-38","0.174800917903136","0.7362670209219632","0.44995846724101357","1","","","","","",""
"","do_trial","228","1397014","0.0-205.0-0.0","264.2999999523163","","","","51","0,1,0","3","city","158","probe-167","0.11540366437161445","0.7319217071049526","0.31630477751175956","0","","","","","",""
"","do_trial","229","1403069","0.0-206.0-0.0","523.6000001430511","","","","51","0,1,0","3","city","159","probe-81","0.21093058035453993","0.8281687955241599","0.46217835665147533","0","","","","","",""
"","do_bye","230","1404576","0.0-207.0-0.0","null","","","","null","","","","","","","","","","","","","","",""
"","do_travel","231","1410589","0.0-208.0-0.0","null","","","","null","","","","","","","","","","","","","","",""
"","do_welcome","232","1412096","0.0-208.0-1.0","null","","","","null","","","","","","","","","","","","","","",""
"","do_trial","233","1418542","0.0-209.0-0.0","905.7000000476837","","","","50","0,1,0","4","mountain","160","probe-186","0.23900062774026654","1","0.3568858772404007","1","","","","","",""
"","do_trial","234","1424389","0.0-210.0-0.0","315.2999999523163","","","","50","0,1,1","4","mountain","161","probe-12","0.21622419881053304","1","0.38717316809554086","1","","","","","",""
"","do_trial","235","1430395","0.0-211.0-0.0","465.10000014305115","","","","50","0,1,1","4","mountain","162","probe-175","0.17249206740132025","1","0.4536504242394203","1","","","","","",""
"","do_trial","236","1436161","0.0-212.0-0.0","225.60000014305115","","","","50","0,1,1","4","mountain","163","probe-153","0.06836713623963413","1","0.5680388503765319","1","","","","","",""
"","do_trial","237","1442053","0.0-213.0-0.0","356.7000000476837","","","","50","1,1,0","4","mountain","164","probe-187","0.08308513287412624","0.9435691143921164","0.5104195130299761","1","","","","","",""
"","do_trial","238","1447668","0.0-214.0-0.0","87.70000004768372","","","","50","0,1,1","4","mountain","165","probe-29","0.13632380268308109","0.794199838982486","0.5959371325088791","1","","","","","",""
"","do_trial","239","1453706","0.0-215.0-0.0","490.2000000476837","","","","50","0,1,1","4","mountain","166","probe-103","0.14992428163248228","0.823333956678583","0.5179529869286735","1","","","","","",""
"","do_trial","240","1459554","0.0-216.0-0.0","314.5","","","","50","0,1,1","4","mountain","167","probe-140","0.1075406316283541","0.8328492592192208","0.5628841962740089","1","","","","","",""
"","do_trial","241","1465282","0.0-217.0-0.0","184.20000004768372","","","","50","0,1,1","4","mountain","168","probe-225","0.16775169501884685","0.9045094970843012","0.6906919926177006","1","","","","","",""
"","do_trial","242","1471175","0.0-218.0-0.0","343.89999985694885","","","","50","0,1,1","4","mountain","169","probe-14","0.13049331542753947","0.9085215403053483","0.5970088007100477","1","","","","","",""
"","do_trial","243","1477135","0.0-219.0-0.0","431.09999990463257","","","","50","0,1,0","4","mountain","170","probe-119","0.23738068610005894","0.7866187352134","0.4086512291189992","1","","","","","",""
"","do_trial","244","1482695","0.0-220.0-0.0","16.59999990463257","","","","50","0,1,0","4","mountain","171","probe-92","0.48511616349000797","0.7243627729040065","0.18027661616147586","1","","","","","",""
"","do_trial","245","1488320","0.0-221.0-0.0","83.09999990463257","","","","50","1,1,0","4","mountain","172","probe-51","0.64187057724335","0.6017377291254853","0.08756348754076314","1","","","","","",""
"","do_trial","246","1493976","0.0-222.0-0.0","120.70000004768372","","","","50","1,0,0","4","mountain","173","probe-102","0.47152290179038425","0.6583697550851385","0.08503563148170849","0","","","","","",""
"","do_trial","247","1499595","0.0-223.0-0.0","85.79999995231628","","","","50","1,1,0","4","mountain","174","probe-213","0.5226441352763677","0.5364995090496687","0.1767923801019029","1","","","","","",""
"","do_trial","248","1505339","0.0-224.0-0.0","213.10000014305115","","","","50","1,1,0","4","mountain","175","probe-183","0.6810876596409776","0.6012275443239239","0.14550025665806762","1","","","","","",""
"","do_trial","249","1511279","0.0-225.0-0.0","399.39999985694885","","","","50","1,1,0","4","mountain","176","probe-121","0.8190616450447132","0.45536533084764236","0.07775702691745673","1","","","","","",""
"","do_trial","250","1517083","0.0-226.0-0.0","272.40000009536743","","","","50","0,1,1","4","mountain","177","probe-219","0.7217645328704388","0.4706012415857096","0.08532137474582005","1","","","","","",""
"","do_trial","251","1523125","0.0-227.0-0.0","null","","","","null","0,0,0","4","mountain","178","probe-234","0.7216036795807572","0.21286833160401789","0.1286743932971452","","","","","","",""
"","do_trial","252","1528911","0.0-228.0-0.0","248.5","","","","50","1,0,0","4","mountain","179","probe-198","0.8030966487365399","0.3558853807017103","0.15803508768314722","0","","","","","",""
"","do_trial","253","1535264","0.0-229.0-0.0","813.7999999523163","","","","50","1,0,0","4","mountain","180","probe-65","0.8303753469056341","0.3718592559583817","0.07408155065508211","0","","","","","",""
"","do_trial","254","1541067","0.0-230.0-0.0","271.69999980926514","","","","50","0,1,1","4","mountain","181","probe-19","0.866561313252796","0.39281702461414925","0.19239077019447656","1","","","","","",""
"","do_trial","255","1547026","0.0-231.0-0.0","415.40000009536743","","","","50","1,0,0","4","mountain","182","probe-115","0.9453377331893603","0.4782553568258257","0.14959108390498244","0","","","","","",""
"","do_trial","256","1552756","0.0-232.0-0.0","198.59999990463257","","","","50","0,0,0","4","mountain","183","probe-215","0.9037140186792121","0.4786793972737472","0.2237377735792763","0","","","","","",""
"","do_trial","257","1558511","0.0-233.0-0.0","208.79999995231628","","","","50","1,0,0","4","mountain","184","probe-71","0.8178165841555814","0.5190350793845994","0.0843044288546221","0","","","","","",""
"","do_trial","258","1564536","0.0-234.0-0.0","495.09999990463257","","","","50","1,1,0","4","mountain","185","probe-171","0.7859468961935521","0.3697446319987296","0.10948885748692383","1","","","","","",""
"","do_trial","259","1570226","0.0-235.0-0.0","154.39999985694885","","","","50","1,1,0","4","mountain","186","probe-131","0.7550794098438465","0.4481213522392784","0.16544619187837306","1","","","","","",""
"","do_trial","260","1576055","0.0-236.0-0.0","288.2000000476837","","","","50","0,0,0","4","mountain","187","probe-240","0.8795190415307382","0.4436532214134419","0.12229025150018548","0","","","","","",""
"","do_trial","261","1581815","0.0-237.0-0.0","228.59999990463257","","","","50","1,1,0","4","mountain","188","probe-172","0.80605897375437","0.4621003622297325","0.07616610223863812","1","","","","","",""
"","do_trial","262","1587839","0.0-238.0-0.0","491","","","","50","1,1,0","4","mountain","189","probe-108","0.7837084605104754","0.41948699682848334","0.16202016923053184","1","","","","","",""
"","do_trial","263","1594291","0.0-239.0-0.0","919.7000000476837","","","","50","1,0,1","4","mountain","190","probe-48","0.8545280838014355","0.38857428841313524","0.09442103105555444","0","","","","","",""
"","do_trial","264","1601378","0.0-240.0-0.0","1560.1999998092651","","","","50","1,0,0","4","mountain","191","probe-179","0.9087747212891947","0.2449514306165981","0.11253258415479458","0","","","","","",""
"","do_trial","265","1606953","0.0-241.0-0.0","43.5","","","","50","1,0,0","4","mountain","192","probe-36","0.8351777519349395","0.19185283594336816","0.12251040364860093","0","","","","","",""
"","do_trial","266","1612719","0.0-242.0-0.0","230.39999985694885","","","","50","1,0,0","4","mountain","193","probe-118","0.8480053385841281","0.28633725649698016","0.1285780120208397","0","","","","","",""
"","do_trial","267","1618433","0.0-243.0-0.0","180.40000009536743","","","","50","1,1,0","4","mountain","194","probe-69","0.9016840583263904","0.3536330614125511","0.2953269408322496","1","","","","","",""
"","do_trial","268","1624371","0.0-244.0-0.0","406","","","","50","1,1,1","4","mountain","195","probe-169","0.8230190646318617","0.4308356300843491","0.25248228758620905","1","","","","","",""
"","do_trial","269","1630111","0.0-245.0-0.0","211.29999995231628","","","","50","1,1,0","4","mountain","196","probe-18","0.7200567096377567","0.4686642627921859","0.1526815925308711","1","","","","","",""
"","do_trial","270","1635888","0.0-246.0-0.0","246.59999990463257","","","","50","1,0,0","4","mountain","197","probe-173","0.8879219746739228","0.3354847628016026","0.11026395948459321","0","","","","","",""
"","do_trial","271","1641424","0.0-247.0-0.0","0.2999999523162842","","","","50","1,1,0","4","mountain","198","probe-170","0.8037214202864864","0.36702202716473","0.12417627584789138","1","","","","","",""
"","do_trial","272","1647490","0.0-248.0-0.0","529.7999999523163","","","","50","1,0,0","4","mountain","199","probe-156","0.8688356348995148","0.25951267702056435","0.2705343674393065","0","","","","","",""
"","do_bye","273","1649003","0.0-249.0-0.0","null","","","","null","","","","","","","","","","","","","","",""
"","do_travel","274","1655019","0.0-250.0-0.0","null","","","","null","","","","","","","","","","","","","","",""
"","do_welcome","275","1656535","0.0-250.0-1.0","null","","","","null","","","","","","","","","","","","","","",""
"","do_trial","276","1663976","0.0-251.0-0.0","1909.1000001430511","","","","49","1,0,0","5","coast","200","probe-177","1","0.29802854953499586","0.12089731789981935","1","","","","","",""
"","do_trial","277","1669681","0.0-252.0-0.0","177.20000004768372","","","","49","1,0,0","5","coast","201","probe-217","1","0.4131892918525587","0.11441646696239108","1","","","","","",""
"","do_trial","278","1675415","0.0-253.0-0.0","195.79999995231628","","","","49","1,0,0","5","coast","202","probe-111","1","0.306280848744296","0.07306727808514303","1","","","","","",""
"","do_trial","279","1681358","0.0-254.0-0.0","412.2000000476837","","","","49","1,0,0","5","coast","203","probe-94","1","0.3421541390299894","0.06087304246295522","1","","","","","",""
"","do_trial","280","1687263","0.0-255.0-0.0","377.2999999523163","","","","49","1,0,0","5","coast","204","probe-184","0.9316956041451756","0.20833654938398602","0.10562005358901236","1","","","","","",""
"","do_trial","281","1693156","0.0-256.0-0.0","361","","","","49","0,1,0","5","coast","205","probe-231","0.8187346555226479","0.21290743269785245","0.15774235080973673","0","","","","","",""
"","do_trial","282","1699025","0.0-257.0-0.0","342.2000000476837","","","","49","1,0,0","5","coast","206","probe-237","0.821966864984596","0.2787048737050644","0.15021677990304969","1","","","","","",""
"","do_trial","283","1704978","0.0-258.0-0.0","419.7000000476837","","","","49","1,0,0","5","coast","207","probe-100","0.7986593324368627","0.43543460680754537","0.11895532270103243","1","","","","","",""
"","do_trial","284","1710809","0.0-259.0-0.0","299.7999999523163","","","","49","1,0,0","5","coast","208","probe-194","0.8405318335553891","0.39083803624932456","0.1618631679343021","1","","","","","",""
"","do_trial","285","1716552","0.0-260.0-0.0","202.29999995231628","","","","49","0,1,0","5","coast","209","probe-176","0.8079307904596705","0.3709943380282635","0.06795698885438278","0","","","","","",""
"","do_trial","286","1722255","0.0-261.0-0.0","166.10000014305115","","","","49","1,0,0","5","coast","210","probe-109","0.5959585902649419","0.38563208218823825","0.3444744198150262","1","","","","","",""
"","do_trial","287","1728356","0.0-262.0-0.0","560.2000000476837","","","","49","0,0,1","5","coast","211","probe-114","0.32252936517324876","0.46321057330201193","0.5416382383438948","0","","","","","",""
"","do_trial","288","1734165","0.0-263.0-0.0","266.5","","","","49","1,0,0","5","coast","212","probe-130","0.2512250943455154","0.44673339462878775","0.6259389011796396","1","","","","","",""
"","do_trial","289","1740089","0.0-264.0-0.0","391.19999980926514","","","","49","0,0,1","5","coast","213","probe-112","0.22755984814279706","0.46898776726360303","0.805070276644334","0","","","","","",""
"","do_trial","290","1745854","0.0-265.0-0.0","231.5","","","","49","0,1,1","5","coast","214","probe-158","0.15296571121437286","0.3417035582538801","0.9001081953304639","0","","","","","",""
"","do_trial","291","1751726","0.0-266.0-0.0","341.2000000476837","","","","49","1,0,0","5","coast","215","probe-54","0.14746797903746311","0.32315089643771605","0.8291934152216445","1","","","","","",""
"","do_trial","292","1757574","0.0-267.0-0.0","307","","","","49","0,0,0","5","coast","216","probe-235","0.10676189981799052","0.3729453767899256","0.7060679620910496","0","","","","","",""
"","do_trial","293","1763544","0.0-268.0-0.0","435.7000000476837","","","","49","1,1,0","5","coast","217","probe-76","0.12165076922298922","0.4565418363636816","0.7266118507790583","1","","","","","",""
"","do_trial","294","1769714","0.0-269.0-0.0","637.5999999046326","","","","49","0,1,1","5","coast","218","probe-107","0.12898158187811032","0.3549813370664078","0.6702383823503055","0","","","","","",""
"","do_trial","295","1775597","0.0-270.0-0.0","338.10000014305115","","","","49","0,0,1","5","coast","219","probe-147","0.09988714459293524","0.5003772460543218","0.6249881291541324","0","","","","","",""
"","do_trial","296","1781668","0.0-271.0-0.0","538.4000000953674","","","","49","0,1,1","5","coast","220","probe-232","0.0804062588965639","0.4054564211838765","0.7396627035834061","0","","","","","",""
"","do_trial","297","1787804","0.0-272.0-0.0","577.6000001430511","","","","49","0,0,1","5","coast","221","probe-196","0.05472248646878171","0.3604994627543948","0.803043606871125","0","","","","","",""
"","do_trial","298","1793643","0.0-273.0-0.0","300.09999990463257","","","","49","0,0,1","5","coast","222","probe-191","0.18475892471589825","0.4315782202777924","0.8743238149925392","0","","","","","",""
"","do_trial","299","1799902","0.0-274.0-0.0","726.4000000953674","","","","49","1,0,1","5","coast","223","probe-15","0.1689160912856514","0.3466192425006478","0.8040976330231209","1","","","","","",""
"","do_trial","300","1805943","0.0-275.0-0.0","474","","","","49","0,1,0","5","coast","224","probe-202","0.13406744633471207","0.3464817686787703","0.7397056482040462","0","","","","","",""
"","do_trial","301","1811698","0.0-276.0-0.0","219.5","","","","49","0,1,1","5","coast","225","probe-96","0.13118800605347125","0.4500412615164215","0.7703787472020929","0","","","","","",""
"","do_trial","302","1817733","0.0-277.0-0.0","495.90000009536743","","","","49","0,0,1","5","coast","226","probe-120","0.17862559665449693","0.5159789339059511","0.8090963216504566","0","","","","","",""
"","do_trial","303","1823906","0.0-278.0-0.0","642.5","","","","49","0,0,0","5","coast","227","probe-39","0.08537727111862467","0.4633186058409846","0.7578664611341496","0","","","","","",""
"","do_trial","304","1829985","0.0-279.0-0.0","551.7000000476837","","","","49","0,0,1","5","coast","228","probe-55","0.09607505692335949","0.36452736199939023","0.8649925979692329","0","","","","","",""
"","do_trial","305","1835770","0.0-280.0-0.0","243.10000014305115","","","","49","1,1,1","5","coast","229","probe-199","0.11629568956608285","0.35096985280073334","0.8441963221902846","1","","","","","",""
"","do_trial","306","1841589","0.0-281.0-0.0","288.89999985694885","","","","49","0,1,1","5","coast","230","probe-42","0.2783551112743473","0.4032958273437606","0.7993366965952639","0","","","","","",""
"","do_trial","307","1847262","0.0-282.0-0.0","137.70000004768372","","","","49","0,1,1","5","coast","231","probe-52","0.22897829972607248","0.275745177258464","0.765118555323407","0","","","","","",""
"","do_trial","308","1852917","0.0-283.0-0.0","105.69999980926514","","","","49","0,1,0","5","coast","232","probe-05","0.06296686458750816","0.33285822997262915","0.9298610410991726","0","","","","","",""
"","do_trial","309","1858461","0.0-284.0-0.0","0.10000014305114746","","","","49","0,0,1","5","coast","233","probe-201","0.17206733892093176","0.31834946851261925","0.8060998417913338","0","","","","","",""
"","do_trial","310","1864525","0.0-285.0-0.0","534.1999998092651","","","","49","0,0,1","5","coast","234","probe-04","0.1617133201738431","0.21888556179771684","0.742069348182612","0","","","","","",""
"","do_trial","311","1870370","0.0-286.0-0.0","313.80000019073486","","","","49","0,0,1","5","coast","235","probe-86","0.2638415828379491","0.41767123469689554","0.7843473033746868","0","","","","","",""
"","do_trial","312","1876415","0.0-287.0-0.0","511.7999999523163","","","","49","0,1,1","5","coast","236","probe-210","0.3247580899673531","0.38905926021826837","0.8209484289274529","0","","","","","",""
"","do_trial","313","1883686","0.0-288.0-0.0","1741.2000000476837","","","","49","0,1,1","5","coast","237","probe-136","0.2672919510792624","0.4354480663119326","0.830914147438921","0","","","","","",""
"","do_trial","314","1889524","0.0-289.0-0.0","302.7000000476837","","","","49","1,0,1","5","coast","238","probe-126","0.3029118481484943","0.39059561804485926","0.7538306320169125","1","","","","","",""
"","do_trial","315","1895165","0.0-290.0-0.0","107","","","","49","0,0,1","5","coast","239","probe-44","0.29144030150670464","0.42632418303496045","0.8747413910369315","0","","","","","",""
"","do_bye","316","1896673","0.0-291.0-0.0","null","","","","null","","","","","","","","","","","","","","",""
"","html-keyboard-response","317","1902688","0.0-291.0-1.0","6013.799999952316","<div class='center'><p>You may take a break now!</p><p> Stretch for a little bit. Get a glass of water.</p><p> You have two minutes to rest. Then, the game will automatically move on.</p><p>If you’d like to get started on the second half of the experiment sooner, then press the <b>space bar</b></p></div>","32","","","","","","","","","","","","","","","","",""
"","html-keyboard-response","318","1911992","0.0-291.0-2.0","9303.5","<div class='center'><p>You’ve arrived at the final destination of your journey! Unfortunately, it’s very foggy out, so you won’t be able to see it in the distance like in previous places you've visited.</p><p>You’ll still be deciding which pirates you want to rob ships. However, because of the fog you also won’t be able to see the ship in the distance. </p><p><b>[Press the space bar to continue]</b></p></div>","32","","","","","","","","","","","","","","","","",""
"","html-keyboard-response","319","1918910","0.0-291.0-3.0","6917.400000095367","<div class='center'><p> Sometimes you’ll be asked if you’ve seen a ship before (see the example below). You will use the 5, 6, 7, 8 buttons on your keyboard to respond. </p><p> If you definitely did not see the ship, pick the the big red thumbs down by pressing <b>5</b>.</p><p> If you don’t think you saw it but aren’t sure, then pick the small red thumbs down by pressing <b>6</b>.</p><p> If you think you might have seen it, then pick the small green thumbs up by pressing <b>7</b>.</p><p> If you definitely did see this ship before, then pick the big thumb green thumbs up by pressing <b>8</b>.</p><p> If you recall correctly, then you’ll get a gold coin!</p><p><b>[Press the space bar to begin the next phase of the experiment]</b></p><p><img src='run_exp/static/images/example_recog_trial.png' height='500'></p></div>","32","","","","","","","","","","","","","","","","",""
"","do_welcome","320","1920414","0.0-291.0-4.0","null","","","","null","","","","","","","","","","","","","","",""
"","do_trial","321","1926141","0.0-292.0-0.0","2187.100000143051","","","","51","1,0,1","6","blank","240","null","0.34350199075184296","0.32205405207855997","1","1","","","","","",""
"","do_recog","322","1932160","0.0-293.0-0.0","null","","","","null","","","","241","probe-99","","","","","1","[object Object]","40","1","0",""
"","do_trial","323","1936582","0.0-294.0-0.0","890.5999999046326","","","","50","0,1,1","6","blank","242","null","0.2527128455594258","0.28210204717164455","0.7887078882792292","1","","","","","",""
"","do_trial","324","1941644","0.0-295.0-0.0","1531.4000000953674","","","","49","0,0,0","6","blank","243","null","0.1844254437508401","0.30570211396810587","0.694890132940041","0","","","","","",""
"","do_trial","325","1945459","0.0-296.0-0.0","284.2000000476837","","","","50","0,1,1","6","blank","244","null","0.17427576211624435","0.44263983409911606","0.6664878416571781","1","","","","","",""
"","do_trial","326","1949217","0.0-297.0-0.0","230.79999995231628","","","","50","0,1,0","6","blank","245","null","0.090384525701966","0.420300191571757","0.7060460003664987","1","","","","","",""
"","do_trial","327","1952935","0.0-298.0-0.0","189.60000014305115","","","","50","1,0,1","6","blank","246","null","0.1095872103242507","0.4775498354909669","0.7130828571848885","0","","","","","",""
"","do_recog","328","1956544","0.0-299.0-0.0","2104.2000000476837","","","","54","","","","247","probe-61","","","","","1","[object Object]","125","3","0",""
"","do_trial","329","1960781","0.0-300.0-0.0","707.9000000953674","","","","50","1,0,1","6","blank","248","null","0.20318712515992868","0.4513688251208977","0.765355459459975","0","","","","","",""
"","do_recog","330","1963899","0.0-301.0-0.0","1614.2999999523163","","","","54","","","","249","probe-217","","","","","1","[object Object]","201","5","0",""
"","do_trial","331","1967716","0.0-302.0-0.0","275","","","","51","0,0,1","6","blank","250","null","0.25491270799837584","0.44579640834883166","0.7858982121953042","1","","","","","",""
"","do_trial","332","1971638","0.0-303.0-0.0","392","","","","51","0,0,0","6","blank","251","null","0.1202388336406844","0.33302704146771633","0.7054756491865664","0","","","","","",""
"","do_trial","333","1975483","0.0-304.0-0.0","313.09999990463257","","","","50","0,0,1","6","blank","252","null","0.16772288623054013","0.4309127186876679","0.584605551542423","0","","","","","",""
"","do_trial","334","1979288","0.0-305.0-0.0","273.2000000476837","","","","50","1,0,0","6","blank","253","null","0.4320254376022526","0.6751559372244996","0.31820099042649763","0","","","","","",""
"","do_trial","335","1982997","0.0-306.0-0.0","175.40000009536743","","","","49","0,1,1","6","blank","254","null","0.6010587920001131","0.5548935440257105","0.2963202911108841","0","","","","","",""
"","do_trial","336","1986835","0.0-307.0-0.0","298.7999999523163","","","","49","0,0,0","6","blank","255","null","0.640391670267548","0.5087542477093521","0.0888159202150251","0","","","","","",""
"","do_trial","337","1990554","0.0-308.0-0.0","188","","","","50","0,0,0","6","blank","256","null","0.7743513045679623","0.542703702142677","0.13805752283655012","0","","","","","",""
"","do_recog","338","1994002","0.0-309.0-0.0","1935.0999999046326","","","","53","","","","257","probe-175","","","","","1","[object Object]","162","4","0",""
"","do_trial","339","1998112","0.0-310.0-0.0","581.7000000476837","","","","50","1,0,0","6","blank","258","null","0.9482508269426153","0.28786737001166246","0.1662853254024568","0","","","","","",""
"","do_recog","340","2001480","0.0-311.0-0.0","1853.4000000953674","","","","54","","","","259","probe-243","","","","","0","[object Object]","null","null","1",""
"","do_trial","341","2005672","0.0-312.0-0.0","666","","","","50","1,0,0","6","blank","260","null","0.8844139761238947","0.450796880820845","0.16182519985137472","0","","","","","",""
"","do_recog","342","2008721","0.0-313.0-0.0","1532.7999999523163","","","","55","","","","261","probe-74","","","","","1","[object Object]","81","2","1",""
"","do_trial","343","2012597","0.0-314.0-0.0","349.2999999523163","","","","50","1,1,0","6","blank","262","null","0.9330851965513377","0.5484468279639859","0.10345624028691361","1","","","","","",""
"","do_recog","344","2015613","0.0-315.0-0.0","1508.4000000953674","","","","56","","","","263","probe-29","","","","","1","[object Object]","165","4","1",""
"","do_trial","345","2019420","0.0-316.0-0.0","280.2000000476837","","","","50","1,1,1","6","blank","264","null","0.8655013668509625","0.5738543122556689","0.08746960751139567","1","","","","","",""
"","do_recog","346","2022336","0.0-317.0-0.0","1412.5","","","","56","","","","265","probe-184","","","","","1","[object Object]","204","5","1",""
"","do_trial","347","2026206","0.0-318.0-0.0","332.09999990463257","","","","50","1,0,0","6","blank","266","null","0.7463830702568969","0.5157609318512957","0.05935218174155453","0","","","","","",""
"","do_recog","348","2029272","0.0-319.0-0.0","1538.7000000476837","","","","54","","","","267","probe-160","","","","","1","[object Object]","82","2","0",""
"","do_trial","349","2033110","0.0-320.0-0.0","307.39999985694885","","","","50","1,1,0","6","blank","268","null","0.6903341954100775","0.3914775546635198","0.08109988048494687","1","","","","","",""
"","do_recog","350","2035916","0.0-321.0-0.0","1301.0999999046326","","","","56","","","","269","probe-153","","","","","1","[object Object]","163","4","1",""
"","do_trial","351","2039680","0.0-322.0-0.0","233.09999990463257","","","","50","0,0,0","6","blank","270","null","0.7172574769211753","0.38347069405057166","0.13944775393766903","0","","","","","",""
"","do_trial","352","2043563","0.0-323.0-0.0","355.2000000476837","","","","50","1,0,0","6","blank","271","null","0.6891894910791138","0.3833515613180963","0.06003989378558861","0","","","","","",""
"","do_trial","353","2047218","0.0-324.0-0.0","127.29999995231628","","","","50","0,1,0","6","blank","272","null","0.7646882472033779","0.3438730911965082","0.20523488935662934","1","","","","","",""
"","do_trial","354","2050828","0.0-325.0-0.0","70.89999985694885","","","","50","1,0,0","6","blank","273","null","0.7204934735606118","0.48675941956687596","0.07530253501322044","0","","","","","",""
"","do_trial","355","2054503","0.0-326.0-0.0","144.79999995231628","","","","50","1,1,0","6","blank","274","null","0.8236944102734871","0.4682065009106991","0.13984940425049938","1","","","","","",""
"","do_recog","356","2057936","0.0-327.0-0.0","1929.7000000476837","","","","54","","","","275","probe-152","","","","","1","[object Object]","89","2","0",""
"","do_trial","357","2061860","0.0-328.0-0.0","383.09999990463257","","","","50","1,0,0","6","blank","276","null","0.7848573086155896","0.41743473965938893","0.18238696748019861","0","","","","","",""
"","do_recog","358","2064533","0.0-329.0-0.0","1166.9000000953674","","","","56","","","","277","probe-188","","","","","1","[object Object]","43","1","1",""
"","do_trial","359","2068328","0.0-330.0-0.0","267.7000000476837","","","","50","1,1,0","6","blank","278","null","0.8383553292432384","0.46240768917736413","0.2084832451859014","1","","","","","",""
"","do_recog","360","2070939","0.0-331.0-0.0","1107.5","","","","56","","","","279","probe-49","","","","","1","[object Object]","129","3","1",""
"","do_trial","361","2075180","0.0-332.0-0.0","709.5999999046326","","","","50","1,1,1","6","blank","280","null","0.9394481962709091","0.47282997131718035","0.12708340364942258","1","","","","","",""
"","do_recog","362","2078425","0.0-333.0-0.0","1741.8999998569489","","","","53","","","","281","probe-256","","","","","0","[object Object]","null","null","1",""
"","do_trial","363","2082253","0.0-334.0-0.0","294.10000014305115","","","","50","1,1,1","6","blank","282","null","0.8539441899189935","0.5823332661416153","0.18436573643182738","1","","","","","",""
"","do_recog","364","2086008","0.0-335.0-0.0","2243.9000000953674","","","","53","","","","283","probe-246","","","","","0","[object Object]","null","null","1",""
"","do_trial","365","2089788","0.0-336.0-0.0","249","","","","50","0,1,1","6","blank","284","null","0.6728988846451637","0.44106921433528334","0.20385411060060843","1","","","","","",""
"","do_trial","366","2093777","0.0-337.0-0.0","458.40000009536743","","","","50","1,1,0","6","blank","285","null","1","0.5217410369435386","0.194582466846913","1","","","","","",""
"","do_trial","367","2097676","0.0-338.0-0.0","364.7000000476837","","","","50","0,1,1","6","blank","286","null","0.7979068858126839","0.5417326426083907","0.28636753592504127","1","","","","","",""
"","do_trial","368","2101544","0.0-339.0-0.0","336.2000000476837","","","","50","0,0,0","6","blank","287","null","0.6372299317904008","0.461521685175436","0.18529947455394777","0","","","","","",""
"","do_recog","369","2104638","0.0-340.0-0.0","1590.9000000953674","","","","53","","","","288","probe-140","","","","","1","[object Object]","167","4","0",""
"","do_trial","370","2108384","0.0-341.0-0.0","216.70000004768372","","","","50","1,1,0","6","blank","289","null","0.7308686239220263","0.5528280824129476","0.12405078174737981","1","","","","","",""
"","do_trial","371","2112266","0.0-342.0-0.0","345","","","","50","1,0,0","6","blank","290","null","0.7893033401889215","0.413466675073116","0.07467443664975944","0","","","","","",""
"","do_trial","372","2116174","0.0-343.0-0.0","376.7999999523163","","","","50","1,0,0","6","blank","291","null","0.7911347770411181","0.4752202407767341","0.05171001079319749","0","","","","","",""
"","do_recog","373","2119028","0.0-344.0-0.0","1351.0999999046326","","","","56","","","","292","probe-122","","","","","1","[object Object]","45","1","1",""
"","do_trial","374","2123052","0.0-345.0-0.0","480.5","","","","50","1,0,1","6","blank","293","null","0.9054039384695673","0.39577774698787355","0.10293801377953343","0","","","","","",""
"","do_trial","375","2126956","0.0-346.0-0.0","362.90000009536743","","","","50","1,0,0","6","blank","294","null","0.9289610550647985","0.33562797969317","0.05482806708657212","0","","","","","",""
"","do_recog","376","2129743","0.0-347.0-0.0","1282.7000000476837","","","","56","","","","295","probe-194","","","","","1","[object Object]","208","5","1",""
"","do_trial","377","2133562","0.0-348.0-0.0","284.39999985694885","","","","50","1,1,0","6","blank","296","null","0.8111823152668594","0.32840060328775594","0.09117937591914016","1","","","","","",""
"","do_trial","378","2137339","0.0-349.0-0.0","234.90000009536743","","","","50","1,0,0","6","blank","297","null","0.8608733417153811","0.22341027218336668","0.0677044757985964","0","","","","","",""
"","do_recog","379","2140150","0.0-350.0-0.0","1306.7999999523163","","","","56","","","","298","probe-239","","","","","1","[object Object]","123","3","1",""
"","do_trial","380","2144064","0.0-351.0-0.0","385.2999999523163","","","","50","1,1,0","6","blank","299","null","0.8926564131570714","0.27814487875853106","0.19601566519732722","1","","","","","",""
"","do_trial","381","2148053","0.0-352.0-0.0","459.5","","","","50","1,1,0","6","blank","300","null","0.8660380642410018","0.22311360827441407","0.29682747295789597","1","","","","","",""
"","do_recog","382","2151298","0.0-353.0-0.0","1740.3999998569489","","","","56","","","","301","probe-103","","","","","1","[object Object]","166","4","1",""
"","do_trial","383","2155153","0.0-354.0-0.0","313.59999990463257","","","","50","1,1,0","6","blank","302","null","0.6638032772762833","0.09654767683788588","0.414883380785242","1","","","","","",""
"","do_trial","384","2158977","0.0-355.0-0.0","292.2999999523163","","","","50","1,0,0","6","blank","303","null","0.571813235760431","0.08352549793121028","0.45134408053860875","0","","","","","",""
"","do_trial","385","2162844","0.0-356.0-0.0","341","","","","50","1,0,1","6","blank","304","null","0.5340339398111664","0.12346028449806067","0.6001480922779566","0","","","","","",""
"","do_recog","386","2166003","0.0-357.0-0.0","1654.5999999046326","","","","53","","","","305","probe-113","","","","","1","[object Object]","46","1","0",""
"","do_trial","387","2170052","0.0-358.0-0.0","493.5","","","","50","0,0,1","6","blank","306","null","0.42899422632149453","0.13305844864102745","0.567431361885928","0","","","","","",""
"","do_recog","388","2172769","0.0-359.0-0.0","1214.2999999523163","","","","56","","","","307","probe-231","","","","","1","[object Object]","205","5","1",""
"","do_trial","389","2176735","0.0-360.0-0.0","439.10000014305115","","","","50","0,0,0","6","blank","308","null","0.1954004865300024","0.21851036997038534","0.53181062824034","0","","","","","",""
"","do_recog","390","2181426","0.0-361.0-0.0","3183.100000143051","","","","53","","","","309","probe-31","","","","","1","[object Object]","42","1","0",""
"","do_trial","391","2185471","0.0-362.0-0.0","513.3999998569489","","","","50","1,0,0","6","blank","310","null","0.22627959884715473","0.3064965787900377","0.6950201575083824","0","","","","","",""
"","do_recog","392","2187785","0.0-363.0-0.0","808.5","","","","53","","","","311","probe-134","","","","","1","[object Object]","127","3","0",""
"","do_trial","393","2191642","0.0-364.0-0.0","327.40000009536743","","","","50","0,1,1","6","blank","312","null","0.18033077482028567","0.26174085212376647","0.7597551729198629","1","","","","","",""
"","do_recog","394","2194466","0.0-365.0-0.0","1321.5","","","","54","","","","313","probe-16","","","","","1","[object Object]","49","1","0",""
"","do_trial","395","2198362","0.0-366.0-0.0","366.2999999523163","","","","50","0,0,1","6","blank","314","null","0.10425838154523522","0.12886018529375207","0.7250432017545293","0","","","","","",""
"","do_trial","396","2202286","0.0-367.0-0.0","389.09999990463257","","","","50","0,0,1","6","blank","315","null","0.32505418456145385","0.07804024560206449","0.7596178137672008","0","","","","","",""
"","do_trial","397","2206284","0.0-368.0-0.0","466.89999985694885","","","","50","0,0,1","6","blank","316","null","0.4509330174460442","0.16446382224796804","0.7708838734066636","0","","","","","",""
"","do_recog","398","2212309","0.0-369.0-0.0","null","","","","null","","","","317","probe-177","","","","","1","[object Object]","200","5","0",""
"","do_trial","399","2216129","0.0-370.0-0.0","289.39999985694885","","","","50","0,0,1","6","blank","318","null","0.3929375355339645","0.059078945220076305","0.7132542109880302","0","","","","","",""
"","do_recog","400","2218766","0.0-371.0-0.0","1128.5","","","","56","","","","319","probe-178","","","","","1","[object Object]","87","2","1",""
"","do_trial","401","2222664","0.0-372.0-0.0","354.30000019073486","","","","50","1,0,1","6","blank","320","null","0.44133449144648046","0.0644083088471821","0.7181353172704972","0","","","","","",""
"","do_trial","402","2226891","0.0-373.0-0.0","699.5","","","","50","0,0,1","6","blank","321","null","0.49255861462385325","0.06015509230772681","0.6401319326421693","0","","","","","",""
"","do_trial","403","2231212","0.0-374.0-0.0","765.5999999046326","","","","50","0,0,1","6","blank","322","null","0.4335150050672537","0.05520020942321928","0.806514909843915","0","","","","","",""
"","do_trial","404","2235189","0.0-375.0-0.0","446.09999990463257","","","","50","1,0,1","6","blank","323","null","0.3674225067758552","0.1250615341979333","0.8141889205761408","0","","","","","",""
"","do_trial","405","2238980","0.0-376.0-0.0","253.30000019073486","","","","50","0,0,1","6","blank","324","null","0.3429107134089998","0.20500820303097594","0.9100289556404352","0","","","","","",""
"","do_recog","406","2241890","0.0-377.0-0.0","1391.7000000476837","","","","53","","","","325","probe-186","","","","","1","[object Object]","160","4","0",""
"","do_trial","407","2245804","0.0-378.0-0.0","375.30000019073486","","","","50","0,0,0","6","blank","326","null","0.3772096754636497","0.13763166365243432","0.7980866661549234","0","","","","","",""
"","do_recog","408","2248244","0.0-379.0-0.0","924.3000001907349","","","","56","","","","327","probe-193","","","","","1","[object Object]","85","2","1",""
"","do_trial","409","2252224","0.0-380.0-0.0","450.80000019073486","","","","50","1,0,1","6","blank","328","null","0.36424938189469275","0.16597784703915372","0.7704954908568438","0","","","","","",""
"","do_recog","410","2256268","0.0-381.0-0.0","2529.199999809265","","","","56","","","","329","probe-255","","","","","0","[object Object]","null","null","0",""
"","do_trial","411","2260302","0.0-382.0-0.0","499.2000000476837","","","","50","1,0,1","6","blank","330","null","0.4193552438344592","0.07693403912610372","1","0","","","","","",""
"","do_recog","412","2262900","0.0-383.0-0.0","1084","","","","56","","","","331","probe-02","","","","","1","[object Object]","128","3","1",""
"","do_trial","413","2267168","0.0-384.0-0.0","740.2000000476837","","","","50","1,0,1","6","blank","332","null","0.37967429364356653","0.21588529933903652","0.9183506479544103","0","","","","","",""
"","do_trial","414","2271496","0.0-385.0-0.0","792.7999999523163","","","","50","0,0,1","6","blank","333","null","0.39315891870468445","0.15313243362740886","0.9004265285648043","0","","","","","",""
"","do_trial","415","2275749","0.0-386.0-0.0","718.2000000476837","","","","50","1,0,1","6","blank","334","null","0.4542098553465137","0.22133730955202477","0.8822589635154353","0","","","","","",""
"","do_recog","416","2278477","0.0-387.0-0.0","1212.2000000476837","","","","56","","","","335","probe-129","","","","","1","[object Object]","120","3","1",""
"","do_trial","417","2282651","0.0-388.0-0.0","642.1000001430511","","","","50","0,0,1","6","blank","336","null","0.33780462768642977","0.12199805095363082","0.7145487487506541","0","","","","","",""
"","do_recog","418","2285101","0.0-389.0-0.0","938","","","","56","","","","337","probe-127","","","","","1","[object Object]","122","3","1",""
"","do_trial","419","2289004","0.0-390.0-0.0","373.39999985694885","","","","50","0,0,0","6","blank","338","null","0.43952782028860393","0.23976266540011157","0.6993074940068884","0","","","","","",""
"","do_trial","420","2292876","0.0-391.0-0.0","337.90000009536743","","","","50","0,0,1","6","blank","339","null","0.36458475647266836","0.36792674272445763","0.8412024709532869","0","","","","","",""
"","do_trial","421","2296834","0.0-392.0-0.0","426.2999999523163","","","","50","0,0,1","6","blank","340","null","0.3938811790969997","0.17066337589040295","0.9014913857701261","0","","","","","",""
"","do_trial","422","2300595","0.0-393.0-0.0","230.59999990463257","","","","50","0,0,1","6","blank","341","null","0.5216750707868567","0.05304368216312508","0.8297377763510544","0","","","","","",""
"","do_recog","423","2303446","0.0-394.0-0.0","1343.9000000953674","","","","53","","","","342","probe-154","","","","","1","[object Object]","83","2","0",""
"","do_trial","424","2307446","0.0-395.0-0.0","464","","","","50","0,0,1","6","blank","343","null","0.4749819457477026","0.1463349221220863","0.831962821302473","0","","","","","",""
"","do_trial","425","2311364","0.0-396.0-0.0","372.89999985694885","","","","50","0,0,1","6","blank","344","null","0.5007974897923575","0.061025094027698436","0.6818262702456026","0","","","","","",""
"","do_recog","426","2314076","0.0-397.0-0.0","1196.2000000476837","","","","56","","","","345","probe-94","","","","","1","[object Object]","203","5","1",""
"","do_trial","427","2318428","0.0-398.0-0.0","820.2000000476837","","","","50","1,0,0","6","blank","346","null","0.5881651524936607","0.06798781947136613","0.5912102232628508","0","","","","","",""
"","do_trial","428","2322355","0.0-399.0-0.0","384.90000009536743","","","","50","1,0,1","6","blank","347","null","0.6571759797403646","0.13916208124981297","0.5786322156403881","0","","","","","",""
"","do_trial","429","2326405","0.0-400.0-0.0","511.09999990463257","","","","50","1,0,0","6","blank","348","null","0.8378844739721769","0.20416402930120758","0.4135515195730339","0","","","","","",""
"","do_trial","430","2330090","0.0-401.0-0.0","148.89999985694885","","","","50","1,0,1","6","blank","349","null","0.9032499601597863","0.13303613916872561","0.4358109372422824","0","","","","","",""
"","do_trial","431","2334174","0.0-402.0-0.0","542","","","","50","0,0,1","6","blank","350","null","0.7633216307709191","0.22774426601362954","0.30159459049389215","0","","","","","",""
"","do_recog","432","2337793","0.0-403.0-0.0","2110","","","","54","","","","351","probe-187","","","","","1","[object Object]","164","4","0",""
"","do_trial","433","2342150","0.0-404.0-0.0","827.7000000476837","","","","50","0,0,1","6","blank","352","null","0.6591595575906489","0.09426097570865168","0.3031727505755909","0","","","","","",""
"","do_recog","434","2344553","0.0-405.0-0.0","895","","","","56","","","","353","probe-62","","","","","1","[object Object]","44","1","1",""
"","do_trial","435","2348618","0.0-406.0-0.0","528.9000000953674","","","","50","1,0,1","6","blank","354","null","0.7394643377472562","0.13689699577360145","0.2565812584937806","0","","","","","",""
"","do_recog","436","2351222","0.0-407.0-0.0","1097.1000001430511","","","","56","","","","355","probe-14","","","","","1","[object Object]","169","4","1",""
"","do_trial","437","2355059","0.0-408.0-0.0","310.19999980926514","","","","50","1,0,0","6","blank","356","null","0.739286338964525","0.0929547492881314","0.30452852790163665","0","","","","","",""
"","do_trial","438","2358860","0.0-409.0-0.0","269.7999999523163","","","","50","1,1,0","6","blank","357","null","0.6862114213862859","0.051673907791961265","0.23784561396813153","1","","","","","",""
"","do_trial","439","2364891","0.0-410.0-0.0","null","","","","null","1,0,0","6","blank","358","null","0.711387643750303","0.12185440379331346","0.36226951584368144","","","","","","",""
"","do_trial","440","2368677","0.0-411.0-0.0","243.5","","","","50","1,0,0","6","blank","359","null","0.4416474422154858","0.2396997028887613","0.3996583602646868","0","","","","","",""
"","do_trial","441","2372518","0.0-412.0-0.0","309.7000000476837","","","","50","0,0,0","6","blank","360","null","0.5938696136695721","0.1269324402315278","0.4641212533886506","0","","","","","",""
"","do_trial","442","2376387","0.0-413.0-0.0","338.5","","","","50","1,0,1","6","blank","361","null","0.6820304481464602","0.1349703844139104","0.40514889580333013","0","","","","","",""
"","do_trial","443","2380252","0.0-414.0-0.0","333.90000009536743","","","","50","1,1,1","6","blank","362","null","0.6920607877814705","0.15056596067140635","0.49181290635915986","1","","","","","",""
"","do_recog","444","2382859","0.0-415.0-0.0","1087.7999999523163","","","","56","","","","363","probe-197","","","","","1","[object Object]","124","3","1",""
"","do_trial","445","2386955","0.0-416.0-0.0","565.5","","","","50","0,0,1","6","blank","364","null","0.7048584252616626","0.07695541725845716","0.46830668256071534","0","","","","","",""
"","do_recog","446","2389623","0.0-417.0-0.0","1154.8000001907349","","","","56","","","","365","probe-100","","","","","1","[object Object]","207","5","1",""
"","do_trial","447","2393387","0.0-418.0-0.0","218.40000009536743","","","","50","0,0,0","6","blank","366","null","0.7216046333281697","0.10863559235334835","0.6412419657355","0","","","","","",""
"","do_recog","448","2396273","0.0-419.0-0.0","1379.0999999046326","","","","53","","","","367","probe-259","","","","","0","[object Object]","null","null","1",""
"","do_trial","449","2400059","0.0-420.0-0.0","246.29999995231628","","","","50","1,0,1","6","blank","368","null","0.8211344587166924","0.11167943700790875","0.5997277363992486","0","","","","","",""
"","do_recog","450","2403223","0.0-421.0-0.0","1647.7000000476837","","","","56","","","","369","probe-124","","","","","1","[object Object]","126","3","1",""
"","do_trial","451","2407136","0.0-422.0-0.0","382.69999980926514","","","","50","1,0,1","6","blank","370","null","0.8036683807405907","0.12105733013216263","0.46629819380949034","0","","","","","",""
"","do_trial","452","2411106","0.0-423.0-0.0","441.60000014305115","","","","50","0,0,0","6","blank","371","null","0.6513897049219068","0.19506980723567222","0.42630436157227","0","","","","","",""
"","do_trial","453","2414853","0.0-424.0-0.0","220","","","","50","1,0,1","6","blank","372","null","1","0.09307492003331438","0.35380363991882746","0","","","","","",""
"","do_recog","454","2418192","0.0-425.0-0.0","1833.5","","","","56","","","","373","probe-225","","","","","1","[object Object]","168","4","1",""
"","do_trial","455","2422444","0.0-426.0-0.0","717.4000000953674","","","","50","1,0,0","6","blank","374","null","0.9288823550215419","0.22003394964167822","0.3749659512204721","0","","","","","",""
"","do_recog","456","2425209","0.0-427.0-0.0","1253.0999999046326","","","","56","","","","375","probe-220","","","","","1","[object Object]","41","1","1",""
"","do_trial","457","2429505","0.0-428.0-0.0","751.4000000953674","","","","50","0,0,0","6","blank","376","null","0.7553823160402834","0.09912984314177463","0.4266970835726491","0","","","","","",""
"","do_recog","458","2435515","0.0-429.0-0.0","null","","","","null","","","","377","probe-229","","","","","1","[object Object]","80","2","0",""
"","do_trial","459","2439448","0.0-430.0-0.0","402.89999985694885","","","","50","1,0,0","6","blank","378","null","0.7739726310086475","0.11449843809413611","0.3409858436434156","0","","","","","",""
"","do_trial","460","2444013","0.0-431.0-0.0","1032.7999999523163","","","","50","1,0,1","6","blank","379","null","0.7656211756367498","0.14053367936145322","0.4063528173149631","0","","","","","",""
"","do_recog","461","2447066","0.0-432.0-0.0","1545.2000000476837","","","","56","","","","380","probe-216","","","","","1","[object Object]","121","3","1",""
"","do_trial","462","2452173","0.0-433.0-0.0","1566.7000000476837","","","","50","1,0,1","6","blank","381","null","0.6295265955529913","0.0662398357373489","0.402922301304699","0","","","","","",""
"","do_recog","463","2456686","0.0-434.0-0.0","3001.399999856949","","","","56","","","","382","probe-207","","","","","1","[object Object]","88","2","1",""
"","do_trial","464","2461151","0.0-435.0-0.0","937.2999999523163","","","","50","1,0,0","6","blank","383","null","0.7702192167774315","0.0772248991885028","0.4116107364219016","0","","","","","",""
"","do_recog","465","2463724","0.0-436.0-0.0","1057.5","","","","56","","","","384","probe-237","","","","","1","[object Object]","206","5","1",""
"","do_trial","466","2468682","0.0-437.0-0.0","1428.5999999046326","","","","50","1,0,0","6","blank","385","null","0.7356039985316373","0.1593653573613024","0.2917844722496913","0","","","","","",""
"","do_recog","467","2472085","0.0-438.0-0.0","1893.6000001430511","","","","53","","","","386","probe-247","","","","","0","[object Object]","null","null","1",""
"","do_trial","468","2476077","0.0-439.0-0.0","459.2000000476837","","","","50","1,0,0","6","blank","387","null","0.7314316216936098","0.07740975062802866","0.27549068914944047","0","","","","","",""
"","do_recog","469","2478668","0.0-440.0-0.0","1076","","","","56","","","","388","probe-176","","","","","1","[object Object]","209","5","1",""
"","do_trial","470","2482752","0.0-441.0-0.0","548.2999999523163","","","","50","0,0,0","6","blank","389","null","0.5956798162652419","0.14927979627859342","0.3889172651898827","0","","","","","",""
"","do_recog","471","2485438","0.0-442.0-0.0","1164.8000001907349","","","","56","","","","390","probe-12","","","","","1","[object Object]","161","4","1",""
"","do_trial","472","2489363","0.0-443.0-0.0","390.7999999523163","","","","50","1,1,1","6","blank","391","null","0.3970097373985448","0.28524382679805876","0.5596282566190607","1","","","","","",""
"","do_recog","473","2491788","0.0-444.0-0.0","921.6000001430511","","","","56","","","","392","probe-226","","","","","1","[object Object]","47","1","1",""
"","do_trial","474","2495602","0.0-445.0-0.0","287.09999990463257","","","","50","0,1,1","6","blank","393","null","0.11950194760383115","0.326689330050453","0.6034764927915098","1","","","","","",""
"","do_recog","475","2498244","0.0-446.0-0.0","1138.2000000476837","","","","53","","","","394","probe-111","","","","","1","[object Object]","202","5","0",""
