"success","trial_type","trial_index","time_elapsed","internal_node_id","interactions","blur_events","focus_events","fullscreenenter_events","fullscreenexit_events"
"true","fullscreen","0","8081","0.0-0.0","""event"",""trial"",""time""
""fullscreenenter"",""0"",""7142""
","
","
","""event"",""trial"",""time""
""fullscreenenter"",""0"",""7142""
","
"
"","pavlovia","1","8084","0.0-1.0","""event"",""trial"",""time""
""fullscreenenter"",""0"",""7142""
""fullscreenexit"",""2"",""31381""
""blur"",""2"",""34141""
","""event"",""trial"",""time""
""blur"",""2"",""34141""
","
","""event"",""trial"",""time""
""fullscreenenter"",""0"",""7142""
","""event"",""trial"",""time""
""fullscreenexit"",""2"",""31381""
"
