"success","trial_type","trial_index","time_elapsed","internal_node_id","interactions","blur_events","focus_events","fullscreenenter_events","fullscreenexit_events","rt","stimulus","key_press","subject_id","participant_id","age","gender","prompt","response","choice_outcomes","context_n","context_img_id","trial_n","probe_img_id","pR_red","pR_white","pR_black","outcome","contextArray_ind","validImageProbes","invalidImageProbes","pRew_Red","pRew_White","pRew_Black","availableForMemProbe","choice_blocks"
"true","fullscreen","0","3683","0.0-0.0","""event"",""trial"",""time""
""fullscreenenter"",""0"",""2717""
","
","
","""event"",""trial"",""time""
""fullscreenenter"",""0"",""2717""
","
","","","","","","","","","","","","","","","","","","","","","","","","","",""
"","pavlovia","1","3689","0.0-1.0","""event"",""trial"",""time""
""fullscreenenter"",""0"",""2717""
","
","
","""event"",""trial"",""time""
""fullscreenenter"",""0"",""2717""
","
","","","","","","","","","","","","","","","","","","","","","","","","","",""
"","instruc1","2","48854","0.0-2.0","""event"",""trial"",""time""
""fullscreenenter"",""0"",""2717""
","
","
","""event"",""trial"",""time""
""fullscreenenter"",""0"",""2717""
","
","null","run_exp/static/audio/clip_1_welcome.m4a","null","348","","22","male","<div class='center'><p>Welcome! This is the first part of the study. It will last ~30 minutes. In part 1 and part 2 of the study, you are the head captain of a pirate ship traveling around the world to different islands. You will play a few different games throughout these two parts. Here is an overview of them:</p><br><p>Part 1 (today)</p><p>1. Instructions, practice game, and quiz</p><p>2. Pick a pirate game on 6 different islands</p><br><p>Part 2 (tomorrow)</p><p>3. Pick a pirate game and memory game</p><p>4. Where did you see this ship? </p></div>","","","","","","","","","","","","","","","","","",""
"","html-keyboard-response","3","49862","0.0-3.0","""event"",""trial"",""time""
""fullscreenenter"",""0"",""2717""
","
","
","""event"",""trial"",""time""
""fullscreenenter"",""0"",""2717""
","
","1005.9000000003725","<div class='center'><p>Welcome! This is the first part of the study. It will last ~30 minutes. In part 1 and part 2 of the study, you are the head captain of a pirate ship traveling around the world to different islands. You will play a few different games throughout these two parts. Here is an overview of them:</p><br><p>Part 1 (today)</p><p>1. Instructions, practice game, and quiz</p><p>2. Pick a pirate game on 6 different islands</p><br><p>Part 2 (tomorrow)</p><p>3. Pick a pirate game and memory game</p><p>4. Where did you see this ship? </p><p><b>[Press the space bar to continue]</b></p></div>","32","","","","","","","","","","","","","","","","","","","","","","",""
"","instruc2","4","55193","0.0-4.0","""event"",""trial"",""time""
""fullscreenenter"",""0"",""2717""
","
","
","""event"",""trial"",""time""
""fullscreenenter"",""0"",""2717""
","
","null","run_exp/static/audio/clip_2_different_places.m4a","null","","","","","<div class='center'><p>Today, you’ll visit these 6 islands on your journey. You'll be able to see these islands from your ship.</p><p><img src='run_exp/static/images/contexts/all_contexts.png' height='500'></p></div>","","","","","","","","","","","","","","","","","",""
"","html-keyboard-response","5","58111","0.0-5.0","""event"",""trial"",""time""
""fullscreenenter"",""0"",""2717""
","
","
","""event"",""trial"",""time""
""fullscreenenter"",""0"",""2717""
","
","2916.7999999988824","<div class='center'><p>Today, you’ll visit these 6 islands on your journey. You'll be able to see these islands from your ship.</p><p><img src='run_exp/static/images/contexts/all_contexts.png' height='500'></p><p><b>[Press the space bar to continue]</b></p></div>","32","","","","","","","","","","","","","","","","","","","","","","",""
"","instruc3","6","67824","0.0-6.0","""event"",""trial"",""time""
""fullscreenenter"",""0"",""2717""
","
","
","""event"",""trial"",""time""
""fullscreenenter"",""0"",""2717""
","
","null","run_exp/static/audio/clip_3_goal_of_game_1.m4a","null","","","","","<div class='center'><p> The pirates on your ship will rob other ships as they leave the island.</p> These ships have just sold their goods to the islanders, so they will be filled with lots and lots of gold.</p><p><img src='run_exp/static/images/tutorial/ship_center.png' height='400'></p></div>","","","","","","","","","","","","","","","","","",""
"","html-keyboard-response","7","68862","0.0-7.0","""event"",""trial"",""time""
""fullscreenenter"",""0"",""2717""
","
","
","""event"",""trial"",""time""
""fullscreenenter"",""0"",""2717""
","
","1036.199999999255","<div class='center'><p> The pirates on your ship will rob other ships as they leave the island.</p> These ships have just sold their goods to the islanders, so they will be filled with lots and lots of gold.</p><p><img src='run_exp/static/images/tutorial/ship_center.png' height='400'></p><p><b>[Press the space bar to continue]</b></p></div>","32","","","","","","","","","","","","","","","","","","","","","","",""
"","instruc4","8","96873","0.0-8.0","""event"",""trial"",""time""
""fullscreenenter"",""0"",""2717""
","
","
","""event"",""trial"",""time""
""fullscreenenter"",""0"",""2717""
","
","null","run_exp/static/audio/clip_4_goal_of_game_2.m4a","null","","","","","<div class='center'><p>As the head captain, you do not have to rob any ships yourself. Another pirate will be doing the robbing for you. First, you will choose a pirate to rob the next ship.</p><p><img src='run_exp/static/images/tutorial/pirates_all_crop.png' height='200'></p><p>Then, you'll see if the pirate successfully robbed the ship of their gold. If they were successful, then you'll get a stack of gold coins like this:</p><p><img src='run_exp/static/images/tutorial/reward.png' height='150'></p><p> If they were <b>not</b> successful, then you'll get no gold coins, and you'll see a big red x like this: </p><p><img src='run_exp/static/images/tutorial/reward_no.png' height='150'></p><p> How much bonus money you make is based on how many gold coins you collect.</p><div>","","","","","","","","","","","","","","","","","",""
"","html-keyboard-response","9","100115","0.0-9.0","""event"",""trial"",""time""
""fullscreenenter"",""0"",""2717""
","
","
","""event"",""trial"",""time""
""fullscreenenter"",""0"",""2717""
","
","3240.2999999988824","<div class='center'><p>As the head captain, you do not have to rob any ships yourself. Another pirate will be doing the robbing for you. First, you will choose a pirate to rob the next ship.</p><p><img src='run_exp/static/images/tutorial/pirates_all_crop.png' height='200'></p><p>Then, you'll see if the pirate successfully robbed the ship of their gold. If they were successful, then you'll get a stack of gold coins like this:</p><p><img src='run_exp/static/images/tutorial/reward.png' height='150'></p><p> If they were <b>not</b> successful, then you'll get no gold coins, and you'll see a big red x like this: </p><p><img src='run_exp/static/images/tutorial/reward_no.png' height='150'></p><p> How much bonus money you make is based on how many gold coins you collect.</p<p><b>[Press the space bar to continue]</b></p></div>","32","","","","","","","","","","","","","","","","","","","","","","",""
"","instruc5","10","122093","0.0-10.0","""event"",""trial"",""time""
""fullscreenenter"",""0"",""2717""
","
","
","""event"",""trial"",""time""
""fullscreenenter"",""0"",""2717""
","
","21976.800000000745","run_exp/static/audio/clip_5_probabilistic.m4a","49","","","","","<div class='center'><p>Even the most skilled pirate can not rob EVERY ship.</p><p> Some ships will have very strong protections against pirate attacks.</p><p> Blue beard, here, is very, very good at robbing ships, but he won't be successful every time he tries to rob one.</p><p> You can press the <b>‘1’</b> key on the keyboard to choose him.</p><p> Try choosing him 10 times to see how often he succeeds at robbing a ship. </p><p><img src='run_exp/static/images/tutorial/blue.png' height='500'></p></div>","","","","","","","","","","","","","","","","","",""
"","html-keyboard-response","11","123599","0.0-11.0","""event"",""trial"",""time""
""fullscreenenter"",""0"",""2717""
","
","
","""event"",""trial"",""time""
""fullscreenenter"",""0"",""2717""
","
","null","<div class='center'><p><img src='run_exp/static/images/tutorial/blue_win.png' height='500'></p></div>","null","","","","","","","","","","","","","","","","","","","","","","",""
"","html-keyboard-response","12","124715","0.0-12.0","""event"",""trial"",""time""
""fullscreenenter"",""0"",""2717""
","
","
","""event"",""trial"",""time""
""fullscreenenter"",""0"",""2717""
","
","1114.2000000011176","<div class='center'><img src='run_exp/static/images/tutorial/blue.png' height='500'></p></div>","49","","","","","","","","","","","","","","","","","","","","","","",""
"","html-keyboard-response","13","126221","0.0-13.0","""event"",""trial"",""time""
""fullscreenenter"",""0"",""2717""
","
","
","""event"",""trial"",""time""
""fullscreenenter"",""0"",""2717""
","
","null","<div class='center'><p><img src='run_exp/static/images/tutorial/blue_win.png' height='500'></p></div>","null","","","","","","","","","","","","","","","","","","","","","","",""
"","html-keyboard-response","14","126854","0.0-14.0","""event"",""trial"",""time""
""fullscreenenter"",""0"",""2717""
","
","
","""event"",""trial"",""time""
""fullscreenenter"",""0"",""2717""
","
","632.5999999996275","<div class='center'><img src='run_exp/static/images/tutorial/blue.png' height='500'></p></div>","49","","","","","","","","","","","","","","","","","","","","","","",""
"","html-keyboard-response","15","128360","0.0-15.0","""event"",""trial"",""time""
""fullscreenenter"",""0"",""2717""
","
","
","""event"",""trial"",""time""
""fullscreenenter"",""0"",""2717""
","
","null","<div class='center'><p><img src='run_exp/static/images/tutorial/blue_win.png' height='500'></p></div>","null","","","","","","","","","","","","","","","","","","","","","","",""
"","html-keyboard-response","16","128672","0.0-16.0","""event"",""trial"",""time""
""fullscreenenter"",""0"",""2717""
","
","
","""event"",""trial"",""time""
""fullscreenenter"",""0"",""2717""
","
","310.7999999988824","<div class='center'><img src='run_exp/static/images/tutorial/blue.png' height='500'></p></div>","49","","","","","","","","","","","","","","","","","","","","","","",""
"","html-keyboard-response","17","130175","0.0-17.0","""event"",""trial"",""time""
""fullscreenenter"",""0"",""2717""
","
","
","""event"",""trial"",""time""
""fullscreenenter"",""0"",""2717""
","
","null","<div class='center'><p><img src='run_exp/static/images/tutorial/blue_no_win.png' height='500'></p></div>","null","","","","","","","","","","","","","","","","","","","","","","",""
"","html-keyboard-response","18","130736","0.0-18.0","""event"",""trial"",""time""
""fullscreenenter"",""0"",""2717""
","
","
","""event"",""trial"",""time""
""fullscreenenter"",""0"",""2717""
","
","559.5999999996275","<div class='center'><img src='run_exp/static/images/tutorial/blue.png' height='500'></p></div>","49","","","","","","","","","","","","","","","","","","","","","","",""
"","html-keyboard-response","19","132242","0.0-19.0","""event"",""trial"",""time""
""fullscreenenter"",""0"",""2717""
","
","
","""event"",""trial"",""time""
""fullscreenenter"",""0"",""2717""
","
","null","<div class='center'><p><img src='run_exp/static/images/tutorial/blue_win.png' height='500'></p></div>","null","","","","","","","","","","","","","","","","","","","","","","",""
"","html-keyboard-response","20","132882","0.0-20.0","""event"",""trial"",""time""
""fullscreenenter"",""0"",""2717""
","
","
","""event"",""trial"",""time""
""fullscreenenter"",""0"",""2717""
","
","638.6999999992549","<div class='center'><img src='run_exp/static/images/tutorial/blue.png' height='500'></p></div>","49","","","","","","","","","","","","","","","","","","","","","","",""
"","html-keyboard-response","21","134386","0.0-21.0","""event"",""trial"",""time""
""fullscreenenter"",""0"",""2717""
","
","
","""event"",""trial"",""time""
""fullscreenenter"",""0"",""2717""
","
","null","<div class='center'><p><img src='run_exp/static/images/tutorial/blue_win.png' height='500'></p></div>","null","","","","","","","","","","","","","","","","","","","","","","",""
"","html-keyboard-response","22","135706","0.0-22.0","""event"",""trial"",""time""
""fullscreenenter"",""0"",""2717""
","
","
","""event"",""trial"",""time""
""fullscreenenter"",""0"",""2717""
","
","1318.800000000745","<div class='center'><img src='run_exp/static/images/tutorial/blue.png' height='500'></p></div>","49","","","","","","","","","","","","","","","","","","","","","","",""
"","html-keyboard-response","23","137212","0.0-23.0","""event"",""trial"",""time""
""fullscreenenter"",""0"",""2717""
","
","
","""event"",""trial"",""time""
""fullscreenenter"",""0"",""2717""
","
","null","<div class='center'><p><img src='run_exp/static/images/tutorial/blue_win.png' height='500'></p></div>","null","","","","","","","","","","","","","","","","","","","","","","",""
"","html-keyboard-response","24","137946","0.0-24.0","""event"",""trial"",""time""
""fullscreenenter"",""0"",""2717""
","
","
","""event"",""trial"",""time""
""fullscreenenter"",""0"",""2717""
","
","732.1999999992549","<div class='center'><img src='run_exp/static/images/tutorial/blue.png' height='500'></p></div>","49","","","","","","","","","","","","","","","","","","","","","","",""
"","html-keyboard-response","25","139450","0.0-25.0","""event"",""trial"",""time""
""fullscreenenter"",""0"",""2717""
","
","
","""event"",""trial"",""time""
""fullscreenenter"",""0"",""2717""
","
","null","<div class='center'><p><img src='run_exp/static/images/tutorial/blue_no_win.png' height='500'></p></div>","null","","","","","","","","","","","","","","","","","","","","","","",""
"","html-keyboard-response","26","140068","0.0-26.0","""event"",""trial"",""time""
""fullscreenenter"",""0"",""2717""
","
","
","""event"",""trial"",""time""
""fullscreenenter"",""0"",""2717""
","
","616.9000000003725","<div class='center'><img src='run_exp/static/images/tutorial/blue.png' height='500'></p></div>","49","","","","","","","","","","","","","","","","","","","","","","",""
"","html-keyboard-response","27","141572","0.0-27.0","""event"",""trial"",""time""
""fullscreenenter"",""0"",""2717""
","
","
","""event"",""trial"",""time""
""fullscreenenter"",""0"",""2717""
","
","null","<div class='center'><p><img src='run_exp/static/images/tutorial/blue_win.png' height='500'></p></div>","null","","","","","","","","","","","","","","","","","","","","","","",""
"","html-keyboard-response","28","142321","0.0-28.0","""event"",""trial"",""time""
""fullscreenenter"",""0"",""2717""
","
","
","""event"",""trial"",""time""
""fullscreenenter"",""0"",""2717""
","
","747.8000000007451","<div class='center'><img src='run_exp/static/images/tutorial/blue.png' height='500'></p></div>","49","","","","","","","","","","","","","","","","","","","","","","",""
"","html-keyboard-response","29","143823","0.0-29.0","""event"",""trial"",""time""
""fullscreenenter"",""0"",""2717""
","
","
","""event"",""trial"",""time""
""fullscreenenter"",""0"",""2717""
","
","null","<div class='center'><p><img src='run_exp/static/images/tutorial/blue_win.png' height='500'></p></div>","null","","","","","","","","","","","","","","","","","","","","","","",""
"","instruc6","30","149283","0.0-30.0","""event"",""trial"",""time""
""fullscreenenter"",""0"",""2717""
","
","
","""event"",""trial"",""time""
""fullscreenenter"",""0"",""2717""
","
","null","run_exp/static/audio/clip_6_blue_beard_outcome.m4a","null","","","","","<div class='center'><p> See, he succeeded in robbing the ships most of the time but not every time. </p></div>","","","","","","","","","","","","","","","","","",""
"","html-keyboard-response","31","151064","0.0-31.0","""event"",""trial"",""time""
""fullscreenenter"",""0"",""2717""
","
","
","""event"",""trial"",""time""
""fullscreenenter"",""0"",""2717""
","
","1779.4000000003725","<div class='center'><p> See, he succeeded in robbing the ships most of the time but not every time. </p><p><b>[Press the space bar to continue]</b></p></div>","32","","","","","","","","","","","","","","","","","","","","","","",""
"","audio-keyboard-response","32","168296","0.0-32.0","""event"",""trial"",""time""
""fullscreenenter"",""0"",""2717""
","
","
","""event"",""trial"",""time""
""fullscreenenter"",""0"",""2717""
","
","17230.89999999851","run_exp/static/audio/clip_7_pick_pirate.m4a","51","","","","","","","","","","","","","","","","","","","","","","",""
"","audio-keyboard-response","33","174937","0.0-33.0-0.0","""event"",""trial"",""time""
""fullscreenenter"",""0"",""2717""
","
","
","""event"",""trial"",""time""
""fullscreenenter"",""0"",""2717""
","
","6638.200000001118","run_exp/static/audio/clip_8_chosen_pirate_win.m4a","32","","","","","","","","","","","","","","","","","","","","","","",""
"","audio-keyboard-response","34","179506","0.0-33.0-1.0","""event"",""trial"",""time""
""fullscreenenter"",""0"",""2717""
","
","
","""event"",""trial"",""time""
""fullscreenenter"",""0"",""2717""
","
","4567.199999999255","run_exp/static/audio/clip_9_pick_a_pirate_again.m4a","49","","","","","","","","","","","","","","","","","","","","","","",""
"","audio-keyboard-response","35","184542","0.0-34.0-0.0","""event"",""trial"",""time""
""fullscreenenter"",""0"",""2717""
","
","
","""event"",""trial"",""time""
""fullscreenenter"",""0"",""2717""
","
","5034","run_exp/static/audio/clip_10_chosen_pirate_loss.m4a","32","","","","","","","","","","","","","","","","","","","","","","",""
"","instruc9","36","190057","0.0-35.0-0.0","""event"",""trial"",""time""
""fullscreenenter"",""0"",""2717""
","
","
","""event"",""trial"",""time""
""fullscreenenter"",""0"",""2717""
","
","null","run_exp/static/audio/clip_11_time_out.m4a","null","","","","","<div class='center'><p>If you don’t make your choice fast enough, you’ll have to wait a few seconds before you can make another one. </p><p><img src='run_exp/static/images/miscellaneous/hurry_up.png' height='500'></p></div>","","","","","","","","","","","","","","","","","",""
"","html-keyboard-response","37","191108","0.0-35.0-1.0","""event"",""trial"",""time""
""fullscreenenter"",""0"",""2717""
","
","
","""event"",""trial"",""time""
""fullscreenenter"",""0"",""2717""
","
","1049.5","<div class='center'><p>If you don’t make your choice fast enough, you’ll have to wait a few seconds before you can make another one. </p><p><img src='run_exp/static/images/miscellaneous/hurry_up.png' height='500'></p><p><b>[Press the space bar to continue]</b></p></div>","32","","","","","","","","","","","","","","","","","","","","","","",""
"","instruc10","38","230205","0.0-35.0-2.0","""event"",""trial"",""time""
""fullscreenenter"",""0"",""2717""
","
","
","""event"",""trial"",""time""
""fullscreenenter"",""0"",""2717""
","
","null","run_exp/static/audio/clip_12_probe.m4a","null","","","","","<div class='center'><p>Once you've chosen a pirate, you’ll be shown the ship they are robbing. You will never rob the same ship twice. Ships can be told apart from one another by the image on them. These are the goods that they sell. See, this ship has a travel mug on it. </p><p> You’ll have to remember which island you saw each ship on. You will win more gold coins and hence more bonus money if you remember correctly! To help you remember, you can imagine a story. For example, here, you could imagine a mug full of water in the desert. Or, as another example, if on the forest island, your pirate robbed a ship with an apple on it, you could imagine an apple falling from a tree in the forest. </p><p><img src='run_exp/static/images/tutorial/example_probe.png' height='500'></p></div>","","","","","","","","","","","","","","","","","",""
"","html-keyboard-response","39","233508","0.0-35.0-3.0","""event"",""trial"",""time""
""fullscreenenter"",""0"",""2717""
","
","
","""event"",""trial"",""time""
""fullscreenenter"",""0"",""2717""
","
","3301.4000000003725","<div class='center'><p>Once you've chosen a pirate, you’ll be shown the ship they are robbing. You will never rob the same ship twice. Ships can be told apart from one another by the image on them. These are the goods that they sell. See, this ship has a travel mug on it. </p><p> You’ll have to remember which island you saw each ship on. You will win more gold coins and hence more bonus money if you remember correctly! To help you remember, you can imagine a story. For example, here, you could imagine a mug full of water in the desert. Or, as another example, if on the forest island, your pirate robbed a ship with an apple on it, you could imagine an apple falling from a tree in the forest. </p><p><img src='run_exp/static/images/tutorial/example_probe.png' height='500'></p><p><b>[Press the space bar to continue]</b></p></div>","32","","","","","","","","","","","","","","","","","","","","","","",""
"","instruc11","40","249919","0.0-35.0-4.0","""event"",""trial"",""time""
""fullscreenenter"",""0"",""2717""
","
","
","""event"",""trial"",""time""
""fullscreenenter"",""0"",""2717""
","
","null","run_exp/static/audio/clip_13_changepoint.m4a","null","","","","","<div class='center'><p>How successful a pirate is at robbing ships will depend on the island you’re on.</p><p> A pirate may have visited this island many times before and gained a lot of practice robbing ships there.</p><p>So, they’re more likely to be successful than a pirate who has never visited the island before.</p></div>","","","","","","","","","","","","","","","","","",""
"","html-keyboard-response","41","250855","0.0-35.0-5.0","""event"",""trial"",""time""
""fullscreenenter"",""0"",""2717""
","
","
","""event"",""trial"",""time""
""fullscreenenter"",""0"",""2717""
","
","934.9000000003725","<div class='center'><p>How successful a pirate is at robbing ships will depend on the island you’re on.</p><p> A pirate may have visited this island many times before and gained a lot of practice robbing ships there.</p><p>So, they’re more likely to be successful than a pirate who has never visited the island before.</p><p><b>[Press the space bar to continue]</b></p></div>","32","","","","","","","","","","","","","","","","","","","","","","",""
"","instruc12","42","291971","0.0-35.0-6.0","""event"",""trial"",""time""
""fullscreenenter"",""0"",""2717""
","
","
","""event"",""trial"",""time""
""fullscreenenter"",""0"",""2717""
","
","null","run_exp/static/audio/clip_14_drift.m4a","null","","","","","<div class='center'><p>How successful a pirate is at robbing ships can also change over the time spent on the island. </p><p> Ships may hear from islanders about the pirates coming and will improve their protections against the attack. This may make it harder to rob them.</p><p> Ships may also become lazy and weaken the strength of their protections. This may make it easier to rob them.</p><br><p>Things are always changing on the high seas! So, try your best to pay attention!</p><p><img src='run_exp/static/images/tutorial/contingency.png' height='500'></p></div>","","","","","","","","","","","","","","","","","",""
"","html-keyboard-response","43","300756","0.0-35.0-7.0","""event"",""trial"",""time""
""fullscreenenter"",""0"",""2717""
","
","
","""event"",""trial"",""time""
""fullscreenenter"",""0"",""2717""
","
","8782.599999999627","<div class='center'><p>How successful a pirate is at robbing ships can also change over the time spent on the island. </p><p> Ships may hear from islanders about the pirates coming and will improve their protections against the attack. This may make it harder to rob them.</p><p> Ships may also become lazy and weaken the strength of their protections. This may make it easier to rob them.</p><br><p>Things are always changing on the high seas! So, try your best to pay attention!</p><p><img src='run_exp/static/images/tutorial/contingency.png' height='500'></p><p><b>[Press the space bar to continue]</b></p></div>","32","","","","","","","","","","","","","","","","","","","","","","",""
"","instruc13","44","335973","0.0-35.0-8.0","""event"",""trial"",""time""
""fullscreenenter"",""0"",""2717""
","
","
","""event"",""trial"",""time""
""fullscreenenter"",""0"",""2717""
","
","null","run_exp/static/audio/clip_15_summary.m4a","null","","","","","<div class='center'><p>Let's go over the instructions quickly again. You have two important things to do: </p><b><p> 1. Pick the pirate who is the best at robbing ships on the current island. </p></b><b><p> 2. Remember on which island a ship was robbed.</p> </b><p>The amount of bonus money you can win depends on both.</p><p><br><p>Let’s try a practice game. The game will start by showing you the pirates. First, pick a pirate using the <b> 1, 2, 3 </b> keys on your keyboard. When you are shown a ship, try to remember which island you’re on by making up a story.</p><p>This is just a practice game, so you’re not playing for money. </p><p> Good luck! This game will be very difficult but try your best!</p></div>","","","","","","","","","","","","","","","","","",""
"","html-keyboard-response","45","340415","0.0-35.0-9.0","""event"",""trial"",""time""
""fullscreenenter"",""0"",""2717""
","
","
","""event"",""trial"",""time""
""fullscreenenter"",""0"",""2717""
","
","4440.799999998882","<div class='center'><p>Let's go over the instructions quickly again. You have two important things to do: </p><b><p> 1. Pick the pirate who is the best at robbing ships on the current island. </p></b><b><p> 2. Remember on which island a ship was robbed.</p> </b><p>The amount of bonus money you can win depends on both.</p><p><br><p>Let’s try a practice game. The game will start by showing you the pirates. First, pick a pirate using the <b> 1, 2, 3 </b> keys on your keyboard. When you are shown a ship, try to remember which island you’re on by making up a story.</p><p>This is just a practice game, so you’re not playing for money. </p><p> Good luck! This game will be very difficult but try your best!</p><p><b>[Press the space bar to continue]</b></p></div>","32","","","","","","","","","","","","","","","","","","","","","","",""
"","do_welcome","46","344425","0.0-35.0-10.0","""event"",""trial"",""time""
""fullscreenenter"",""0"",""2717""
","
","
","""event"",""trial"",""time""
""fullscreenenter"",""0"",""2717""
","
","null","","","","","","","","null","","","","","","","","","","","","","","","","",""
"","do_trial","47","350794","0.0-35.0-11.0","""event"",""trial"",""time""
""fullscreenenter"",""0"",""2717""
","
","
","""event"",""trial"",""time""
""fullscreenenter"",""0"",""2717""
","
","1855.6000000014901","","","","","","","","51","1,0,0","","","","","","","","","","","","","","","",""
"","html-keyboard-response","48","351800","0.0-36.0-0.0","""event"",""trial"",""time""
""fullscreenenter"",""0"",""2717""
","
","
","""event"",""trial"",""time""
""fullscreenenter"",""0"",""2717""
","
","null","<p></p>","null","","","","","","","","","","","","","","","","","","","","","","",""
"","do_trial","49","357345","0.0-36.0-1.0","""event"",""trial"",""time""
""fullscreenenter"",""0"",""2717""
","
","
","""event"",""trial"",""time""
""fullscreenenter"",""0"",""2717""
","
","1033","","","","","","","","51","1,1,0","","","","","","","","","","","","","","","",""
"","html-keyboard-response","50","358352","0.0-37.0-0.0","""event"",""trial"",""time""
""fullscreenenter"",""0"",""2717""
","
","
","""event"",""trial"",""time""
""fullscreenenter"",""0"",""2717""
","
","null","<p></p>","null","","","","","","","","","","","","","","","","","","","","","","",""
"","do_trial","51","364080","0.0-37.0-1.0","""event"",""trial"",""time""
""fullscreenenter"",""0"",""2717""
","
","
","""event"",""trial"",""time""
""fullscreenenter"",""0"",""2717""
","
","1215.2999999988824","","","","","","","","50","1,0,1","","","","","","","","","","","","","","","",""
"","html-keyboard-response","52","365083","0.0-38.0-0.0","""event"",""trial"",""time""
""fullscreenenter"",""0"",""2717""
","
","
","""event"",""trial"",""time""
""fullscreenenter"",""0"",""2717""
","
","null","<p></p>","null","","","","","","","","","","","","","","","","","","","","","","",""
"","do_trial","53","370723","0.0-38.0-1.0","""event"",""trial"",""time""
""fullscreenenter"",""0"",""2717""
","
","
","""event"",""trial"",""time""
""fullscreenenter"",""0"",""2717""
","
","1130.0999999996275","","","","","","","","49","0,1,0","","","","","","","","","","","","","","","",""
"","html-keyboard-response","54","371729","0.0-39.0-0.0","""event"",""trial"",""time""
""fullscreenenter"",""0"",""2717""
","
","
","""event"",""trial"",""time""
""fullscreenenter"",""0"",""2717""
","
","null","<p></p>","null","","","","","","","","","","","","","","","","","","","","","","",""
"","do_trial","55","377266","0.0-39.0-1.0","""event"",""trial"",""time""
""fullscreenenter"",""0"",""2717""
","
","
","""event"",""trial"",""time""
""fullscreenenter"",""0"",""2717""
","
","1022.0999999996275","","","","","","","","49","1,0,0","","","","","","","","","","","","","","","",""
"","do_bye","56","378774","0.0-40.0-0.0","""event"",""trial"",""time""
""fullscreenenter"",""0"",""2717""
","
","
","""event"",""trial"",""time""
""fullscreenenter"",""0"",""2717""
","
","null","","","","","","","","null","","","","","","","","","","","","","","","","",""
"","do_travel","57","387780","0.0-40.0-1.0","""event"",""trial"",""time""
""fullscreenenter"",""0"",""2717""
","
","
","""event"",""trial"",""time""
""fullscreenenter"",""0"",""2717""
","
","null","","","","","","","","null","","","","","","","","","","","","","","","","",""
"","do_welcome","58","391787","0.0-40.0-2.0","""event"",""trial"",""time""
""fullscreenenter"",""0"",""2717""
","
","
","""event"",""trial"",""time""
""fullscreenenter"",""0"",""2717""
","
","null","","","","","","","","null","","","","","","","","","","","","","","","","",""
"","do_trial","59","397832","0.0-40.0-3.0","""event"",""trial"",""time""
""fullscreenenter"",""0"",""2717""
","
","
","""event"",""trial"",""time""
""fullscreenenter"",""0"",""2717""
","
","1532.6000000014901","","","","","","","","49","1,0,0","","","","","","","","","","","","","","","",""
"","html-keyboard-response","60","398839","0.0-41.0-0.0","""event"",""trial"",""time""
""fullscreenenter"",""0"",""2717""
","
","
","""event"",""trial"",""time""
""fullscreenenter"",""0"",""2717""
","
","null","<p></p>","null","","","","","","","","","","","","","","","","","","","","","","",""
"","do_trial","61","404174","0.0-41.0-1.0","""event"",""trial"",""time""
""fullscreenenter"",""0"",""2717""
","
","
","""event"",""trial"",""time""
""fullscreenenter"",""0"",""2717""
","
","826.5","","","","","","","","49","1,0,1","","","","","","","","","","","","","","","",""
"","html-keyboard-response","62","405181","0.0-42.0-0.0","""event"",""trial"",""time""
""fullscreenenter"",""0"",""2717""
","
","
","""event"",""trial"",""time""
""fullscreenenter"",""0"",""2717""
","
","null","<p></p>","null","","","","","","","","","","","","","","","","","","","","","","",""
"","do_trial","63","410830","0.0-42.0-1.0","""event"",""trial"",""time""
""fullscreenenter"",""0"",""2717""
","
","
","""event"",""trial"",""time""
""fullscreenenter"",""0"",""2717""
","
","1136.5","","","","","","","","51","1,1,0","","","","","","","","","","","","","","","",""
"","html-keyboard-response","64","411837","0.0-43.0-0.0","""event"",""trial"",""time""
""fullscreenenter"",""0"",""2717""
","
","
","""event"",""trial"",""time""
""fullscreenenter"",""0"",""2717""
","
","null","<p></p>","null","","","","","","","","","","","","","","","","","","","","","","",""
"","do_trial","65","416534","0.0-43.0-1.0","""event"",""trial"",""time""
""fullscreenenter"",""0"",""2717""
","
","
","""event"",""trial"",""time""
""fullscreenenter"",""0"",""2717""
","
","185.09999999962747","","","","","","","","50","0,0,1","","","","","","","","","","","","","","","",""
"","html-keyboard-response","66","417541","0.0-44.0-0.0","""event"",""trial"",""time""
""fullscreenenter"",""0"",""2717""
","
","
","""event"",""trial"",""time""
""fullscreenenter"",""0"",""2717""
","
","null","<p></p>","null","","","","","","","","","","","","","","","","","","","","","","",""
"","do_trial","67","422468","0.0-44.0-1.0","""event"",""trial"",""time""
""fullscreenenter"",""0"",""2717""
","
","
","""event"",""trial"",""time""
""fullscreenenter"",""0"",""2717""
","
","416","","","","","","","","49","1,0,1","","","","","","","","","","","","","","","",""
"","html-keyboard-response","68","425257","0.0-45.0-0.0","""event"",""trial"",""time""
""fullscreenenter"",""0"",""2717""
","
","
","""event"",""trial"",""time""
""fullscreenenter"",""0"",""2717""
","
","2786","<div class='center'><p><img src='run_exp/static/images/tutorial/prac_best_pirate.png'  height='500'></p></div>","49","","","","","","","","","","","","","","","","","","","","","","",""
"","html-keyboard-response","69","427644","0.0-46.0-0.0","""event"",""trial"",""time""
""fullscreenenter"",""0"",""2717""
","
","
","""event"",""trial"",""time""
""fullscreenenter"",""0"",""2717""
","
","2385.5999999996275","<div class='center'><p>That's correct! Red beard was the best.</p><p><b>[Press the space bar to continue]</b></p></div>","32","","","","","","","","","","","","","","","","","","","","","","",""
"","html-keyboard-response","70","430398","0.0-46.0-1.0","""event"",""trial"",""time""
""fullscreenenter"",""0"",""2717""
","
","
","""event"",""trial"",""time""
""fullscreenenter"",""0"",""2717""
","
","2753","<div class='center'><p><img src='run_exp/static/images/tutorial/prac_source.png'  height='500'></p></div>","50","","","","","","","","","","","","","","","","","","","","","","",""
"","html-keyboard-response","71","431642","0.0-47.0-0.0","""event"",""trial"",""time""
""fullscreenenter"",""0"",""2717""
","
","
","""event"",""trial"",""time""
""fullscreenenter"",""0"",""2717""
","
","1242.6000000014901","<div class='center'><p>That's correct! You saw this ship on the cavern island.</p><p><b>[Press the space bar to continue]</b></p></div>","32","","","","","","","","","","","","","","","","","","","","","","",""
"","quiz_beginning","72","442895","0.0-47.0-1.0","""event"",""trial"",""time""
""fullscreenenter"",""0"",""2717""
","
","
","""event"",""trial"",""time""
""fullscreenenter"",""0"",""2717""
","
","null","run_exp/static/audio/clip_16_quiz_intro.m4a","null","","","","","<div class='center'><p>Good job on the practice game! Now, you will be asked some true or false questions to make sure you really understand the rules of the game.</p><p> Press <b>'1'</b> on the keyboard for true and press <b>'2'</b> for false.</p></div>","","","","","","","","","","","","","","","","","",""
"","audio-keyboard-response","73","449716","0.0-47.0-2.0","""event"",""trial"",""time""
""fullscreenenter"",""0"",""2717""
","
","
","""event"",""trial"",""time""
""fullscreenenter"",""0"",""2717""
","
","6819.9000000003725","run_exp/static/audio/clip_17_q1.m4a","49","","","","","","","","","","","","","","","","","","","","","","",""
"","correct","74","452136","0.0-48.0-0.0","""event"",""trial"",""time""
""fullscreenenter"",""0"",""2717""
","
","
","""event"",""trial"",""time""
""fullscreenenter"",""0"",""2717""
","
","null","run_exp/static/audio/clip_18_correct.m4a","null","","","","","<div class='center'><p>That's correct!</p></div>","","","","","","","","","","","","","","","","","",""
"","html-keyboard-response","75","453734","0.0-48.0-1.0","""event"",""trial"",""time""
""fullscreenenter"",""0"",""2717""
","
","
","""event"",""trial"",""time""
""fullscreenenter"",""0"",""2717""
","
","1596.699999999255","<div class='center'><p>That's correct!</p><p><b>[Press the space bar to continue]</b></p></div>","32","","","","","","","","","","","","","","","","","","","","","","",""
"","audio-keyboard-response","76","461171","0.0-48.0-2.0","""event"",""trial"",""time""
""fullscreenenter"",""0"",""2717""
","
","
","""event"",""trial"",""time""
""fullscreenenter"",""0"",""2717""
","
","7436.5999999996275","run_exp/static/audio/clip_20_q2.m4a","50","","","","","","","","","","","","","","","","","","","","","","",""
"","correct","77","463584","0.0-49.0-0.0","""event"",""trial"",""time""
""fullscreenenter"",""0"",""2717""
","
","
","""event"",""trial"",""time""
""fullscreenenter"",""0"",""2717""
","
","null","run_exp/static/audio/clip_18_correct.m4a","null","","","","","<div class='center'><p>That's correct!</p></div>","","","","","","","","","","","","","","","","","",""
"","html-keyboard-response","78","464324","0.0-49.0-1.0","""event"",""trial"",""time""
""fullscreenenter"",""0"",""2717""
","
","
","""event"",""trial"",""time""
""fullscreenenter"",""0"",""2717""
","
","739.5999999996275","<div class='center'><p>That's correct!</p><p><b>[Press the space bar to continue]</b></p></div>","32","","","","","","","","","","","","","","","","","","","","","","",""
"","audio-keyboard-response","79","469124","0.0-49.0-2.0","""event"",""trial"",""time""
""fullscreenenter"",""0"",""2717""
","
","
","""event"",""trial"",""time""
""fullscreenenter"",""0"",""2717""
","
","4799.0999999996275","run_exp/static/audio/clip_22_q3.m4a","50","","","","","","","","","","","","","","","","","","","","","","",""
"","correct","80","471525","0.0-50.0-0.0","""event"",""trial"",""time""
""fullscreenenter"",""0"",""2717""
","
","
","""event"",""trial"",""time""
""fullscreenenter"",""0"",""2717""
","
","null","run_exp/static/audio/clip_18_correct.m4a","null","","","","","<div class='center'><p>That's correct!</p></div>","","","","","","","","","","","","","","","","","",""
"","html-keyboard-response","81","472290","0.0-50.0-1.0","""event"",""trial"",""time""
""fullscreenenter"",""0"",""2717""
","
","
","""event"",""trial"",""time""
""fullscreenenter"",""0"",""2717""
","
","764.5999999996275","<div class='center'><p>That's correct!</p><p><b>[Press the space bar to continue]</b></p></div>","32","","","","","","","","","","","","","","","","","","","","","","",""
"","audio-keyboard-response","82","476008","0.0-50.0-2.0","""event"",""trial"",""time""
""fullscreenenter"",""0"",""2717""
","
","
","""event"",""trial"",""time""
""fullscreenenter"",""0"",""2717""
","
","3716.5","run_exp/static/audio/clip_24_q4.m4a","49","","","","","","","","","","","","","","","","","","","","","","",""
"","correct","83","478445","0.0-51.0-0.0","""event"",""trial"",""time""
""fullscreenenter"",""0"",""2717""
","
","
","""event"",""trial"",""time""
""fullscreenenter"",""0"",""2717""
","
","null","run_exp/static/audio/clip_18_correct.m4a","null","","","","","<div class='center'><p>That's correct!</p></div>","","","","","","","","","","","","","","","","","",""
"","html-keyboard-response","84","479233","0.0-51.0-1.0","""event"",""trial"",""time""
""fullscreenenter"",""0"",""2717""
","
","
","""event"",""trial"",""time""
""fullscreenenter"",""0"",""2717""
","
","786.8999999985099","<div class='center'><p>That's correct!</p><p><b>[Press the space bar to continue]</b></p></div>","32","","","","","","","","","","","","","","","","","","","","","","",""
"","q_all_corr","85","487733","0.0-52.0-0.0","""event"",""trial"",""time""
""fullscreenenter"",""0"",""2717""
","
","
","""event"",""trial"",""time""
""fullscreenenter"",""0"",""2717""
","
","null","run_exp/static/audio/clip_27_quiz_all_correct.m4a","null","","","","","<div class='center'><p>Good job! You’re now ready to move on to the real game! Remember this game will be difficult but don't get discouraged and try your best!</p></div>","","","","","","","","","","","","","","","","","",""
"","html-keyboard-response","86","488279","0.0-52.0-1.0","""event"",""trial"",""time""
""fullscreenenter"",""0"",""2717""
","
","
","""event"",""trial"",""time""
""fullscreenenter"",""0"",""2717""
","
","544.6999999992549","<div class='center'><p>Good job! You’re now ready to move on to the real game! Remember this game will be difficult but don't get discouraged and try your best!</p><p><b>[Press the space bar to continue]</b></p></div>","32","","","","","","","","","","","","","","","","","","","","","","",""
"","do_welcome","87","492290","0.0-53.0-0.0","""event"",""trial"",""time""
""fullscreenenter"",""0"",""2717""
","
","
","""event"",""trial"",""time""
""fullscreenenter"",""0"",""2717""
","
","null","","","","","","","","null","","","","","","","","","","","","","","","","",""
"","do_trial","88","497875","0.0-54.0-0.0","""event"",""trial"",""time""
""fullscreenenter"",""0"",""2717""
","
","
","""event"",""trial"",""time""
""fullscreenenter"",""0"",""2717""
","
","1039.5","","","","","","","","49","0,1,0","0","city","0","probe-139","0.6","0.3","0.1","0","","","","","","","",""
"","html-keyboard-response","89","498878","0.0-54.0-1.0","""event"",""trial"",""time""
""fullscreenenter"",""0"",""2717""
","
","
","""event"",""trial"",""time""
""fullscreenenter"",""0"",""2717""
","
","null","<p></p>","null","","","","","","","","","","","","","","","","","","","","","","",""
"","do_trial","90","504589","0.0-55.0-0.0","""event"",""trial"",""time""
""fullscreenenter"",""0"",""2717""
","
","
","""event"",""trial"",""time""
""fullscreenenter"",""0"",""2717""
","
","1161.199999999255","","","","","","","","50","1,0,0","0","city","1","probe-186","0.7399198315348786","0.20955919834119885","0.13212559272344718","0","","","","","","","",""
"","html-keyboard-response","91","505595","0.0-55.0-1.0","""event"",""trial"",""time""
""fullscreenenter"",""0"",""2717""
","
","
","""event"",""trial"",""time""
""fullscreenenter"",""0"",""2717""
","
","null","<p></p>","null","","","","","","","","","","","","","","","","","","","","","","",""
"","do_trial","92","510901","0.0-56.0-0.0","""event"",""trial"",""time""
""fullscreenenter"",""0"",""2717""
","
","
","""event"",""trial"",""time""
""fullscreenenter"",""0"",""2717""
","
","754.6999999992549","","","","","","","","51","1,1,0","0","city","2","probe-89","0.7131872565115909","0.256292025283776","0.06557387079994348","0","","","","","","","",""
"","html-keyboard-response","93","511904","0.0-56.0-1.0","""event"",""trial"",""time""
""fullscreenenter"",""0"",""2717""
","
","
","""event"",""trial"",""time""
""fullscreenenter"",""0"",""2717""
","
","null","<p></p>","null","","","","","","","","","","","","","","","","","","","","","","",""
"","do_trial","94","517134","0.0-57.0-0.0","""event"",""trial"",""time""
""fullscreenenter"",""0"",""2717""
","
","
","""event"",""trial"",""time""
""fullscreenenter"",""0"",""2717""
","
","679.7000000011176","","","","","","","","49","0,0,0","0","city","3","probe-16","0.8001981234555274","0.2897335469493639","0.12784651912004022","0","","","","","","","",""
"","html-keyboard-response","95","518141","0.0-57.0-1.0","""event"",""trial"",""time""
""fullscreenenter"",""0"",""2717""
","
","
","""event"",""trial"",""time""
""fullscreenenter"",""0"",""2717""
","
","null","<p></p>","null","","","","","","","","","","","","","","","","","","","","","","",""
"","do_trial","96","523260","0.0-58.0-0.0","""event"",""trial"",""time""
""fullscreenenter"",""0"",""2717""
","
","
","""event"",""trial"",""time""
""fullscreenenter"",""0"",""2717""
","
","571.8999999985099","","","","","","","","50","1,0,0","0","city","4","probe-69","0.6121405187962163","0.28759885345298875","0.07539943504749765","0","","","","","","","",""
"","html-keyboard-response","97","524267","0.0-58.0-1.0","""event"",""trial"",""time""
""fullscreenenter"",""0"",""2717""
","
","
","""event"",""trial"",""time""
""fullscreenenter"",""0"",""2717""
","
","null","<p></p>","null","","","","","","","","","","","","","","","","","","","","","","",""
"","do_trial","98","529753","0.0-59.0-0.0","""event"",""trial"",""time""
""fullscreenenter"",""0"",""2717""
","
","
","""event"",""trial"",""time""
""fullscreenenter"",""0"",""2717""
","
","939.5","","","","","","","","51","0,0,0","0","city","5","probe-136","0.593470748942512","0.25162381446725024","0.0720443289012596","0","","","","","","","",""
"","html-keyboard-response","99","530757","0.0-59.0-1.0","""event"",""trial"",""time""
""fullscreenenter"",""0"",""2717""
","
","
","""event"",""trial"",""time""
""fullscreenenter"",""0"",""2717""
","
","null","<p></p>","null","","","","","","","","","","","","","","","","","","","","","","",""
"","do_trial","100","536128","0.0-60.0-0.0","""event"",""trial"",""time""
""fullscreenenter"",""0"",""2717""
","
","
","""event"",""trial"",""time""
""fullscreenenter"",""0"",""2717""
","
","827.4000000003725","","","","","","","","51","1,1,1","0","city","6","probe-211","0.651638452001238","0.2590091389111928","0.28366898311205185","1","","","","","","","",""
"","html-keyboard-response","101","537135","0.0-60.0-1.0","""event"",""trial"",""time""
""fullscreenenter"",""0"",""2717""
","
","
","""event"",""trial"",""time""
""fullscreenenter"",""0"",""2717""
","
","null","<p></p>","null","","","","","","","","","","","","","","","","","","","","","","",""
"","do_trial","102","542336","0.0-61.0-0.0","""event"",""trial"",""time""
""fullscreenenter"",""0"",""2717""
","
","
","""event"",""trial"",""time""
""fullscreenenter"",""0"",""2717""
","
","652.7999999988824","","","","","","","","51","1,0,1","0","city","7","probe-04","0.5974037622064333","0.23914884614494333","0.23484813522253525","1","","","","","","","",""
"","html-keyboard-response","103","543343","0.0-61.0-1.0","""event"",""trial"",""time""
""fullscreenenter"",""0"",""2717""
","
","
","""event"",""trial"",""time""
""fullscreenenter"",""0"",""2717""
","
","null","<p></p>","null","","","","","","","","","","","","","","","","","","","","","","",""
"","do_trial","104","548535","0.0-62.0-0.0","""event"",""trial"",""time""
""fullscreenenter"",""0"",""2717""
","
","
","""event"",""trial"",""time""
""fullscreenenter"",""0"",""2717""
","
","642.9000000003725","","","","","","","","51","1,0,1","0","city","8","probe-137","0.5955571516600365","0.358967775816854","0.17106367758486596","1","","","","","","","",""
"","html-keyboard-response","105","549538","0.0-62.0-1.0","""event"",""trial"",""time""
""fullscreenenter"",""0"",""2717""
","
","
","""event"",""trial"",""time""
""fullscreenenter"",""0"",""2717""
","
","null","<p></p>","null","","","","","","","","","","","","","","","","","","","","","","",""
"","do_trial","106","554876","0.0-63.0-0.0","""event"",""trial"",""time""
""fullscreenenter"",""0"",""2717""
","
","
","""event"",""trial"",""time""
""fullscreenenter"",""0"",""2717""
","
","791.0999999996275","","","","","","","","51","1,0,0","0","city","9","probe-167","0.7413306741905972","0.3692674193065366","0.12286856832897199","0","","","","","","","",""
"","html-keyboard-response","107","555882","0.0-63.0-1.0","""event"",""trial"",""time""
""fullscreenenter"",""0"",""2717""
","
","
","""event"",""trial"",""time""
""fullscreenenter"",""0"",""2717""
","
","null","<p></p>","null","","","","","","","","","","","","","","","","","","","","","","",""
"","do_trial","108","560973","0.0-64.0-0.0","""event"",""trial"",""time""
""fullscreenenter"",""0"",""2717""
","
","
","""event"",""trial"",""time""
""fullscreenenter"",""0"",""2717""
","
","542","","","","","","","","50","1,0,1","0","city","10","probe-217","0.618303108544374","0.35129159771364876","0.1086340763388999","0","","","","","","","",""
"","html-keyboard-response","109","561979","0.0-64.0-1.0","""event"",""trial"",""time""
""fullscreenenter"",""0"",""2717""
","
","
","""event"",""trial"",""time""
""fullscreenenter"",""0"",""2717""
","
","null","<p></p>","null","","","","","","","","","","","","","","","","","","","","","","",""
"","do_trial","110","567018","0.0-65.0-0.0","""event"",""trial"",""time""
""fullscreenenter"",""0"",""2717""
","
","
","""event"",""trial"",""time""
""fullscreenenter"",""0"",""2717""
","
","488.7999999988824","","","","","","","","50","0,0,0","0","city","11","probe-118","0.7344818415824999","0.3625286129998713","0.05464939456408668","0","","","","","","","",""
"","html-keyboard-response","111","568025","0.0-65.0-1.0","""event"",""trial"",""time""
""fullscreenenter"",""0"",""2717""
","
","
","""event"",""trial"",""time""
""fullscreenenter"",""0"",""2717""
","
","null","<p></p>","null","","","","","","","","","","","","","","","","","","","","","","",""
"","do_trial","112","572923","0.0-66.0-0.0","""event"",""trial"",""time""
""fullscreenenter"",""0"",""2717""
","
","
","""event"",""trial"",""time""
""fullscreenenter"",""0"",""2717""
","
","348.90000000037253","","","","","","","","49","1,1,0","0","city","12","probe-39","0.6670026692804726","0.3013364153366656","0.10570289134394756","1","","","","","","","",""
"","html-keyboard-response","113","573930","0.0-66.0-1.0","""event"",""trial"",""time""
""fullscreenenter"",""0"",""2717""
","
","
","""event"",""trial"",""time""
""fullscreenenter"",""0"",""2717""
","
","null","<p></p>","null","","","","","","","","","","","","","","","","","","","","","","",""
"","do_trial","114","579027","0.0-67.0-0.0","""event"",""trial"",""time""
""fullscreenenter"",""0"",""2717""
","
","
","""event"",""trial"",""time""
""fullscreenenter"",""0"",""2717""
","
","547.5","","","","","","","","49","1,1,0","0","city","13","probe-196","0.7977406307443952","0.29915783048189654","0.10388087057630906","1","","","","","","","",""
"","html-keyboard-response","115","580033","0.0-67.0-1.0","""event"",""trial"",""time""
""fullscreenenter"",""0"",""2717""
","
","
","""event"",""trial"",""time""
""fullscreenenter"",""0"",""2717""
","
","null","<p></p>","null","","","","","","","","","","","","","","","","","","","","","","",""
"","do_trial","116","584976","0.0-68.0-0.0","""event"",""trial"",""time""
""fullscreenenter"",""0"",""2717""
","
","
","""event"",""trial"",""time""
""fullscreenenter"",""0"",""2717""
","
","396.90000000037253","","","","","","","","49","0,0,0","0","city","14","probe-171","0.7925957837748127","0.3302095717959472","0.08314266104381748","0","","","","","","","",""
"","html-keyboard-response","117","585983","0.0-68.0-1.0","""event"",""trial"",""time""
""fullscreenenter"",""0"",""2717""
","
","
","""event"",""trial"",""time""
""fullscreenenter"",""0"",""2717""
","
","null","<p></p>","null","","","","","","","","","","","","","","","","","","","","","","",""
"","do_trial","118","590911","0.0-69.0-0.0","""event"",""trial"",""time""
""fullscreenenter"",""0"",""2717""
","
","
","""event"",""trial"",""time""
""fullscreenenter"",""0"",""2717""
","
","380.5","","","","","","","","51","1,0,0","0","city","15","probe-172","0.7200136064453555","0.4181439831762087","0.102258571035652","0","","","","","","","",""
"","html-keyboard-response","119","591916","0.0-69.0-1.0","""event"",""trial"",""time""
""fullscreenenter"",""0"",""2717""
","
","
","""event"",""trial"",""time""
""fullscreenenter"",""0"",""2717""
","
","null","<p></p>","null","","","","","","","","","","","","","","","","","","","","","","",""
"","do_trial","120","596912","0.0-70.0-0.0","""event"",""trial"",""time""
""fullscreenenter"",""0"",""2717""
","
","
","""event"",""trial"",""time""
""fullscreenenter"",""0"",""2717""
","
","444.5","","","","","","","","49","1,1,0","0","city","16","probe-226","0.5843551513850135","0.3224452206373516","0.11137770325123125","1","","","","","","","",""
"","html-keyboard-response","121","597918","0.0-70.0-1.0","""event"",""trial"",""time""
""fullscreenenter"",""0"",""2717""
","
","
","""event"",""trial"",""time""
""fullscreenenter"",""0"",""2717""
","
","null","<p></p>","null","","","","","","","","","","","","","","","","","","","","","","",""
"","do_trial","122","603140","0.0-71.0-0.0","""event"",""trial"",""time""
""fullscreenenter"",""0"",""2717""
","
","
","""event"",""trial"",""time""
""fullscreenenter"",""0"",""2717""
","
","674.1999999992549","","","","","","","","51","1,1,0","0","city","17","probe-29","0.500619254856321","0.37094864927497356","0.20395561246833716","0","","","","","","","",""
"","html-keyboard-response","123","604147","0.0-71.0-1.0","""event"",""trial"",""time""
""fullscreenenter"",""0"",""2717""
","
","
","""event"",""trial"",""time""
""fullscreenenter"",""0"",""2717""
","
","null","<p></p>","null","","","","","","","","","","","","","","","","","","","","","","",""
"","do_trial","124","609123","0.0-72.0-0.0","""event"",""trial"",""time""
""fullscreenenter"",""0"",""2717""
","
","
","""event"",""trial"",""time""
""fullscreenenter"",""0"",""2717""
","
","428.90000000037253","","","","","","","","49","1,0,0","0","city","18","probe-17","0.5099584114649129","0.2653136699946676","0.08072168331581409","1","","","","","","","",""
"","html-keyboard-response","125","610127","0.0-72.0-1.0","""event"",""trial"",""time""
""fullscreenenter"",""0"",""2717""
","
","
","""event"",""trial"",""time""
""fullscreenenter"",""0"",""2717""
","
","null","<p></p>","null","","","","","","","","","","","","","","","","","","","","","","",""
"","do_trial","126","615158","0.0-73.0-0.0","""event"",""trial"",""time""
""fullscreenenter"",""0"",""2717""
","
","
","""event"",""trial"",""time""
""fullscreenenter"",""0"",""2717""
","
","485.90000000037253","","","","","","","","49","1,0,0","0","city","19","probe-97","0.5739505109417089","0.42185150435615015","0.16666113510660246","1","","","","","","","",""
"","html-keyboard-response","127","616160","0.0-73.0-1.0","""event"",""trial"",""time""
""fullscreenenter"",""0"",""2717""
","
","
","""event"",""trial"",""time""
""fullscreenenter"",""0"",""2717""
","
","null","<p></p>","null","","","","","","","","","","","","","","","","","","","","","","",""
"","do_trial","128","621891","0.0-74.0-0.0","""event"",""trial"",""time""
""fullscreenenter"",""0"",""2717""
","
","
","""event"",""trial"",""time""
""fullscreenenter"",""0"",""2717""
","
","1182.5","","","","","","","","49","1,0,0","0","city","20","probe-64","0.7485965769202629","0.3261395315237353","0.2603701263515245","1","","","","","","","",""
"","html-keyboard-response","129","622897","0.0-74.0-1.0","""event"",""trial"",""time""
""fullscreenenter"",""0"",""2717""
","
","
","""event"",""trial"",""time""
""fullscreenenter"",""0"",""2717""
","
","null","<p></p>","null","","","","","","","","","","","","","","","","","","","","","","",""
"","do_trial","130","628101","0.0-75.0-0.0","""event"",""trial"",""time""
""fullscreenenter"",""0"",""2717""
","
","
","""event"",""trial"",""time""
""fullscreenenter"",""0"",""2717""
","
","657.0999999996275","","","","","","","","49","0,1,0","0","city","21","probe-149","0.6943045030261727","0.42721243277687565","0.2998866618875449","0","","","","","","","",""
"","html-keyboard-response","131","629108","0.0-75.0-1.0","""event"",""trial"",""time""
""fullscreenenter"",""0"",""2717""
","
","
","""event"",""trial"",""time""
""fullscreenenter"",""0"",""2717""
","
","null","<p></p>","null","","","","","","","","","","","","","","","","","","","","","","",""
"","do_trial","132","634143","0.0-76.0-0.0","""event"",""trial"",""time""
""fullscreenenter"",""0"",""2717""
","
","
","""event"",""trial"",""time""
""fullscreenenter"",""0"",""2717""
","
","487.59999999962747","","","","","","","","51","1,1,1","0","city","22","probe-201","0.6908601289423875","0.35237165008325333","0.28906156236574776","1","","","","","","","",""
"","html-keyboard-response","133","635148","0.0-76.0-1.0","""event"",""trial"",""time""
""fullscreenenter"",""0"",""2717""
","
","
","""event"",""trial"",""time""
""fullscreenenter"",""0"",""2717""
","
","null","<p></p>","null","","","","","","","","","","","","","","","","","","","","","","",""
"","do_trial","134","640262","0.0-77.0-0.0","""event"",""trial"",""time""
""fullscreenenter"",""0"",""2717""
","
","
","""event"",""trial"",""time""
""fullscreenenter"",""0"",""2717""
","
","567","","","","","","","","51","1,1,0","0","city","23","probe-92","0.6978740030846728","0.3747820915266938","0.25133968406865914","0","","","","","","","",""
"","html-keyboard-response","135","641267","0.0-77.0-1.0","""event"",""trial"",""time""
""fullscreenenter"",""0"",""2717""
","
","
","""event"",""trial"",""time""
""fullscreenenter"",""0"",""2717""
","
","null","<p></p>","null","","","","","","","","","","","","","","","","","","","","","","",""
"","do_trial","136","646317","0.0-78.0-0.0","""event"",""trial"",""time""
""fullscreenenter"",""0"",""2717""
","
","
","""event"",""trial"",""time""
""fullscreenenter"",""0"",""2717""
","
","499.40000000037253","","","","","","","","49","1,0,0","0","city","24","probe-198","0.820130834746296","0.12929456756971686","0.254103614077133","1","","","","","","","",""
"","html-keyboard-response","137","647324","0.0-78.0-1.0","""event"",""trial"",""time""
""fullscreenenter"",""0"",""2717""
","
","
","""event"",""trial"",""time""
""fullscreenenter"",""0"",""2717""
","
","null","<p></p>","null","","","","","","","","","","","","","","","","","","","","","","",""
"","do_trial","138","652278","0.0-79.0-0.0","""event"",""trial"",""time""
""fullscreenenter"",""0"",""2717""
","
","
","""event"",""trial"",""time""
""fullscreenenter"",""0"",""2717""
","
","405.90000000037253","","","","","","","","51","1,0,0","0","city","25","probe-110","0.7011496104171921","0.11210417997560987","0.17798415924528724","0","","","","","","","",""
"","html-keyboard-response","139","653282","0.0-79.0-1.0","""event"",""trial"",""time""
""fullscreenenter"",""0"",""2717""
","
","
","""event"",""trial"",""time""
""fullscreenenter"",""0"",""2717""
","
","null","<p></p>","null","","","","","","","","","","","","","","","","","","","","","","",""
"","do_trial","140","658181","0.0-80.0-0.0","""event"",""trial"",""time""
""fullscreenenter"",""0"",""2717""
","
","
","""event"",""trial"",""time""
""fullscreenenter"",""0"",""2717""
","
","353.2999999988824","","","","","","","","49","0,1,0","0","city","26","probe-129","0.7015566147378448","0.2512554335417229","0.18604351989116968","0","","","","","","","",""
"","html-keyboard-response","141","659188","0.0-80.0-1.0","""event"",""trial"",""time""
""fullscreenenter"",""0"",""2717""
","
","
","""event"",""trial"",""time""
""fullscreenenter"",""0"",""2717""
","
","null","<p></p>","null","","","","","","","","","","","","","","","","","","","","","","",""
"","do_trial","142","664078","0.0-81.0-0.0","""event"",""trial"",""time""
""fullscreenenter"",""0"",""2717""
","
","
","""event"",""trial"",""time""
""fullscreenenter"",""0"",""2717""
","
","340.5","","","","","","","","49","0,0,0","0","city","27","probe-79","0.7378651758513053","0.24798628508543266","0.12992560851256937","0","","","","","","","",""
"","html-keyboard-response","143","665083","0.0-81.0-1.0","""event"",""trial"",""time""
""fullscreenenter"",""0"",""2717""
","
","
","""event"",""trial"",""time""
""fullscreenenter"",""0"",""2717""
","
","null","<p></p>","null","","","","","","","","","","","","","","","","","","","","","","",""
"","do_trial","144","670049","0.0-82.0-0.0","""event"",""trial"",""time""
""fullscreenenter"",""0"",""2717""
","
","
","""event"",""trial"",""time""
""fullscreenenter"",""0"",""2717""
","
","417.7999999988824","","","","","","","","51","1,0,0","0","city","28","probe-170","0.8343597032188494","0.2664690049053392","0.07870166681652291","0","","","","","","","",""
"","html-keyboard-response","145","671053","0.0-82.0-1.0","""event"",""trial"",""time""
""fullscreenenter"",""0"",""2717""
","
","
","""event"",""trial"",""time""
""fullscreenenter"",""0"",""2717""
","
","null","<p></p>","null","","","","","","","","","","","","","","","","","","","","","","",""
"","do_trial","146","676142","0.0-83.0-0.0","""event"",""trial"",""time""
""fullscreenenter"",""0"",""2717""
","
","
","""event"",""trial"",""time""
""fullscreenenter"",""0"",""2717""
","
","541.4000000003725","","","","","","","","51","1,0,0","0","city","29","probe-105","0.6376476224577884","0.24912472231376595","0.12639244506224998","0","","","","","","","",""
"","html-keyboard-response","147","677149","0.0-83.0-1.0","""event"",""trial"",""time""
""fullscreenenter"",""0"",""2717""
","
","
","""event"",""trial"",""time""
""fullscreenenter"",""0"",""2717""
","
","null","<p></p>","null","","","","","","","","","","","","","","","","","","","","","","",""
"","do_bye","148","678660","0.0-84.0-0.0","""event"",""trial"",""time""
""fullscreenenter"",""0"",""2717""
","
","
","""event"",""trial"",""time""
""fullscreenenter"",""0"",""2717""
","
","null","","","","","","","","null","","","","","","","","","","","","","","","","",""
"","break","149","688707","0.0-84.0-1.0","""event"",""trial"",""time""
""fullscreenenter"",""0"",""2717""
","
","
","""event"",""trial"",""time""
""fullscreenenter"",""0"",""2717""
","
","10046.099999999627","<div class='center'><p>Time to take a quick break! You have 2 minutes to rest, but you can move on sooner if you'd like.</p><p> Press the <b>space bar</b> to continue.</p></div>","32","","","","","","","","","","","","","","","","","","","","","","",""
"","do_travel","150","697711","0.0-85.0-0.0","""event"",""trial"",""time""
""fullscreenenter"",""0"",""2717""
","
","
","""event"",""trial"",""time""
""fullscreenenter"",""0"",""2717""
","
","null","","","","","","","","null","","","","","","","","","","","","","","","","",""
"","do_welcome","151","701720","0.0-85.0-1.0","""event"",""trial"",""time""
""fullscreenenter"",""0"",""2717""
","
","
","""event"",""trial"",""time""
""fullscreenenter"",""0"",""2717""
","
","null","","","","","","","","null","","","","","","","","","","","","","","","","",""
"","do_trial","152","707829","0.0-86.0-0.0","""event"",""trial"",""time""
""fullscreenenter"",""0"",""2717""
","
","
","""event"",""trial"",""time""
""fullscreenenter"",""0"",""2717""
","
","1564","","","","","","","","50","1,0,0","1","mountain","30","probe-59","1","0.24638698158880434","0.12312616688582606","0","","","","","","","",""
"","html-keyboard-response","153","708835","0.0-86.0-1.0","""event"",""trial"",""time""
""fullscreenenter"",""0"",""2717""
","
","
","""event"",""trial"",""time""
""fullscreenenter"",""0"",""2717""
","
","null","<p></p>","null","","","","","","","","","","","","","","","","","","","","","","",""
"","do_trial","154","714914","0.0-87.0-0.0","""event"",""trial"",""time""
""fullscreenenter"",""0"",""2717""
","
","
","""event"",""trial"",""time""
""fullscreenenter"",""0"",""2717""
","
","1529.8999999985099","","","","","","","","49","1,1,0","1","mountain","31","probe-51","1","0.2969490585621796","0.20129043302019362","1","","","","","","","",""
"","html-keyboard-response","155","715916","0.0-87.0-1.0","""event"",""trial"",""time""
""fullscreenenter"",""0"",""2717""
","
","
","""event"",""trial"",""time""
""fullscreenenter"",""0"",""2717""
","
","null","<p></p>","null","","","","","","","","","","","","","","","","","","","","","","",""
"","do_trial","156","721100","0.0-88.0-0.0","""event"",""trial"",""time""
""fullscreenenter"",""0"",""2717""
","
","
","""event"",""trial"",""time""
""fullscreenenter"",""0"",""2717""
","
","647","","","","","","","","49","1,0,0","1","mountain","32","probe-111","1","0.34610468336557737","0.1276290028749085","1","","","","","","","",""
"","html-keyboard-response","157","722102","0.0-88.0-1.0","""event"",""trial"",""time""
""fullscreenenter"",""0"",""2717""
","
","
","""event"",""trial"",""time""
""fullscreenenter"",""0"",""2717""
","
","null","<p></p>","null","","","","","","","","","","","","","","","","","","","","","","",""
"","do_trial","158","727053","0.0-89.0-0.0","""event"",""trial"",""time""
""fullscreenenter"",""0"",""2717""
","
","
","""event"",""trial"",""time""
""fullscreenenter"",""0"",""2717""
","
","402.30000000074506","","","","","","","","49","1,1,0","1","mountain","33","probe-122","0.9305479683026533","0.3163708808037104","0.10214149654740716","1","","","","","","","",""
"","html-keyboard-response","159","728055","0.0-89.0-1.0","""event"",""trial"",""time""
""fullscreenenter"",""0"",""2717""
","
","
","""event"",""trial"",""time""
""fullscreenenter"",""0"",""2717""
","
","null","<p></p>","null","","","","","","","","","","","","","","","","","","","","","","",""
"","do_trial","160","732980","0.0-90.0-0.0","""event"",""trial"",""time""
""fullscreenenter"",""0"",""2717""
","
","
","""event"",""trial"",""time""
""fullscreenenter"",""0"",""2717""
","
","376.29999999701977","","","","","","","","51","1,0,0","1","mountain","34","probe-192","0.8812367177717225","0.44246248165895197","0.1115218896959656","0","","","","","","","",""
"","html-keyboard-response","161","733986","0.0-90.0-1.0","""event"",""trial"",""time""
""fullscreenenter"",""0"",""2717""
","
","
","""event"",""trial"",""time""
""fullscreenenter"",""0"",""2717""
","
","null","<p></p>","null","","","","","","","","","","","","","","","","","","","","","","",""
"","do_trial","162","738913","0.0-91.0-0.0","""event"",""trial"",""time""
""fullscreenenter"",""0"",""2717""
","
","
","""event"",""trial"",""time""
""fullscreenenter"",""0"",""2717""
","
","380.6000000014901","","","","","","","","49","0,1,0","1","mountain","35","probe-12","0.7681839064787779","0.4329622503999226","0.05965804975866334","0","","","","","","","",""
"","html-keyboard-response","163","739916","0.0-91.0-1.0","""event"",""trial"",""time""
""fullscreenenter"",""0"",""2717""
","
","
","""event"",""trial"",""time""
""fullscreenenter"",""0"",""2717""
","
","null","<p></p>","null","","","","","","","","","","","","","","","","","","","","","","",""
"","do_trial","164","745346","0.0-92.0-0.0","""event"",""trial"",""time""
""fullscreenenter"",""0"",""2717""
","
","
","""event"",""trial"",""time""
""fullscreenenter"",""0"",""2717""
","
","882.9000000022352","","","","","","","","51","1,0,0","1","mountain","36","probe-131","0.7210184148501151","0.3544271094543461","0.054365361177926265","0","","","","","","","",""
"","html-keyboard-response","165","746353","0.0-92.0-1.0","""event"",""trial"",""time""
""fullscreenenter"",""0"",""2717""
","
","
","""event"",""trial"",""time""
""fullscreenenter"",""0"",""2717""
","
","null","<p></p>","null","","","","","","","","","","","","","","","","","","","","","","",""
"","do_trial","166","751223","0.0-93.0-0.0","""event"",""trial"",""time""
""fullscreenenter"",""0"",""2717""
","
","
","""event"",""trial"",""time""
""fullscreenenter"",""0"",""2717""
","
","319.69999999925494","","","","","","","","50","1,0,0","1","mountain","37","probe-157","0.6326945101938205","0.32826215751043053","0.07058830663319308","0","","","","","","","",""
"","html-keyboard-response","167","752230","0.0-93.0-1.0","""event"",""trial"",""time""
""fullscreenenter"",""0"",""2717""
","
","
","""event"",""trial"",""time""
""fullscreenenter"",""0"",""2717""
","
","null","<p></p>","null","","","","","","","","","","","","","","","","","","","","","","",""
"","do_trial","168","757180","0.0-94.0-0.0","""event"",""trial"",""time""
""fullscreenenter"",""0"",""2717""
","
","
","""event"",""trial"",""time""
""fullscreenenter"",""0"",""2717""
","
","400.80000000074506","","","","","","","","50","0,1,0","1","mountain","38","probe-11","0.7298103980649806","0.41802020565419795","0.14370263584785417","1","","","","","","","",""
"","html-keyboard-response","169","758183","0.0-94.0-1.0","""event"",""trial"",""time""
""fullscreenenter"",""0"",""2717""
","
","
","""event"",""trial"",""time""
""fullscreenenter"",""0"",""2717""
","
","null","<p></p>","null","","","","","","","","","","","","","","","","","","","","","","",""
"","do_trial","170","763292","0.0-95.0-0.0","""event"",""trial"",""time""
""fullscreenenter"",""0"",""2717""
","
","
","""event"",""trial"",""time""
""fullscreenenter"",""0"",""2717""
","
","566","","","","","","","","50","1,0,0","1","mountain","39","probe-21","0.7030639290372944","0.3612708133975647","0.0738468950049421","0","","","","","","","",""
"","html-keyboard-response","171","764296","0.0-95.0-1.0","""event"",""trial"",""time""
""fullscreenenter"",""0"",""2717""
","
","
","""event"",""trial"",""time""
""fullscreenenter"",""0"",""2717""
","
","null","<p></p>","null","","","","","","","","","","","","","","","","","","","","","","",""
"","do_trial","172","769148","0.0-96.0-0.0","""event"",""trial"",""time""
""fullscreenenter"",""0"",""2717""
","
","
","""event"",""trial"",""time""
""fullscreenenter"",""0"",""2717""
","
","309.8999999985099","","","","","","","","49","0,0,0","1","mountain","40","probe-225","0.7037794023374585","0.41665241926880614","0.10835929762926699","0","","","","","","","",""
"","html-keyboard-response","173","770149","0.0-96.0-1.0","""event"",""trial"",""time""
""fullscreenenter"",""0"",""2717""
","
","
","""event"",""trial"",""time""
""fullscreenenter"",""0"",""2717""
","
","null","<p></p>","null","","","","","","","","","","","","","","","","","","","","","","",""
"","do_trial","174","774909","0.0-97.0-0.0","""event"",""trial"",""time""
""fullscreenenter"",""0"",""2717""
","
","
","""event"",""trial"",""time""
""fullscreenenter"",""0"",""2717""
","
","209.39999999850988","","","","","","","","51","0,0,1","1","mountain","41","probe-98","0.6192979996278732","0.34711563479030644","0.2002564224312425","1","","","","","","","",""
"","html-keyboard-response","175","775916","0.0-97.0-1.0","""event"",""trial"",""time""
""fullscreenenter"",""0"",""2717""
","
","
","""event"",""trial"",""time""
""fullscreenenter"",""0"",""2717""
","
","null","<p></p>","null","","","","","","","","","","","","","","","","","","","","","","",""
"","do_trial","176","781132","0.0-98.0-0.0","""event"",""trial"",""time""
""fullscreenenter"",""0"",""2717""
","
","
","""event"",""trial"",""time""
""fullscreenenter"",""0"",""2717""
","
","667.8000000007451","","","","","","","","51","0,0,0","1","mountain","42","probe-178","0.5006595458393376","0.2097565877801818","0.36639155480638197","0","","","","","","","",""
"","html-keyboard-response","177","782138","0.0-98.0-1.0","""event"",""trial"",""time""
""fullscreenenter"",""0"",""2717""
","
","
","""event"",""trial"",""time""
""fullscreenenter"",""0"",""2717""
","
","null","<p></p>","null","","","","","","","","","","","","","","","","","","","","","","",""
"","do_trial","178","787061","0.0-99.0-0.0","""event"",""trial"",""time""
""fullscreenenter"",""0"",""2717""
","
","
","""event"",""trial"",""time""
""fullscreenenter"",""0"",""2717""
","
","376.3999999985099","","","","","","","","49","1,0,0","1","mountain","43","probe-141","0.446572119575027","0.06779830627060945","0.5349061296190761","1","","","","","","","",""
"","html-keyboard-response","179","788065","0.0-99.0-1.0","""event"",""trial"",""time""
""fullscreenenter"",""0"",""2717""
","
","
","""event"",""trial"",""time""
""fullscreenenter"",""0"",""2717""
","
","null","<p></p>","null","","","","","","","","","","","","","","","","","","","","","","",""
"","do_trial","180","793154","0.0-100.0-0.0","""event"",""trial"",""time""
""fullscreenenter"",""0"",""2717""
","
","
","""event"",""trial"",""time""
""fullscreenenter"",""0"",""2717""
","
","540.2999999970198","","","","","","","","49","1,0,1","1","mountain","44","probe-204","0.4248337258672043","0.0706418615651227","0.5915602686121294","1","","","","","","","",""
"","html-keyboard-response","181","794161","0.0-100.0-1.0","""event"",""trial"",""time""
""fullscreenenter"",""0"",""2717""
","
","
","""event"",""trial"",""time""
""fullscreenenter"",""0"",""2717""
","
","null","<p></p>","null","","","","","","","","","","","","","","","","","","","","","","",""
"","do_trial","182","799078","0.0-101.0-0.0","""event"",""trial"",""time""
""fullscreenenter"",""0"",""2717""
","
","
","""event"",""trial"",""time""
""fullscreenenter"",""0"",""2717""
","
","366.5","","","","","","","","49","0,0,1","1","mountain","45","probe-90","0.44764843261282516","0.131330242113999","0.7182959596536566","0","","","","","","","",""
"","html-keyboard-response","183","800081","0.0-101.0-1.0","""event"",""trial"",""time""
""fullscreenenter"",""0"",""2717""
","
","
","""event"",""trial"",""time""
""fullscreenenter"",""0"",""2717""
","
","null","<p></p>","null","","","","","","","","","","","","","","","","","","","","","","",""
"","do_trial","184","804983","0.0-102.0-0.0","""event"",""trial"",""time""
""fullscreenenter"",""0"",""2717""
","
","
","""event"",""trial"",""time""
""fullscreenenter"",""0"",""2717""
","
","359","","","","","","","","51","1,0,1","1","mountain","46","probe-18","0.3511628561745856","0.05311415205040256","0.6579971163484499","1","","","","","","","",""
"","html-keyboard-response","185","805990","0.0-102.0-1.0","""event"",""trial"",""time""
""fullscreenenter"",""0"",""2717""
","
","
","""event"",""trial"",""time""
""fullscreenenter"",""0"",""2717""
","
","null","<p></p>","null","","","","","","","","","","","","","","","","","","","","","","",""
"","do_trial","186","811468","0.0-103.0-0.0","""event"",""trial"",""time""
""fullscreenenter"",""0"",""2717""
","
","
","""event"",""trial"",""time""
""fullscreenenter"",""0"",""2717""
","
","930","","","","","","","","51","1,0,1","1","mountain","47","probe-63","0.3456233573863387","0.1290248494783327","0.6731937615231519","1","","","","","","","",""
"","html-keyboard-response","187","812474","0.0-103.0-1.0","""event"",""trial"",""time""
""fullscreenenter"",""0"",""2717""
","
","
","""event"",""trial"",""time""
""fullscreenenter"",""0"",""2717""
","
","null","<p></p>","null","","","","","","","","","","","","","","","","","","","","","","",""
"","do_trial","188","817498","0.0-104.0-0.0","""event"",""trial"",""time""
""fullscreenenter"",""0"",""2717""
","
","
","""event"",""trial"",""time""
""fullscreenenter"",""0"",""2717""
","
","475.5","","","","","","","","51","1,0,1","1","mountain","48","probe-10","0.26319382192855656","0.07364057030719307","0.5802018802999499","1","","","","","","","",""
"","html-keyboard-response","189","818504","0.0-104.0-1.0","""event"",""trial"",""time""
""fullscreenenter"",""0"",""2717""
","
","
","""event"",""trial"",""time""
""fullscreenenter"",""0"",""2717""
","
","null","<p></p>","null","","","","","","","","","","","","","","","","","","","","","","",""
"","do_trial","190","823660","0.0-105.0-0.0","""event"",""trial"",""time""
""fullscreenenter"",""0"",""2717""
","
","
","""event"",""trial"",""time""
""fullscreenenter"",""0"",""2717""
","
","608","","","","","","","","51","0,0,0","1","mountain","49","probe-140","0.31787337656307124","0.10055302074539657","0.4213665159395234","0","","","","","","","",""
"","html-keyboard-response","191","824665","0.0-105.0-1.0","""event"",""trial"",""time""
""fullscreenenter"",""0"",""2717""
","
","
","""event"",""trial"",""time""
""fullscreenenter"",""0"",""2717""
","
","null","<p></p>","null","","","","","","","","","","","","","","","","","","","","","","",""
"","do_trial","192","829648","0.0-106.0-0.0","""event"",""trial"",""time""
""fullscreenenter"",""0"",""2717""
","
","
","""event"",""trial"",""time""
""fullscreenenter"",""0"",""2717""
","
","434.5","","","","","","","","50","0,0,1","1","mountain","50","probe-06","0.4341214536201254","0.15192603774046998","0.5271307959706877","0","","","","","","","",""
"","html-keyboard-response","193","830650","0.0-106.0-1.0","""event"",""trial"",""time""
""fullscreenenter"",""0"",""2717""
","
","
","""event"",""trial"",""time""
""fullscreenenter"",""0"",""2717""
","
","null","<p></p>","null","","","","","","","","","","","","","","","","","","","","","","",""
"","do_trial","194","835516","0.0-107.0-0.0","""event"",""trial"",""time""
""fullscreenenter"",""0"",""2717""
","
","
","""event"",""trial"",""time""
""fullscreenenter"",""0"",""2717""
","
","322.20000000298023","","","","","","","","51","0,0,1","1","mountain","51","probe-93","0.3195953900782652","0.24396937315174178","0.5814135561482021","1","","","","","","","",""
"","html-keyboard-response","195","836523","0.0-107.0-1.0","""event"",""trial"",""time""
""fullscreenenter"",""0"",""2717""
","
","
","""event"",""trial"",""time""
""fullscreenenter"",""0"",""2717""
","
","null","<p></p>","null","","","","","","","","","","","","","","","","","","","","","","",""
"","do_trial","196","841465","0.0-108.0-0.0","""event"",""trial"",""time""
""fullscreenenter"",""0"",""2717""
","
","
","""event"",""trial"",""time""
""fullscreenenter"",""0"",""2717""
","
","390.8999999985099","","","","","","","","49","1,0,1","1","mountain","52","probe-107","0.40798440551066495","0.23248414516197713","0.677066001821863","1","","","","","","","",""
"","html-keyboard-response","197","842471","0.0-108.0-1.0","""event"",""trial"",""time""
""fullscreenenter"",""0"",""2717""
","
","
","""event"",""trial"",""time""
""fullscreenenter"",""0"",""2717""
","
","null","<p></p>","null","","","","","","","","","","","","","","","","","","","","","","",""
"","do_trial","198","847600","0.0-109.0-0.0","""event"",""trial"",""time""
""fullscreenenter"",""0"",""2717""
","
","
","""event"",""trial"",""time""
""fullscreenenter"",""0"",""2717""
","
","582.3999999985099","","","","","","","","49","0,0,1","1","mountain","53","probe-67","0.10283563525978102","0.06902317827187386","0.6761635224438898","0","","","","","","","",""
"","html-keyboard-response","199","848607","0.0-109.0-1.0","""event"",""trial"",""time""
""fullscreenenter"",""0"",""2717""
","
","
","""event"",""trial"",""time""
""fullscreenenter"",""0"",""2717""
","
","null","<p></p>","null","","","","","","","","","","","","","","","","","","","","","","",""
"","do_trial","200","853658","0.0-110.0-0.0","""event"",""trial"",""time""
""fullscreenenter"",""0"",""2717""
","
","
","""event"",""trial"",""time""
""fullscreenenter"",""0"",""2717""
","
","502.80000000074506","","","","","","","","51","0,0,1","1","mountain","54","probe-210","0.32527648331063347","0.1125644544811074","0.6704883023278854","1","","","","","","","",""
"","html-keyboard-response","201","854665","0.0-110.0-1.0","""event"",""trial"",""time""
""fullscreenenter"",""0"",""2717""
","
","
","""event"",""trial"",""time""
""fullscreenenter"",""0"",""2717""
","
","null","<p></p>","null","","","","","","","","","","","","","","","","","","","","","","",""
"","do_trial","202","859899","0.0-111.0-0.0","""event"",""trial"",""time""
""fullscreenenter"",""0"",""2717""
","
","
","""event"",""trial"",""time""
""fullscreenenter"",""0"",""2717""
","
","685.1999999992549","","","","","","","","51","0,1,1","1","mountain","55","probe-45","0.2746045692930471","0.14956876135833003","0.5889088181276497","1","","","","","","","",""
"","html-keyboard-response","203","860906","0.0-111.0-1.0","""event"",""trial"",""time""
""fullscreenenter"",""0"",""2717""
","
","
","""event"",""trial"",""time""
""fullscreenenter"",""0"",""2717""
","
","null","<p></p>","null","","","","","","","","","","","","","","","","","","","","","","",""
"","do_trial","204","865974","0.0-112.0-0.0","""event"",""trial"",""time""
""fullscreenenter"",""0"",""2717""
","
","
","""event"",""trial"",""time""
""fullscreenenter"",""0"",""2717""
","
","520.1999999992549","","","","","","","","51","0,0,0","1","mountain","56","probe-41","0.24235697266120768","0.12888390965686225","0.662920506642198","0","","","","","","","",""
"","html-keyboard-response","205","866977","0.0-112.0-1.0","""event"",""trial"",""time""
""fullscreenenter"",""0"",""2717""
","
","
","""event"",""trial"",""time""
""fullscreenenter"",""0"",""2717""
","
","null","<p></p>","null","","","","","","","","","","","","","","","","","","","","","","",""
"","do_trial","206","871848","0.0-113.0-0.0","""event"",""trial"",""time""
""fullscreenenter"",""0"",""2717""
","
","
","""event"",""trial"",""time""
""fullscreenenter"",""0"",""2717""
","
","320.30000000074506","","","","","","","","49","0,0,0","1","mountain","57","probe-96","0.25705460565001054","0.2271098104451113","0.6637022995317666","0","","","","","","","",""
"","html-keyboard-response","207","872855","0.0-113.0-1.0","""event"",""trial"",""time""
""fullscreenenter"",""0"",""2717""
","
","
","""event"",""trial"",""time""
""fullscreenenter"",""0"",""2717""
","
","null","<p></p>","null","","","","","","","","","","","","","","","","","","","","","","",""
"","do_trial","208","877591","0.0-114.0-0.0","""event"",""trial"",""time""
""fullscreenenter"",""0"",""2717""
","
","
","""event"",""trial"",""time""
""fullscreenenter"",""0"",""2717""
","
","188","","","","","","","","51","0,1,1","1","mountain","58","probe-86","0.2232617568859371","0.23789999384484728","0.5953447932387972","1","","","","","","","",""
"","html-keyboard-response","209","878594","0.0-114.0-1.0","""event"",""trial"",""time""
""fullscreenenter"",""0"",""2717""
","
","
","""event"",""trial"",""time""
""fullscreenenter"",""0"",""2717""
","
","null","<p></p>","null","","","","","","","","","","","","","","","","","","","","","","",""
"","do_trial","210","883496","0.0-115.0-0.0","""event"",""trial"",""time""
""fullscreenenter"",""0"",""2717""
","
","
","""event"",""trial"",""time""
""fullscreenenter"",""0"",""2717""
","
","356.70000000298023","","","","","","","","51","0,0,0","1","mountain","59","probe-127","0.20935772915204962","0.2622776536412041","0.5819049558551668","0","","","","","","","",""
"","html-keyboard-response","211","884497","0.0-115.0-1.0","""event"",""trial"",""time""
""fullscreenenter"",""0"",""2717""
","
","
","""event"",""trial"",""time""
""fullscreenenter"",""0"",""2717""
","
","null","<p></p>","null","","","","","","","","","","","","","","","","","","","","","","",""
"","do_trial","212","889430","0.0-116.0-0.0","""event"",""trial"",""time""
""fullscreenenter"",""0"",""2717""
","
","
","""event"",""trial"",""time""
""fullscreenenter"",""0"",""2717""
","
","394.69999999925494","","","","","","","","49","1,1,0","1","mountain","60","probe-227","0.3338919877274042","0.4589662519766455","0.43330059534068294","1","","","","","","","",""
"","html-keyboard-response","213","890432","0.0-116.0-1.0","""event"",""trial"",""time""
""fullscreenenter"",""0"",""2717""
","
","
","""event"",""trial"",""time""
""fullscreenenter"",""0"",""2717""
","
","null","<p></p>","null","","","","","","","","","","","","","","","","","","","","","","",""
"","do_trial","214","895595","0.0-117.0-0.0","""event"",""trial"",""time""
""fullscreenenter"",""0"",""2717""
","
","
","""event"",""trial"",""time""
""fullscreenenter"",""0"",""2717""
","
","610.8000000007451","","","","","","","","49","1,1,1","1","mountain","61","probe-164","0.3018335879322052","0.38564583530442115","0.4655423883281049","1","","","","","","","",""
"","html-keyboard-response","215","896596","0.0-117.0-1.0","""event"",""trial"",""time""
""fullscreenenter"",""0"",""2717""
","
","
","""event"",""trial"",""time""
""fullscreenenter"",""0"",""2717""
","
","null","<p></p>","null","","","","","","","","","","","","","","","","","","","","","","",""
"","do_trial","216","901588","0.0-118.0-0.0","""event"",""trial"",""time""
""fullscreenenter"",""0"",""2717""
","
","
","""event"",""trial"",""time""
""fullscreenenter"",""0"",""2717""
","
","454.1000000014901","","","","","","","","49","0,0,1","1","mountain","62","probe-151","0.4229641605837174","0.12861559761805272","0.5549161621982228","0","","","","","","","",""
"","html-keyboard-response","217","902595","0.0-118.0-1.0","""event"",""trial"",""time""
""fullscreenenter"",""0"",""2717""
","
","
","""event"",""trial"",""time""
""fullscreenenter"",""0"",""2717""
","
","null","<p></p>","null","","","","","","","","","","","","","","","","","","","","","","",""
"","do_trial","218","907388","0.0-119.0-0.0","""event"",""trial"",""time""
""fullscreenenter"",""0"",""2717""
","
","
","""event"",""trial"",""time""
""fullscreenenter"",""0"",""2717""
","
","247.5","","","","","","","","49","0,0,1","1","mountain","63","probe-43","0.3168284385567801","0.16884080635176954","0.6850830539333854","0","","","","","","","",""
"","html-keyboard-response","219","908390","0.0-119.0-1.0","""event"",""trial"",""time""
""fullscreenenter"",""0"",""2717""
","
","
","""event"",""trial"",""time""
""fullscreenenter"",""0"",""2717""
","
","null","<p></p>","null","","","","","","","","","","","","","","","","","","","","","","",""
"","do_trial","220","913209","0.0-120.0-0.0","""event"",""trial"",""time""
""fullscreenenter"",""0"",""2717""
","
","
","""event"",""trial"",""time""
""fullscreenenter"",""0"",""2717""
","
","268","","","","","","","","51","1,0,1","1","mountain","64","probe-102","0.35338018154078804","0.06842788275069073","0.7391089146938226","1","","","","","","","",""
"","html-keyboard-response","221","914216","0.0-120.0-1.0","""event"",""trial"",""time""
""fullscreenenter"",""0"",""2717""
","
","
","""event"",""trial"",""time""
""fullscreenenter"",""0"",""2717""
","
","null","<p></p>","null","","","","","","","","","","","","","","","","","","","","","","",""
"","do_trial","222","919921","0.0-121.0-0.0","""event"",""trial"",""time""
""fullscreenenter"",""0"",""2717""
","
","
","""event"",""trial"",""time""
""fullscreenenter"",""0"",""2717""
","
","1154.5","","","","","","","","51","0,1,0","1","mountain","65","probe-56","0.40183837404535383","0.1489895651514052","0.7988170417802914","0","","","","","","","",""
"","html-keyboard-response","223","920928","0.0-121.0-1.0","""event"",""trial"",""time""
""fullscreenenter"",""0"",""2717""
","
","
","""event"",""trial"",""time""
""fullscreenenter"",""0"",""2717""
","
","null","<p></p>","null","","","","","","","","","","","","","","","","","","","","","","",""
"","do_trial","224","926344","0.0-122.0-0.0","""event"",""trial"",""time""
""fullscreenenter"",""0"",""2717""
","
","
","""event"",""trial"",""time""
""fullscreenenter"",""0"",""2717""
","
","870.3999999985099","","","","","","","","51","0,1,1","1","mountain","66","probe-194","0.3244176089921261","0.16591650125452084","0.8543219201043099","1","","","","","","","",""
"","html-keyboard-response","225","927346","0.0-122.0-1.0","""event"",""trial"",""time""
""fullscreenenter"",""0"",""2717""
","
","
","""event"",""trial"",""time""
""fullscreenenter"",""0"",""2717""
","
","null","<p></p>","null","","","","","","","","","","","","","","","","","","","","","","",""
"","do_trial","226","932204","0.0-123.0-0.0","""event"",""trial"",""time""
""fullscreenenter"",""0"",""2717""
","
","
","""event"",""trial"",""time""
""fullscreenenter"",""0"",""2717""
","
","311.19999999925494","","","","","","","","50","1,1,1","1","mountain","67","probe-175","0.35290108986493024","0.18001222865515576","0.7766356471774811","1","","","","","","","",""
"","html-keyboard-response","227","933210","0.0-123.0-1.0","""event"",""trial"",""time""
""fullscreenenter"",""0"",""2717""
","
","
","""event"",""trial"",""time""
""fullscreenenter"",""0"",""2717""
","
","null","<p></p>","null","","","","","","","","","","","","","","","","","","","","","","",""
"","do_trial","228","938240","0.0-124.0-0.0","""event"",""trial"",""time""
""fullscreenenter"",""0"",""2717""
","
","
","""event"",""trial"",""time""
""fullscreenenter"",""0"",""2717""
","
","478.79999999701977","","","","","","","","51","0,0,1","1","mountain","68","probe-146","0.3102309293064511","0.05910418415327346","0.8263568740842986","1","","","","","","","",""
"","html-keyboard-response","229","939247","0.0-124.0-1.0","""event"",""trial"",""time""
""fullscreenenter"",""0"",""2717""
","
","
","""event"",""trial"",""time""
""fullscreenenter"",""0"",""2717""
","
","null","<p></p>","null","","","","","","","","","","","","","","","","","","","","","","",""
"","do_trial","230","944511","0.0-125.0-0.0","""event"",""trial"",""time""
""fullscreenenter"",""0"",""2717""
","
","
","""event"",""trial"",""time""
""fullscreenenter"",""0"",""2717""
","
","713.8999999985099","","","","","","","","51","1,0,1","1","mountain","69","probe-189","0.33233607573557084","0.12818635965870548","0.7191538347807905","1","","","","","","","",""
"","html-keyboard-response","231","945516","0.0-125.0-1.0","""event"",""trial"",""time""
""fullscreenenter"",""0"",""2717""
","
","
","""event"",""trial"",""time""
""fullscreenenter"",""0"",""2717""
","
","null","<p></p>","null","","","","","","","","","","","","","","","","","","","","","","",""
"","do_bye","232","947022","0.0-126.0-0.0","""event"",""trial"",""time""
""fullscreenenter"",""0"",""2717""
","
","
","""event"",""trial"",""time""
""fullscreenenter"",""0"",""2717""
","
","null","","","","","","","","null","","","","","","","","","","","","","","","","",""
"","break","233","948860","0.0-126.0-1.0","""event"",""trial"",""time""
""fullscreenenter"",""0"",""2717""
","
","
","""event"",""trial"",""time""
""fullscreenenter"",""0"",""2717""
","
","1836.3999999985099","<div class='center'><p>Time to take a quick break! You have 2 minutes to rest, but you can move on sooner if you'd like.</p><p> Press the <b>space bar</b> to continue.</p></div>","32","","","","","","","","","","","","","","","","","","","","","","",""
"","do_travel","234","957865","0.0-127.0-0.0","""event"",""trial"",""time""
""fullscreenenter"",""0"",""2717""
","
","
","""event"",""trial"",""time""
""fullscreenenter"",""0"",""2717""
","
","null","","","","","","","","null","","","","","","","","","","","","","","","","",""
"","do_welcome","235","961870","0.0-127.0-1.0","""event"",""trial"",""time""
""fullscreenenter"",""0"",""2717""
","
","
","""event"",""trial"",""time""
""fullscreenenter"",""0"",""2717""
","
","null","","","","","","","","null","","","","","","","","","","","","","","","","",""
"","do_trial","236","969192","0.0-128.0-0.0","""event"",""trial"",""time""
""fullscreenenter"",""0"",""2717""
","
","
","""event"",""trial"",""time""
""fullscreenenter"",""0"",""2717""
","
","2770.7999999970198","","","","","","","","49","0,0,1","2","highway","70","probe-203","0.2220032888074126","0.2313678849314341","1","0","","","","","","","",""
"","html-keyboard-response","237","970195","0.0-128.0-1.0","""event"",""trial"",""time""
""fullscreenenter"",""0"",""2717""
","
","
","""event"",""trial"",""time""
""fullscreenenter"",""0"",""2717""
","
","null","<p></p>","null","","","","","","","","","","","","","","","","","","","","","","",""
"","do_trial","238","975157","0.0-129.0-0.0","""event"",""trial"",""time""
""fullscreenenter"",""0"",""2717""
","
","
","""event"",""trial"",""time""
""fullscreenenter"",""0"",""2717""
","
","416.5","","","","","","","","51","0,0,1","2","highway","71","probe-145","0.2855295748547144","0.18188187087392418","1","1","","","","","","","",""
"","html-keyboard-response","239","976162","0.0-129.0-1.0","""event"",""trial"",""time""
""fullscreenenter"",""0"",""2717""
","
","
","""event"",""trial"",""time""
""fullscreenenter"",""0"",""2717""
","
","null","<p></p>","null","","","","","","","","","","","","","","","","","","","","","","",""
"","do_trial","240","981242","0.0-130.0-0.0","""event"",""trial"",""time""
""fullscreenenter"",""0"",""2717""
","
","
","""event"",""trial"",""time""
""fullscreenenter"",""0"",""2717""
","
","534.4000000022352","","","","","","","","51","0,0,1","2","highway","72","probe-228","0.2963547438045695","0.25557319699639275","0.8561462952431379","1","","","","","","","",""
"","html-keyboard-response","241","982248","0.0-130.0-1.0","""event"",""trial"",""time""
""fullscreenenter"",""0"",""2717""
","
","
","""event"",""trial"",""time""
""fullscreenenter"",""0"",""2717""
","
","null","<p></p>","null","","","","","","","","","","","","","","","","","","","","","","",""
"","do_trial","242","987177","0.0-131.0-0.0","""event"",""trial"",""time""
""fullscreenenter"",""0"",""2717""
","
","
","""event"",""trial"",""time""
""fullscreenenter"",""0"",""2717""
","
","380.69999999925494","","","","","","","","51","0,0,1","2","highway","73","probe-166","0.24218821167582769","0.24411013421172306","0.7606617580425794","1","","","","","","","",""
"","html-keyboard-response","243","988183","0.0-131.0-1.0","""event"",""trial"",""time""
""fullscreenenter"",""0"",""2717""
","
","
","""event"",""trial"",""time""
""fullscreenenter"",""0"",""2717""
","
","null","<p></p>","null","","","","","","","","","","","","","","","","","","","","","","",""
"","do_trial","244","993228","0.0-132.0-0.0","""event"",""trial"",""time""
""fullscreenenter"",""0"",""2717""
","
","
","""event"",""trial"",""time""
""fullscreenenter"",""0"",""2717""
","
","494.4000000022352","","","","","","","","51","0,0,1","2","highway","74","probe-101","0.21644582896664705","0.16598647175718612","0.5713467156922538","1","","","","","","","",""
"","html-keyboard-response","245","994234","0.0-132.0-1.0","""event"",""trial"",""time""
""fullscreenenter"",""0"",""2717""
","
","
","""event"",""trial"",""time""
""fullscreenenter"",""0"",""2717""
","
","null","<p></p>","null","","","","","","","","","","","","","","","","","","","","","","",""
"","do_trial","246","999125","0.0-133.0-0.0","""event"",""trial"",""time""
""fullscreenenter"",""0"",""2717""
","
","
","""event"",""trial"",""time""
""fullscreenenter"",""0"",""2717""
","
","341.5","","","","","","","","51","1,1,1","2","highway","75","probe-95","0.4028601187346241","0.1838390854837771","0.680610761070733","1","","","","","","","",""
"","html-keyboard-response","247","1000127","0.0-133.0-1.0","""event"",""trial"",""time""
""fullscreenenter"",""0"",""2717""
","
","
","""event"",""trial"",""time""
""fullscreenenter"",""0"",""2717""
","
","null","<p></p>","null","","","","","","","","","","","","","","","","","","","","","","",""
"","do_trial","248","1005044","0.0-134.0-0.0","""event"",""trial"",""time""
""fullscreenenter"",""0"",""2717""
","
","
","""event"",""trial"",""time""
""fullscreenenter"",""0"",""2717""
","
","380.69999999925494","","","","","","","","51","0,0,1","2","highway","76","probe-81","0.34013523842883703","0.20993495123562012","0.6500902651733584","1","","","","","","","",""
"","html-keyboard-response","249","1006051","0.0-134.0-1.0","""event"",""trial"",""time""
""fullscreenenter"",""0"",""2717""
","
","
","""event"",""trial"",""time""
""fullscreenenter"",""0"",""2717""
","
","null","<p></p>","null","","","","","","","","","","","","","","","","","","","","","","",""
"","do_trial","250","1010924","0.0-135.0-0.0","""event"",""trial"",""time""
""fullscreenenter"",""0"",""2717""
","
","
","""event"",""trial"",""time""
""fullscreenenter"",""0"",""2717""
","
","324.29999999701977","","","","","","","","51","1,1,0","2","highway","77","probe-72","0.33950090858988907","0.194951612724038","0.7565172518359689","0","","","","","","","",""
"","html-keyboard-response","251","1011931","0.0-135.0-1.0","""event"",""trial"",""time""
""fullscreenenter"",""0"",""2717""
","
","
","""event"",""trial"",""time""
""fullscreenenter"",""0"",""2717""
","
","null","<p></p>","null","","","","","","","","","","","","","","","","","","","","","","",""
"","do_trial","252","1017053","0.0-136.0-0.0","""event"",""trial"",""time""
""fullscreenenter"",""0"",""2717""
","
","
","""event"",""trial"",""time""
""fullscreenenter"",""0"",""2717""
","
","570.6999999992549","","","","","","","","49","1,1,1","2","highway","78","probe-114","0.2688265192483402","0.17538183260484683","0.736452721919709","1","","","","","","","",""
"","html-keyboard-response","253","1018059","0.0-136.0-1.0","""event"",""trial"",""time""
""fullscreenenter"",""0"",""2717""
","
","
","""event"",""trial"",""time""
""fullscreenenter"",""0"",""2717""
","
","null","<p></p>","null","","","","","","","","","","","","","","","","","","","","","","",""
"","do_trial","254","1023058","0.0-137.0-0.0","""event"",""trial"",""time""
""fullscreenenter"",""0"",""2717""
","
","
","""event"",""trial"",""time""
""fullscreenenter"",""0"",""2717""
","
","450.5999999977648","","","","","","","","50","0,0,0","2","highway","79","probe-148","0.40200090320119763","0.2533848479110355","0.6602389506871653","0","","","","","","","",""
"","html-keyboard-response","255","1024065","0.0-137.0-1.0","""event"",""trial"",""time""
""fullscreenenter"",""0"",""2717""
","
","
","""event"",""trial"",""time""
""fullscreenenter"",""0"",""2717""
","
","null","<p></p>","null","","","","","","","","","","","","","","","","","","","","","","",""
"","do_trial","256","1029136","0.0-138.0-0.0","""event"",""trial"",""time""
""fullscreenenter"",""0"",""2717""
","
","
","""event"",""trial"",""time""
""fullscreenenter"",""0"",""2717""
","
","526.3000000007451","","","","","","","","49","0,0,1","2","highway","80","probe-174","0.49615244428340916","0.3000107105569723","0.6761688963072277","0","","","","","","","",""
"","html-keyboard-response","257","1030143","0.0-138.0-1.0","""event"",""trial"",""time""
""fullscreenenter"",""0"",""2717""
","
","
","""event"",""trial"",""time""
""fullscreenenter"",""0"",""2717""
","
","null","<p></p>","null","","","","","","","","","","","","","","","","","","","","","","",""
"","do_trial","258","1034909","0.0-139.0-0.0","""event"",""trial"",""time""
""fullscreenenter"",""0"",""2717""
","
","
","""event"",""trial"",""time""
""fullscreenenter"",""0"",""2717""
","
","221.39999999850988","","","","","","","","51","1,0,0","2","highway","81","probe-150","0.4973180412388091","0.1807477045247072","0.6055986509152871","0","","","","","","","",""
"","html-keyboard-response","259","1035912","0.0-139.0-1.0","""event"",""trial"",""time""
""fullscreenenter"",""0"",""2717""
","
","
","""event"",""trial"",""time""
""fullscreenenter"",""0"",""2717""
","
","null","<p></p>","null","","","","","","","","","","","","","","","","","","","","","","",""
"","do_trial","260","1040754","0.0-140.0-0.0","""event"",""trial"",""time""
""fullscreenenter"",""0"",""2717""
","
","
","""event"",""trial"",""time""
""fullscreenenter"",""0"",""2717""
","
","292.19999999925494","","","","","","","","51","1,1,0","2","highway","82","probe-193","0.3975650882658942","0.3926302052341689","0.5440110345488047","0","","","","","","","",""
"","html-keyboard-response","261","1041758","0.0-140.0-1.0","""event"",""trial"",""time""
""fullscreenenter"",""0"",""2717""
","
","
","""event"",""trial"",""time""
""fullscreenenter"",""0"",""2717""
","
","null","<p></p>","null","","","","","","","","","","","","","","","","","","","","","","",""
