success,trial_type,trial_index,time_elapsed,internal_node_id,rt,stimulus,key_press,subject_id,response,choice_outcomes,context_n,context_img_id,trial_n,probe_img_id,pR_red,pR_white,pR_black,outcome,is_valid,image_to_show,probed_trial,probed_context,correct,context_id
TRUE,fullscreen,0,6104,0.0-0.0,,,,,,,,,,,,,,,,,,,,
,pavlovia,1,6108,0.0-1.0,,,,,,,,,,,,,,,,,,,,
,html-keyboard-response,2,24133,0.0-2.0,18023.345,"<div class='center'><p>Welcome! This experiment will last ~1 hour. In this experiment, you are the head captain of a pirate ship traveling around the world to different places. You will complete several different tasks during this experiment. Here is an overview of these tasks:</p><br><p>1. Tutorial and quiz</p><p>2. Pick a pirate game in 6 different places</p><p>3. Pick a pirate game and memory game</p><p>4. Final questions and payment</p><br><p>If you complete the entire experiment, you will receive $15 and a possible bonus payment.</p><p><b>[Press the space bar to begin the tutorial]</b></p></div>",32,614108f77f02135189a295ec,,,,,,,,,,,,,,,,
,html-keyboard-response,3,59067,0.0-3.0,34933.475,"<div class='center'><p>You are the head captain of a pirate ship.</p><p> Your pirates rob other ships as they leave the marketplace port.</p> These ships have just sold all their goods at the marketplace, so they have lots and lots of gold on them.</p><p><img src='run_exp/static/images/ship_center.png' height='400'></p><p><b>[Press the space bar to continue]</b></p></div>",32,,,,,,,,,,,,,,,,,
,html-keyboard-response,4,84278,0.0-4.0,25209.475,"<div class='center'><p>As the head captain, you do not have to rob any ships yourself.</p><p>You get to choose which pirate you want to rob the next ship. </p><p>If they are successful at robbing the ship, then you will get gold coins.</p><p> If they are not successful, then you will get no gold coins.</p><p> The more coins you collect, the more bonus money you will win. So, choose your pirate wisely.</p><p><img src='run_exp/static/images/goal.png' height='400'></p><p><b>[Press the space bar to continue]</b></p><div>",32,,,,,,,,,,,,,,,,,
,html-keyboard-response,5,103290,0.0-5.0,19010.825,"<div class='center'><p>Even the most skilled pirate will not be able to rob EVERY ship.</p><p> Some ships will have very strong defenses against attacks.</p><p> For example, blue beard, here,  is very good at robbing ships.</p><p> You can press the <b>‘1’</b> button on the keyboard to choose him.</p><p> Try choosing him 10 times to see how often he is successful at robbing ships. </p><p><img src='run_exp/static/images/blue.png' height='500'></p></div>",49,,,,,,,,,,,,,,,,,
,html-keyboard-response,6,104792,0.0-6.0,null,<br><br><br><br><p><img src='run_exp/static/images/blue_win.png' height='500'></p>,null,,,,,,,,,,,,,,,,,
,html-keyboard-response,7,106698,0.0-7.0,1905.115,<br><br><br><br><p><img src='run_exp/static/images/blue.png' height='500'></p>,49,,,,,,,,,,,,,,,,,
,html-keyboard-response,8,108199,0.0-8.0,null,<br><br><br><br><p><img src='run_exp/static/images/blue_win.png' height='500'></p>,null,,,,,,,,,,,,,,,,,
,html-keyboard-response,9,109588,0.0-9.0,1388.03,<br><br><br><br><p><img src='run_exp/static/images/blue.png' height='500'></p>,49,,,,,,,,,,,,,,,,,
,html-keyboard-response,10,111092,0.0-10.0,null,<br><br><br><br><p><img src='run_exp/static/images/blue_win.png' height='500'></p>,null,,,,,,,,,,,,,,,,,
,html-keyboard-response,11,112053,0.0-11.0,959.8050001,<br><br><br><br><p><img src='run_exp/static/images/blue.png' height='500'></p>,49,,,,,,,,,,,,,,,,,
,html-keyboard-response,12,113559,0.0-12.0,null,<br><br><br><br><p><img src='run_exp/static/images/blue_no_win.png' height='500'></p>,null,,,,,,,,,,,,,,,,,
,html-keyboard-response,13,114278,0.0-13.0,717.6349999,<br><br><br><br><p><img src='run_exp/static/images/blue.png' height='500'></p>,49,,,,,,,,,,,,,,,,,
,html-keyboard-response,14,115784,0.0-14.0,null,<br><br><br><br><p><img src='run_exp/static/images/blue_win.png' height='500'></p>,null,,,,,,,,,,,,,,,,,
,html-keyboard-response,15,116387,0.0-15.0,602.6899999,<br><br><br><br><p><img src='run_exp/static/images/blue.png' height='500'></p>,49,,,,,,,,,,,,,,,,,
,html-keyboard-response,16,117894,0.0-16.0,null,<br><br><br><br><p><img src='run_exp/static/images/blue_win.png' height='500'></p>,null,,,,,,,,,,,,,,,,,
,html-keyboard-response,17,118292,0.0-17.0,397.9499999,<br><br><br><br><p><img src='run_exp/static/images/blue.png' height='500'></p>,49,,,,,,,,,,,,,,,,,
,html-keyboard-response,18,119796,0.0-18.0,null,<br><br><br><br><p><img src='run_exp/static/images/blue_win.png' height='500'></p>,null,,,,,,,,,,,,,,,,,
,html-keyboard-response,19,120300,0.0-19.0,502.8949999,<br><br><br><br><p><img src='run_exp/static/images/blue.png' height='500'></p>,49,,,,,,,,,,,,,,,,,
,html-keyboard-response,20,121802,0.0-20.0,null,<br><br><br><br><p><img src='run_exp/static/images/blue_no_win.png' height='500'></p>,null,,,,,,,,,,,,,,,,,
,html-keyboard-response,21,122194,0.0-21.0,391.0300001,<br><br><br><br><p><img src='run_exp/static/images/blue.png' height='500'></p>,49,,,,,,,,,,,,,,,,,
,html-keyboard-response,22,123701,0.0-22.0,null,<br><br><br><br><p><img src='run_exp/static/images/blue_win.png' height='500'></p>,null,,,,,,,,,,,,,,,,,
,html-keyboard-response,23,124028,0.0-23.0,325.98,<br><br><br><br><p><img src='run_exp/static/images/blue.png' height='500'></p>,49,,,,,,,,,,,,,,,,,
,html-keyboard-response,24,125534,0.0-24.0,null,<br><br><br><br><p><img src='run_exp/static/images/blue_win.png' height='500'></p>,null,,,,,,,,,,,,,,,,,
,html-keyboard-response,25,130462,0.0-25.0,4927.315,"<div class='center'><p> See, he was successful at robbing the ships most of the time but not every time. </p><p><b>[Press the space bar to continue]</b></p></div>",32,,,,,,,,,,,,,,,,,
,html-keyboard-response,26,142007,0.0-26.0,11544.42,"<div class='center'><p>In the game, you will get to choose which of three pirates you want to rob the next ship. <p>Press the <b>‘1’</b> button on your keyboard to pick the pirate with the red beard.</p><p> Press <b>‘2’</b> to pick the pirate with the white beard.</p><p> Press <b>‘3’</b> to pick the pirate with the black beard.</p><p>Try picking a pirate now!</p><p><img src='run_exp/static/images/all_pirates.png' height='500'></p></div>",51,,,,,,,,,,,,,,,,,
,html-keyboard-response,27,144982,0.0-27.0-0.0,2973.45,<div class='center'><p>This pirate was successful at robbing the ship!</p><p><img src='run_exp/static/images/black_win.png' height='500'></p><p><b>[Press the space bar to continue]</b></p></div>,32,,,,,,,,,,,,,,,,,
,html-keyboard-response,28,147537,0.0-27.0-1.0,2553.58,<div class='center'><p>Now try choosing another</p><p><img src='run_exp/static/images/all_pirates.png' height='500'></p></div>,49,,,,,,,,,,,,,,,,,
,html-keyboard-response,29,148847,0.0-28.0-0.0,1309.605,<div class='center'><p>This pirate was not successful at robbing the ship!</p><p><img src='run_exp/static/images/red_no_win.png' height='500'></p><p><b>[Press the space bar to continue]</b></p></div>,32,,,,,,,,,,,,,,,,,
,html-keyboard-response,30,162884,0.0-29.0-0.0,14035.79,<div class='center'><p>You’ll stop at these 6 places on your journey.</p><p><img src='run_exp/static/images/all_contexts.png' height='500'></p><p><b>[Press the space bar to continue]</b></p></div>,32,,,,,,,,,,,,,,,,,
,html-keyboard-response,31,174471,0.0-29.0-1.0,11586.56,"<div class='center'><p>How good a pirate is at robbing ships will depend on the current place.</p><p> Some pirates will have been to the place before, and will have more experience robbing ships there.</p><p>So, they will be more successful at stealing gold and bringing it back to you.</p><p><b>[Press the space bar to continue]</b></p></div>",32,,,,,,,,,,,,,,,,,
,html-keyboard-response,32,196580,0.0-29.0-2.0,22107.735,"<div class='center'><p>How successful a pirate is at robbing ships can also change in a place.<p> Ships may hear about the pirates coming and will improve their defenses. This may make it more difficult to rob them.</p><p> Ships may also grow lazy and lower their defenses. This may make it easier to rob them.</p><br><p>Things are always changing on the high seas! So, try your best to pay attention!</p><p><img src='run_exp/static/images/contingency.png' height='500'></p><p><b>[Press the space bar to continue]</b></p></div>",32,,,,,,,,,,,,,,,,,
,html-keyboard-response,33,239375,0.0-29.0-3.0,42793.765,"<div class='center'><p>Once you choose a pirate to rob a ship, you’ll be shown the ship they are robbing.</p><p>The ship will have a picture of the item they sold at the marketplace.</p><p> Try your best to remember the ship and where you saw the ship.</p><p> You’ll have to remember this for later, and remembering this correctly will help you win more bonus money!</p><p>You can remember the ship by remembering the item they sold at the marketplace</p><p>A helpful strategy is to try to come up with a story of the chosen pirate and ship’s item interacting with the scene.</p><p> For example, a ship might have sold travel mugs and you could imagine red beard walking through the city with a travel mug. </p><p>Or imagine an apple falling from a tree into white beard's hands in the forest.</p><p><img src='run_exp/static/images/example_probe.png' height='500'></p><p><b>[Press the space bar to continue]</b></p></div>",32,,,,,,,,,,,,,,,,,
,html-keyboard-response,34,246347,0.0-29.0-4.0,6971.175,"<div class='center'><p>If you don’t make your choice fast enough, you’ll have to wait a few seconds before you can make another one. </p><p>You can’t win more gold. You just have to sit and wait.</p><p><img src='run_exp/static/images/hurry_up.png' height='500'></p><p><b>[Press the space bar to continue]</b></p></div>",32,,,,,,,,,,,,,,,,,
,html-keyboard-response,35,284072,0.0-29.0-5.0,37724.215,"<div class='center'><p>Again, you have two important things to do: </p><b><p> 1. Pick the pirate who you think will be most successful at robbing the next ship.</p></b><b><p> 2. Remember where a pirate robbed a ship.</p> </b><p>Both are important in determining how much bonus money you’ll win.</p><br><p>Let’s try a practice game. The game will start by showing you the pirates. First pick a pirate using the <b> 1, 2, 3 </b> buttons on your keyboard. When you are shown a ship, try to remember the place you’re in by making up a story.</p><p> You only have 3 seconds to pick a pirate, so please make a choice quickly! If you are too slow, you’ll have to wait a bit during the time out.</p><p> Don’t feel rushed, but please do try to make a choice every time.</p><p>How good a pirate is at robbing a ship will change depending on the place they are in and how good the defenses are of the ship.</p> <p>This is just a practice game, so you’re not playing for money. </p><p>You’ll receive a bag which may or may not contain gold coins.</p><p> In the real game, though, you’ll be able to see whether or not you received the gold coins.</p><p> Good luck, remember press <b>'1'</b> to choose red beard, <b>'2'</b> to choose white beard, and <b>'3'</b> to choose black beard</p><p><b>[Press the space bar to begin the practice game]</b></p></div>",32,,,,,,,,,,,,,,,,,
,do_trial_prac,36,289425,0.0-29.0-6.0,842.35,,,,49,,,,,,,,,,,,,,,
,do_trial_prac,37,295594,0.0-29.0-7.0,1658.445,,,,51,,,,,,,,,,,,,,,
,do_trial_prac,38,301526,0.0-29.0-8.0,1423.305,,,,50,,,,,,,,,,,,,,,
,do_trial_prac,39,307101,0.0-29.0-9.0,1064.525,,,,49,,,,,,,,,,,,,,,
,do_trial_prac,40,312503,0.0-29.0-10.0,891.5599999,,,,51,,,,,,,,,,,,,,,
,html-keyboard-response,41,319070,0.0-29.0-11.0,6565.94,"<div class='center'><p>Great job on the practice game!</p><p> Now, you will be asked you some true or false questions to make sure you really understand the rules of the game.</p><p> Press <b>'1'</b> on the keyboard for true and press <b>'2'</b> for false.</p><p><b>[Press the space bar to begin the quiz]</b></p></div>",32,,,,,,,,,,,,,,,,,
,html-keyboard-response,42,322258,0.0-29.0-12.0,3187.06,<div class='center'><p>You win bonus money by making choices as fast as possible.</p><p>Press 1 for true and press  2 for false.</p></div>,50,,,,,,,,,,,,,,,,,
,html-keyboard-response,43,323314,0.0-30.0-0.0,1054.965,<br><br><br><br><p>That's correct!</p> <p><b>[press the space bar to continue with the quiz]</b></p>,32,,,,,,,,,,,,,,,,,
,html-keyboard-response,44,326117,0.0-30.0-1.0,2802.76,<div class='center'><p>You press the <b>‘3’</b> button on the keyboard to choose the red bearded pirate? </p><p>Press 1 for true and press  2 for false.</p></div>,50,,,,,,,,,,,,,,,,,
,html-keyboard-response,45,326875,0.0-31.0-0.0,756.85,<br><br><br><br><p>That's correct!</p> <p><b>[press the space bar to continue with the quiz]</b></p>,32,,,,,,,,,,,,,,,,,
,html-keyboard-response,46,330456,0.0-31.0-1.0,3580.72,<div class='center'><p>A pirate will always be equally successful at robbing ships in each place</p><p>Press 1 for true and press  2 for false.</p></div>,50,,,,,,,,,,,,,,,,,
,html-keyboard-response,47,331421,0.0-32.0-0.0,963.765,<br><br><br><br><p>That's correct!</p> <p><b>[press the space bar to continue with the quiz]</b></p>,32,,,,,,,,,,,,,,,,,
,html-keyboard-response,48,334775,0.0-32.0-1.0,3353.46,<div class='center'><p>You should remember the place where a pirate robbed a ship.</p><p>Press 1 for true and press  2 for false.</p></div>,49,,,,,,,,,,,,,,,,,
,html-keyboard-response,49,335639,0.0-33.0-0.0,855.2400002,<br><br><br><br><p>That's correct!</p> <p><b>[press the space bar to continue with the quiz]</b></p>,32,,,,,,,,,,,,,,,,,
,html-keyboard-response,50,337156,0.0-34.0-0.0,1515.275,<br><br><br><br><p>Good job! You’re now ready to move on to the real game!</p> <p><br>[press the space bar to begin!]</br></p>,32,,,,,,,,,,,,,,,,,
,do_welcome,51,338664,0.0-35.0-0.0,null,,,,null,,,,,,,,,,,,,,,
,do_trial,52,345172,0.0-36.0-0.0,961.2700001,,,,49,"1,0,0",0,highway,0,probe-145,1,0.4,0.1,1,,,,,,
,do_trial,53,351803,0.0-37.0-0.0,1080.85,,,,51,"1,1,0",0,highway,1,probe-199,1,0.386012097,0.082555743,0,,,,,,
,do_trial,54,358462,0.0-38.0-0.0,1112.38,,,,50,"1,0,1",0,highway,2,probe-05,1,0.442911211,0.170560534,0,,,,,,
,do_trial,55,364586,0.0-39.0-0.0,577.2149998,,,,49,"1,0,0",0,highway,3,probe-48,1,0.438931,0.24420826,1,,,,,,
,do_trial,56,370814,0.0-40.0-0.0,681.5549999,,,,49,"1,0,1",0,highway,4,probe-222,0.876494558,0.364506277,0.211531272,1,,,,,,
,do_trial,57,377485,0.0-41.0-0.0,1125.505,,,,49,"1,1,0",0,highway,5,probe-45,0.742037181,0.350860807,0.267660725,1,,,,,,
,do_trial,58,384206,0.0-42.0-0.0,1171.48,,,,49,"1,0,0",0,highway,6,probe-01,0.796929875,0.243319668,0.212080192,1,,,,,,
,do_trial,59,390436,0.0-43.0-0.0,685.0399999,,,,49,"1,0,0",0,highway,7,probe-185,0.858646597,0.295304752,0.395448187,1,,,,,,
,do_trial,60,396466,0.0-44.0-0.0,485.1549999,,,,49,"1,0,0",0,highway,8,probe-101,0.679861335,0.263296707,0.206303563,1,,,,,,
,do_trial,61,402842,0.0-45.0-0.0,828.375,,,,51,"1,0,0",0,highway,9,probe-106,0.638702229,0.358687197,0.21112801,0,,,,,,
,do_trial,62,408770,0.0-46.0-0.0,383.7850001,,,,49,"0,0,0",0,highway,10,probe-78,0.428787902,0.530326536,0.153164119,0,,,,,,
,do_trial,63,414839,0.0-47.0-0.0,520.2299999,,,,49,"0,1,0",0,highway,11,probe-73,0.277289341,0.588808951,0.306647367,0,,,,,,
,do_trial,64,420781,0.0-48.0-0.0,392.18,,,,50,"0,1,0",0,highway,12,probe-141,0.109469159,0.611117389,0.18912906,1,,,,,,
,do_trial,65,426860,0.0-49.0-0.0,533.1349999,,,,50,"0,0,1",0,highway,13,probe-19,0.078440452,0.672934959,0.248911772,0,,,,,,
,do_trial,66,432918,0.0-50.0-0.0,508.5100001,,,,51,"0,1,0",0,highway,14,probe-121,0.104833623,0.58400066,0.294735467,0,,,,,,
,do_trial,67,438967,0.0-51.0-0.0,499.6400001,,,,49,"0,0,0",0,highway,15,probe-28,0.16402192,0.719807607,0.419347056,0,,,,,,
,do_trial,68,444929,0.0-52.0-0.0,414.5150001,,,,49,"1,1,1",0,highway,16,probe-180,0.221683233,0.940154211,0.394735138,1,,,,,,
,do_trial,69,451153,0.0-53.0-0.0,679.18,,,,49,"0,1,0",0,highway,17,probe-40,0.125485097,0.904737164,0.330427626,0,,,,,,
,do_trial,70,458464,0.0-54.0-0.0,1763.805,,,,49,"0,1,0",0,highway,18,probe-166,0.066446826,0.766073452,0.471935436,0,,,,,,
,do_trial,71,465893,0.0-55.0-0.0,1880.06,,,,49,"0,1,0",0,highway,19,probe-209,0.084885508,0.782360149,0.507826677,0,,,,,,
,do_trial,72,472577,0.0-56.0-0.0,1135.535,,,,50,"0,1,1",0,highway,20,probe-35,0.210357757,0.823932301,0.473837329,1,,,,,,
,do_trial,73,480090,0.0-57.0-0.0,1964.06,,,,50,"0,1,0",0,highway,21,probe-117,0.093907801,0.864408347,0.551905124,1,,,,,,
,do_trial,74,486022,0.0-58.0-0.0,384.3500002,,,,50,"1,1,0",0,highway,22,probe-237,0.085349082,0.73184377,0.498188123,1,,,,,,
,do_trial,75,492035,0.0-59.0-0.0,464.9350001,,,,50,"0,0,0",0,highway,23,probe-34,0.140309219,0.844162077,0.504281262,0,,,,,,
,do_trial,76,497965,0.0-60.0-0.0,384.635,,,,50,"0,1,0",0,highway,24,probe-116,0.055749813,0.912552091,0.562745934,1,,,,,,
,do_trial,77,504353,0.0-61.0-0.0,838.77,,,,50,"1,1,1",0,highway,25,probe-59,0.115869409,0.739764481,0.461958812,1,,,,,,
,do_trial,78,510349,0.0-62.0-0.0,446.8650001,,,,50,"0,0,1",0,highway,26,probe-150,0.251974045,0.663878066,0.504487208,0,,,,,,
,do_trial,79,516628,0.0-63.0-0.0,730.5700001,,,,49,"0,1,1",0,highway,27,probe-217,0.218194151,0.83148918,0.560787585,0,,,,,,
,do_trial,80,522686,0.0-64.0-0.0,513.97,,,,51,"0,0,0",0,highway,28,probe-57,0.261633504,0.839804005,0.457251269,0,,,,,,
,do_trial,81,528665,0.0-65.0-0.0,432.1349999,,,,50,"0,1,0",0,highway,29,probe-49,0.262477082,0.799791424,0.418282651,1,,,,,,
,do_trial,82,534842,0.0-66.0-0.0,632.4400001,,,,50,"0,1,1",0,highway,30,probe-155,0.140704644,0.712605617,0.440469835,1,,,,,,
,do_trial,83,541516,0.0-67.0-0.0,1129.665,,,,50,"0,1,0",0,highway,31,probe-51,0.053954093,0.740744813,0.320339168,1,,,,,,
,do_trial,84,547639,0.0-68.0-0.0,578.1450002,,,,50,"0,1,1",0,highway,32,probe-220,0.101916557,0.833380822,0.34393135,1,,,,,,
,do_trial,85,553774,0.0-69.0-0.0,586.0149998,,,,50,"0,0,1",0,highway,33,probe-153,0.167489866,0.840787626,0.459073735,0,,,,,,
,do_trial,86,560184,0.0-70.0-0.0,863.9700001,,,,49,"0,1,0",0,highway,34,probe-83,0.056877454,0.769403523,0.469645469,0,,,,,,
,do_trial,87,566107,0.0-71.0-0.0,373.2650001,,,,49,"0,1,1",0,highway,35,probe-162,0.053257697,0.708591344,0.484769445,0,,,,,,
,do_trial,88,571902,0.0-72.0-0.0,246.0099999,,,,50,"0,1,0",0,highway,36,probe-81,0.067875035,0.669373734,0.628806911,1,,,,,,
,do_trial,89,577720,0.0-73.0-0.0,268.2400001,,,,50,"0,1,1",0,highway,37,probe-177,0.170573181,0.795589065,0.743803251,1,,,,,,
,do_trial,90,584119,0.0-74.0-0.0,853.7600001,,,,50,"0,0,0",0,highway,38,probe-32,0.138147131,0.766187356,0.435490414,0,,,,,,
,do_trial,91,590065,0.0-75.0-0.0,397.0850001,,,,49,"1,0,1",0,highway,39,probe-104,0.199733181,0.682742601,0.348945753,1,,,,,,
,do_bye,92,591576,0.0-76.0-0.0,null,,,,null,,,,,,,,,,,,,,,
,do_travel,93,597583,0.0-77.0-0.0,null,,,,null,,,,,,,,,,,,,,,
,do_welcome,94,599091,0.0-77.0-1.0,null,,,,null,,,,,,,,,,,,,,,
,do_trial,95,605715,0.0-78.0-0.0,1079.615,,,,50,"0,1,1",1,mountain,40,probe-105,0.211865902,1,0.293575486,1,,,,,,
,do_trial,96,612460,0.0-79.0-0.0,1197.55,,,,51,"0,1,0",1,mountain,41,probe-77,0.263779244,1,0.285018406,0,,,,,,
,do_trial,97,618263,0.0-80.0-0.0,256.6849999,,,,50,"1,1,0",1,mountain,42,probe-64,0.147974537,1,0.364868366,1,,,,,,
,do_trial,98,624235,0.0-81.0-0.0,424.84,,,,50,"0,1,0",1,mountain,43,probe-33,0.25624674,1,0.407002345,1,,,,,,
,do_trial,99,630358,0.0-82.0-0.0,576.0849998,,,,50,"0,1,1",1,mountain,44,probe-175,0.182177229,0.852413366,0.569085576,1,,,,,,
,do_trial,100,636234,0.0-83.0-0.0,331.7999998,,,,50,"0,1,0",1,mountain,45,probe-71,0.123599459,0.820172894,0.374076635,1,,,,,,
,do_trial,101,642162,0.0-84.0-0.0,379.0550001,,,,50,"0,1,0",1,mountain,46,probe-18,0.136958659,0.837832758,0.491047618,1,,,,,,
,do_trial,102,648388,0.0-85.0-0.0,677.1600002,,,,50,"0,1,0",1,mountain,47,probe-165,0.18510443,0.821642156,0.301483213,1,,,,,,
,do_trial,103,654530,0.0-86.0-0.0,593.0350001,,,,50,"0,1,0",1,mountain,48,probe-89,0.052231843,0.760839336,0.280558607,1,,,,,,
,do_trial,104,660757,0.0-87.0-0.0,678.5899999,,,,50,"0,1,1",1,mountain,49,probe-193,0.095677255,0.807389765,0.317563108,1,,,,,,
,do_trial,105,667038,0.0-88.0-0.0,732.0899998,,,,50,"1,1,1",1,mountain,50,probe-88,0.143255414,0.584988917,0.568406618,1,,,,,,
,do_trial,106,673159,0.0-89.0-0.0,576.9149999,,,,50,"1,1,1",1,mountain,51,probe-157,0.185273977,0.437699212,0.748143125,1,,,,,,
,do_trial,107,679355,0.0-90.0-0.0,646.3649999,,,,50,"1,0,1",1,mountain,52,probe-135,0.1873495,0.339382669,0.711204544,0,,,,,,
,do_trial,108,685462,0.0-91.0-0.0,558.805,,,,49,"1,0,1",1,mountain,53,probe-29,0.400448181,0.164898065,0.706827543,1,,,,,,
,do_trial,109,691594,0.0-92.0-0.0,586.8499998,,,,49,"0,0,0",1,mountain,54,probe-130,0.286688621,0.117965453,0.736773624,0,,,,,,
,do_trial,110,697485,0.0-93.0-0.0,342.1400001,,,,49,"0,0,1",1,mountain,55,probe-43,0.185880815,0.191368007,0.873137208,0,,,,,,
,do_trial,111,703386,0.0-94.0-0.0,355.34,,,,51,"0,0,1",1,mountain,56,probe-164,0.334975102,0.104161189,0.855874583,1,,,,,,
,do_trial,112,709361,0.0-95.0-0.0,426.67,,,,51,"0,0,1",1,mountain,57,probe-26,0.227844826,0.294238168,0.729504049,1,,,,,,
,do_trial,113,715334,0.0-96.0-0.0,423.555,,,,51,"0,1,1",1,mountain,58,probe-55,0.378660864,0.273553856,0.702523604,1,,,,,,
,do_trial,114,721378,0.0-97.0-0.0,497.1950001,,,,51,"0,0,1",1,mountain,59,probe-146,0.373505023,0.211878801,0.844128348,1,,,,,,
,do_trial,115,727259,0.0-98.0-0.0,331.2049999,,,,51,"1,1,1",1,mountain,60,probe-31,0.506306977,0.204827412,0.877465336,1,,,,,,
,do_trial,116,733469,0.0-99.0-0.0,664.7299998,,,,51,"1,0,1",1,mountain,61,probe-195,0.625493222,0.06590746,0.795909789,1,,,,,,
,do_trial,117,739382,0.0-100.0-0.0,363.475,,,,51,"0,0,1",1,mountain,62,probe-97,0.528732323,0.109243372,0.833903538,1,,,,,,
,do_trial,118,745576,0.0-101.0-0.0,644.8550001,,,,51,"0,0,1",1,mountain,63,probe-125,0.46690743,0.207848943,0.942090179,1,,,,,,
,do_trial,119,751689,0.0-102.0-0.0,563.42,,,,51,"1,0,1",1,mountain,64,probe-160,0.552019934,0.194352674,0.827158721,1,,,,,,
,do_trial,120,757661,0.0-103.0-0.0,424.655,,,,51,"1,0,1",1,mountain,65,probe-182,0.559124142,0.101883081,0.759700643,1,,,,,,
,do_trial,121,763789,0.0-104.0-0.0,578.8,,,,51,"1,0,1",1,mountain,66,probe-41,0.475423696,0.055348892,0.777810341,1,,,,,,
,do_trial,122,770158,0.0-105.0-0.0,821.6049999,,,,51,"0,0,1",1,mountain,67,probe-10,0.33226465,0.054941397,0.747317527,1,,,,,,
,do_trial,123,776100,0.0-106.0-0.0,398.0150002,,,,51,"0,0,1",1,mountain,68,probe-21,0.321530441,0.126333846,0.753029755,1,,,,,,
,do_trial,124,782053,0.0-107.0-0.0,404.0300001,,,,51,"0,0,0",1,mountain,69,probe-27,0.278157698,0.106790743,0.659923266,0,,,,,,
,do_trial,125,788046,0.0-108.0-0.0,445.3100001,,,,51,"0,0,1",1,mountain,70,probe-12,0.214822136,0.160096799,0.656409967,1,,,,,,
,do_trial,126,794069,0.0-109.0-0.0,474.075,,,,51,"0,0,1",1,mountain,71,probe-172,0.284799226,0.07033697,0.731072737,1,,,,,,
,do_trial,127,800070,0.0-110.0-0.0,451.69,,,,51,"1,1,1",1,mountain,72,probe-04,0.422370291,0.138676371,0.739237555,1,,,,,,
,do_trial,128,806266,0.0-111.0-0.0,649.585,,,,51,"0,0,1",1,mountain,73,probe-204,0.480544782,0.217300128,0.874460098,1,,,,,,
,do_trial,129,812238,0.0-112.0-0.0,422.0700001,,,,51,"1,1,1",1,mountain,74,probe-174,0.437364763,0.222256991,0.889066929,1,,,,,,
,do_trial,130,818208,0.0-113.0-0.0,420.6749999,,,,51,"1,0,1",1,mountain,75,probe-67,0.441996531,0.206447918,0.918585737,1,,,,,,
,do_trial,131,824154,0.0-114.0-0.0,397.8249999,,,,51,"0,0,1",1,mountain,76,probe-200,0.32806895,0.221532124,0.906694668,1,,,,,,
,do_trial,132,830173,0.0-115.0-0.0,470.615,,,,51,"0,0,1",1,mountain,77,probe-156,0.406953277,0.261137405,0.776692162,1,,,,,,
,do_trial,133,836301,0.0-116.0-0.0,581.3199999,,,,51,"0,0,0",1,mountain,78,probe-215,0.497397174,0.223680404,0.784937777,0,,,,,,
,do_trial,134,842217,0.0-117.0-0.0,366.3999999,,,,51,"0,0,1",1,mountain,79,probe-202,0.457741375,0.059458228,0.867030765,1,,,,,,
,do_bye,135,843724,0.0-118.0-0.0,null,,,,null,,,,,,,,,,,,,,,
,do_travel,136,849731,0.0-119.0-0.0,null,,,,null,,,,,,,,,,,,,,,
,do_welcome,137,851241,0.0-119.0-1.0,null,,,,null,,,,,,,,,,,,,,,
,do_trial,138,857760,0.0-120.0-0.0,970.3249999,,,,51,"0,0,1",2,forest,80,probe-122,0.505396562,0.078998244,1,1,,,,,,
,do_trial,139,863613,0.0-121.0-0.0,308.06,,,,51,"0,0,1",2,forest,81,probe-17,0.435276381,0.127902198,1,1,,,,,,
,do_trial,140,869646,0.0-122.0-0.0,485.4849998,,,,51,"1,1,1",2,forest,82,probe-22,0.356601368,0.119406848,1,1,,,,,,
,do_trial,141,875749,0.0-123.0-0.0,555.615,,,,51,"1,0,1",2,forest,83,probe-66,0.321330002,0.129755947,1,1,,,,,,
,do_trial,142,881708,0.0-124.0-0.0,409.5999999,,,,51,"0,0,1",2,forest,84,probe-219,0.426591466,0.070881798,0.899236848,1,,,,,,
,do_trial,143,887684,0.0-125.0-0.0,426.67,,,,51,"0,0,1",2,forest,85,probe-159,0.396559617,0.076956565,0.939066666,1,,,,,,
,do_trial,144,893988,0.0-126.0-0.0,755.535,,,,51,"0,0,0",2,forest,86,probe-194,0.305386266,0.102879672,0.761873962,0,,,,,,
,do_trial,145,899914,0.0-127.0-0.0,377.145,,,,51,"0,0,1",2,forest,87,probe-144,0.370784426,0.203366033,0.757836154,1,,,,,,
,do_trial,146,905866,0.0-128.0-0.0,407.5500001,,,,51,"0,1,1",2,forest,88,probe-68,0.400762739,0.138382407,0.862468894,1,,,,,,
,do_trial,147,912092,0.0-129.0-0.0,676.5100001,,,,51,"0,0,1",2,forest,89,probe-187,0.369005912,0.072976829,0.832771981,1,,,,,,
,do_trial,148,918151,0.0-130.0-0.0,513,,,,51,"0,0,1",2,forest,90,probe-54,0.461115635,0.0515355,0.638696478,1,,,,,,
,do_trial,149,924102,0.0-131.0-0.0,402.15,,,,51,"0,0,1",2,forest,91,probe-169,0.470148693,0.154047269,0.560499535,1,,,,,,
,do_trial,150,930151,0.0-132.0-0.0,505.105,,,,51,"0,0,1",2,forest,92,probe-213,0.659673375,0.126215796,0.469837808,1,,,,,,
,do_trial,151,936215,0.0-133.0-0.0,517.3899999,,,,51,"1,1,1",2,forest,93,probe-147,0.868878559,0.128747923,0.443750174,1,,,,,,
,do_trial,152,942177,0.0-134.0-0.0,414.165,,,,51,"1,0,0",2,forest,94,probe-205,0.797126825,0.219959268,0.60197282,0,,,,,,
,do_trial,153,948037,0.0-135.0-0.0,315.3899999,,,,51,"1,0,0",2,forest,95,probe-38,0.887742494,0.219225812,0.531195535,0,,,,,,
,do_trial,154,953873,0.0-136.0-0.0,287.12,,,,50,"1,0,1",2,forest,96,probe-176,0.755669452,0.075142556,0.351240344,0,,,,,,
,do_trial,155,959736,0.0-137.0-0.0,312.0849999,,,,49,"1,0,1",2,forest,97,probe-06,0.786901041,0.062608104,0.333829373,1,,,,,,
,do_trial,156,965825,0.0-138.0-0.0,542.075,,,,49,"1,0,0",2,forest,98,probe-109,0.780148453,0.133366015,0.459211146,1,,,,,,
,do_trial,157,971740,0.0-139.0-0.0,368.3849999,,,,49,"1,0,1",2,forest,99,probe-15,0.736025882,0.113264956,0.451123154,1,,,,,,
,do_trial,158,977805,0.0-140.0-0.0,515.325,,,,49,"0,0,1",2,forest,100,probe-228,0.639079112,0.12519001,0.499761436,0,,,,,,
,do_trial,159,983691,0.0-141.0-0.0,339.1150001,,,,49,"0,0,1",2,forest,101,probe-232,0.715652132,0.06164556,0.478450198,0,,,,,,
,do_trial,160,989620,0.0-142.0-0.0,379.3549999,,,,51,"0,0,0",2,forest,102,probe-115,0.778584168,0.088021464,0.425319646,0,,,,,,
,do_trial,161,995557,0.0-143.0-0.0,391.3,,,,51,"1,1,0",2,forest,103,probe-158,0.816044822,0.115690407,0.393411871,0,,,,,,
,do_trial,162,1001393,0.0-144.0-0.0,291.28,,,,50,"1,1,0",2,forest,104,probe-218,0.867174806,0.183338617,0.411982497,1,,,,,,
,do_trial,163,1007328,0.0-145.0-0.0,385.1749999,,,,50,"0,0,0",2,forest,105,probe-72,0.75325826,0.075036482,0.443649766,0,,,,,,
,do_trial,164,1013214,0.0-146.0-0.0,340.8949999,,,,50,"1,0,1",2,forest,106,probe-173,0.798683544,0.192426652,0.454634826,0,,,,,,
,do_trial,165,1019211,0.0-147.0-0.0,450.3250001,,,,51,"1,1,0",2,forest,107,probe-178,0.710109368,0.191850546,0.298575322,0,,,,,,
,do_trial,166,1025152,0.0-148.0-0.0,391.79,,,,49,"1,0,0",2,forest,108,probe-149,0.758838747,0.150128994,0.268458531,1,,,,,,
,do_trial,167,1031191,0.0-149.0-0.0,488.9550002,,,,49,"0,0,1",2,forest,109,probe-133,0.754798073,0.196559685,0.157606826,0,,,,,,
,do_trial,168,1037558,0.0-150.0-0.0,817.605,,,,51,"0,0,1",2,forest,110,probe-136,0.71489352,0.05176216,0.167716796,1,,,,,,
,do_trial,169,1043519,0.0-151.0-0.0,414.355,,,,51,"1,0,0",2,forest,111,probe-179,0.722592793,0.075521645,0.210205394,0,,,,,,
,do_trial,170,1049450,0.0-152.0-0.0,383.3349999,,,,50,"0,0,0",2,forest,112,probe-91,0.766772406,0.065884618,0.120915412,0,,,,,,
,do_trial,171,1055404,0.0-153.0-0.0,404.94,,,,49,"1,0,0",2,forest,113,probe-69,0.733329704,0.065355998,0.249998712,1,,,,,,
,do_trial,172,1061265,0.0-154.0-0.0,310.8999999,,,,50,"0,0,0",2,forest,114,probe-82,0.748779471,0.091086434,0.330652143,0,,,,,,
,do_trial,173,1067288,0.0-155.0-0.0,477.2399999,,,,49,"1,0,0",2,forest,115,probe-198,0.773898337,0.101858571,0.438621068,1,,,,,,
,do_trial,174,1073291,0.0-156.0-0.0,456.915,,,,49,"0,1,0",2,forest,116,probe-229,0.679862521,0.116852733,0.419395589,0,,,,,,
,do_trial,175,1079258,0.0-157.0-0.0,419.795,,,,50,"0,0,1",2,forest,117,probe-203,0.791282016,0.17815439,0.339424371,0,,,,,,
,do_trial,176,1085221,0.0-158.0-0.0,413.345,,,,51,"1,0,1",2,forest,118,probe-226,0.688840398,0.207890127,0.334196166,1,,,,,,
,do_trial,177,1091359,0.0-159.0-0.0,589.4899999,,,,51,"1,0,1",2,forest,119,probe-225,0.640194113,0.112520026,0.298711626,1,,,,,,
,do_bye,178,1092867,0.0-160.0-0.0,null,,,,null,,,,,,,,,,,,,,,
,do_travel,179,1098875,0.0-161.0-0.0,null,,,,null,,,,,,,,,,,,,,,
,do_welcome,180,1100383,0.0-161.0-1.0,null,,,,null,,,,,,,,,,,,,,,
,do_trial,181,1107129,0.0-162.0-0.0,1202.135,,,,50,"1,0,0",3,countryside,120,probe-70,1,0.102852117,0.245296699,0,,,,,,
,do_trial,182,1113047,0.0-163.0-0.0,368.89,,,,51,"1,0,1",3,countryside,121,probe-216,1,0.107164974,0.335550223,1,,,,,,
,do_trial,183,1119281,0.0-164.0-0.0,684.4499998,,,,51,"1,0,0",3,countryside,122,probe-100,1,0.188357695,0.272746192,0,,,,,,
,do_trial,184,1125862,0.0-165.0-0.0,1033.22,,,,51,"1,0,1",3,countryside,123,probe-09,1,0.318055374,0.346930072,1,,,,,,
,do_trial,185,1131881,0.0-166.0-0.0,469.1250001,,,,51,"1,0,0",3,countryside,124,probe-02,0.78220422,0.251157853,0.494411679,0,,,,,,
,do_trial,186,1137762,0.0-167.0-0.0,335.1,,,,49,"1,0,1",3,countryside,125,probe-75,0.919592368,0.204417514,0.399494451,1,,,,,,
,do_trial,187,1143801,0.0-168.0-0.0,491.9099999,,,,49,"1,1,0",3,countryside,126,probe-113,0.822822277,0.220702861,0.37240224,1,,,,,,
,do_trial,188,1149693,0.0-169.0-0.0,343.5450001,,,,49,"1,0,0",3,countryside,127,probe-80,0.878308486,0.128022866,0.378535661,1,,,,,,
,do_trial,189,1155627,0.0-170.0-0.0,388.7250002,,,,49,"1,1,0",3,countryside,128,probe-61,0.817651681,0.175184044,0.381487828,1,,,,,,
,do_trial,190,1161750,0.0-171.0-0.0,573.015,,,,49,"1,1,0",3,countryside,129,probe-168,0.689376035,0.152248298,0.465745672,1,,,,,,
,do_trial,191,1167871,0.0-172.0-0.0,574.5949999,,,,49,"1,1,1",3,countryside,130,probe-124,0.732604548,0.276830042,0.417588126,1,,,,,,
,do_trial,192,1174071,0.0-173.0-0.0,654.695,,,,49,"0,1,0",3,countryside,131,probe-127,0.513188749,0.45333347,0.286221456,0,,,,,,
,do_trial,193,1180047,0.0-174.0-0.0,426.5350001,,,,49,"0,1,0",3,countryside,132,probe-86,0.443240582,0.567312828,0.264554104,0,,,,,,
,do_trial,194,1185914,0.0-175.0-0.0,321.365,,,,51,"0,0,1",3,countryside,133,probe-60,0.355321187,0.67791388,0.091157536,1,,,,,,
,do_trial,195,1191975,0.0-176.0-0.0,516.18,,,,51,"1,1,0",3,countryside,134,probe-42,0.370117609,0.691490787,0.086861052,0,,,,,,
,do_trial,196,1197812,0.0-177.0-0.0,289.685,,,,50,"1,1,0",3,countryside,135,probe-114,0.300985004,0.764347479,0.213379547,1,,,,,,
,do_trial,197,1203750,0.0-178.0-0.0,388.8349999,,,,50,"0,1,0",3,countryside,136,probe-76,0.416605056,0.893130034,0.071904782,1,,,,,,
,do_trial,198,1209733,0.0-179.0-0.0,438.2099998,,,,50,"0,1,0",3,countryside,137,probe-110,0.424174007,0.802002473,0.133297477,1,,,,,,
,do_trial,199,1215909,0.0-180.0-0.0,628.3550002,,,,50,"0,1,0",3,countryside,138,probe-102,0.44626628,0.80040399,0.113985499,1,,,,,,
,do_trial,200,1222108,0.0-181.0-0.0,651.7350001,,,,50,"1,0,0",3,countryside,139,probe-181,0.401622534,0.776682541,0.080013676,0,,,,,,
,do_trial,201,1228137,0.0-182.0-0.0,479.915,,,,50,"0,1,0",3,countryside,140,probe-151,0.391592273,0.745247588,0.07995654,1,,,,,,
,do_trial,202,1234066,0.0-183.0-0.0,381.4000001,,,,50,"0,1,0",3,countryside,141,probe-111,0.334050082,0.701378333,0.117948176,1,,,,,,
,do_trial,203,1240026,0.0-184.0-0.0,410.7949999,,,,50,"1,0,1",3,countryside,142,probe-170,0.287275417,0.78428756,0.086725609,0,,,,,,
,do_trial,204,1245926,0.0-185.0-0.0,350.7050001,,,,50,"0,0,0",3,countryside,143,probe-207,0.333498375,0.712126127,0.082991571,0,,,,,,
,do_trial,205,1251823,0.0-186.0-0.0,350.36,,,,51,"0,1,0",3,countryside,144,probe-192,0.337839432,0.691578916,0.142141363,0,,,,,,
,do_trial,206,1257778,0.0-187.0-0.0,404.9450001,,,,49,"0,1,0",3,countryside,145,probe-96,0.231791023,0.728011075,0.107680255,0,,,,,,
,do_trial,207,1263600,0.0-188.0-0.0,274.9400001,,,,50,"1,1,0",3,countryside,146,probe-140,0.307168016,0.923771611,0.095870301,1,,,,,,
,do_trial,208,1269587,0.0-189.0-0.0,442.3450001,,,,50,"0,0,0",3,countryside,147,probe-167,0.320065659,0.769815239,0.181553232,0,,,,,,
,do_trial,209,1276162,0.0-190.0-0.0,1025.35,,,,50,"0,1,1",3,countryside,148,probe-211,0.372294424,0.853793898,0.11902334,1,,,,,,
,do_trial,210,1282070,0.0-191.0-0.0,360.2499999,,,,50,"0,1,0",3,countryside,149,probe-94,0.256304694,0.934922524,0.172463004,1,,,,,,
,do_trial,211,1288049,0.0-192.0-0.0,431.08,,,,50,"0,1,0",3,countryside,150,probe-148,0.191597485,0.862224154,0.116354886,1,,,,,,
,do_trial,212,1294036,0.0-193.0-0.0,443.0199999,,,,50,"1,1,0",3,countryside,151,probe-120,0.244549731,0.725339752,0.149012055,1,,,,,,
,do_trial,213,1300030,0.0-194.0-0.0,448.96,,,,50,"0,0,1",3,countryside,152,probe-107,0.334365428,0.791403878,0.165004327,0,,,,,,
,do_trial,214,1306082,0.0-195.0-0.0,507.985,,,,49,"0,1,0",3,countryside,153,probe-37,0.352115618,0.83441815,0.153859013,0,,,,,,
,do_trial,215,1312030,0.0-196.0-0.0,398.8300001,,,,51,"0,1,0",3,countryside,154,probe-07,0.350515503,0.845893559,0.179450532,0,,,,,,
,do_trial,216,1317955,0.0-197.0-0.0,375.025,,,,50,"1,1,0",3,countryside,155,probe-118,0.363597131,0.807153066,0.091509052,1,,,,,,
,do_trial,217,1324396,0.0-198.0-0.0,891.9200001,,,,50,"1,1,0",3,countryside,156,probe-132,0.377016442,0.822189905,0.057045957,1,,,,,,
,do_trial,218,1330521,0.0-199.0-0.0,576.3849998,,,,50,"0,0,0",3,countryside,157,probe-85,0.378545849,0.839762445,0.073663502,0,,,,,,
,do_trial,219,1336435,0.0-200.0-0.0,364.6750001,,,,50,"1,1,0",3,countryside,158,probe-191,0.507387789,0.744070579,0.195023403,1,,,,,,
,do_trial,220,1342605,0.0-201.0-0.0,621.2150001,,,,50,"0,1,0",3,countryside,159,probe-119,0.250403749,0.675027148,0.216731955,1,,,,,,
,do_bye,221,1344112,0.0-202.0-0.0,null,,,,null,,,,,,,,,,,,,,,
,do_travel,222,1350115,0.0-203.0-0.0,null,,,,null,,,,,,,,,,,,,,,
,do_welcome,223,1351621,0.0-203.0-1.0,null,,,,null,,,,,,,,,,,,,,,
,do_trial,224,1358661,0.0-204.0-0.0,1493.585,,,,49,"1,1,0",4,city,160,probe-238,0.206206797,1,0.293413036,1,,,,,,
,do_trial,225,1364988,0.0-205.0-0.0,779.905,,,,49,"0,1,0",4,city,161,probe-123,0.166124852,1,0.140481126,0,,,,,,
,do_trial,226,1371472,0.0-206.0-0.0,939.145,,,,49,"0,1,0",4,city,162,probe-183,0.174965138,1,0.297321422,0,,,,,,
,do_trial,227,1377645,0.0-207.0-0.0,624.3799999,,,,51,"1,1,0",4,city,163,probe-65,0.31684154,1,0.276019191,0,,,,,,
,do_trial,228,1383652,0.0-208.0-0.0,458.4100002,,,,50,"0,1,0",4,city,164,probe-231,0.287826244,0.904711399,0.198216382,1,,,,,,
,do_trial,229,1390017,0.0-209.0-0.0,819.7000001,,,,50,"0,1,0",4,city,165,probe-230,0.343323654,0.878239071,0.265040644,1,,,,,,
,do_trial,230,1396392,0.0-210.0-0.0,828.2450002,,,,50,"0,1,0",4,city,166,probe-186,0.317320196,0.833704901,0.340800063,1,,,,,,
,do_trial,231,1402770,0.0-211.0-0.0,829.3250001,,,,50,"0,1,1",4,city,167,probe-240,0.400322911,0.875538358,0.24253616,1,,,,,,
,do_trial,232,1408773,0.0-212.0-0.0,454.745,,,,50,"0,1,0",4,city,168,probe-46,0.38083612,0.878423339,0.139835615,1,,,,,,
,do_trial,233,1414838,0.0-213.0-0.0,519.0399999,,,,50,"0,0,0",4,city,169,probe-239,0.30125266,0.727469136,0.218156987,0,,,,,,
,do_trial,234,1420779,0.0-214.0-0.0,393.07,,,,50,"0,1,0",4,city,170,probe-74,0.322836926,0.435166595,0.318427781,1,,,,,,
,do_trial,235,1426713,0.0-215.0-0.0,385.06,,,,50,"0,1,1",4,city,171,probe-56,0.364756477,0.268290407,0.70482004,1,,,,,,
,do_trial,236,1432735,0.0-216.0-0.0,476.5049999,,,,50,"1,0,0",4,city,172,probe-44,0.380634469,0.202155304,0.796181519,0,,,,,,
,do_trial,237,1439240,0.0-217.0-0.0,956.5300001,,,,50,"0,0,1",4,city,173,probe-11,0.416264896,0.197533426,0.820234237,0,,,,,,
,do_trial,238,1445203,0.0-218.0-0.0,413.8549999,,,,49,"1,0,1",4,city,174,probe-236,0.417038101,0.063269364,0.848272456,1,,,,,,
,do_trial,239,1451350,0.0-219.0-0.0,597.0949999,,,,49,"0,0,1",4,city,175,probe-93,0.327224865,0.051438871,0.794659812,0,,,,,,
,do_trial,240,1457463,0.0-220.0-0.0,564.2049999,,,,50,"0,0,1",4,city,176,probe-142,0.33660978,0.113805319,0.705790486,0,,,,,,
,do_trial,241,1463351,0.0-221.0-0.0,343.5449998,,,,50,"0,0,1",4,city,177,probe-58,0.32668408,0.241164998,0.593357309,0,,,,,,
,do_trial,242,1469403,0.0-222.0-0.0,502.2500001,,,,51,"0,0,0",4,city,178,probe-221,0.35696141,0.168410824,0.674277227,0,,,,,,
,do_trial,243,1475440,0.0-223.0-0.0,487.215,,,,50,"0,0,0",4,city,179,probe-134,0.386880438,0.090941293,0.688391936,0,,,,,,
,do_trial,244,1481436,0.0-224.0-0.0,447.2450002,,,,50,"1,0,1",4,city,180,probe-24,0.459777337,0.13755191,0.833123026,0,,,,,,
,do_trial,245,1487422,0.0-225.0-0.0,436.7150001,,,,50,"0,0,1",4,city,181,probe-92,0.371269432,0.143374156,0.921582335,0,,,,,,
,do_trial,246,1493668,0.0-226.0-0.0,697.16,,,,50,"0,0,0",4,city,182,probe-63,0.513923924,0.117439629,0.913807778,0,,,,,,
,do_trial,247,1499593,0.0-227.0-0.0,376.165,,,,49,"1,0,0",4,city,183,probe-90,0.47886133,0.083402909,0.694890668,1,,,,,,
,do_trial,248,1506115,0.0-228.0-0.0,973.0550002,,,,49,"1,0,1",4,city,184,probe-52,0.463653927,0.115819061,0.680379317,1,,,,,,
,do_trial,249,1512388,0.0-229.0-0.0,726.9850001,,,,49,"1,0,1",4,city,185,probe-128,0.201372219,0.056132004,0.838861556,1,,,,,,
,do_trial,250,1518268,0.0-230.0-0.0,332.5199999,,,,49,"1,0,1",4,city,186,probe-235,0.350958032,0.147179173,0.837562284,1,,,,,,
,do_trial,251,1524314,0.0-231.0-0.0,496.7099999,,,,49,"0,0,0",4,city,187,probe-210,0.301297726,0.182997158,0.842495675,0,,,,,,
,do_trial,252,1530243,0.0-232.0-0.0,379.8850002,,,,49,"0,0,1",4,city,188,probe-171,0.186060225,0.130309905,0.894929886,0,,,,,,
,do_trial,253,1536109,0.0-233.0-0.0,317.1350001,,,,50,"0,0,1",4,city,189,probe-108,0.294800678,0.316601365,0.935227423,0,,,,,,
,do_trial,254,1541961,0.0-234.0-0.0,302.56,,,,50,"0,0,0",4,city,190,probe-84,0.585257669,0.121157456,0.782949228,0,,,,,,
,do_trial,255,1547935,0.0-235.0-0.0,424.8899999,,,,51,"1,0,0",4,city,191,probe-62,0.543019534,0.126167994,0.759055155,0,,,,,,
,do_trial,256,1554105,0.0-236.0-0.0,620.3300001,,,,50,"0,0,0",4,city,192,probe-139,0.517224708,0.184342207,0.740014313,0,,,,,,
,do_trial,257,1560070,0.0-237.0-0.0,417.4800001,,,,49,"1,0,1",4,city,193,probe-143,0.526379582,0.066689885,0.715493429,1,,,,,,
,do_trial,258,1566194,0.0-238.0-0.0,575.9699999,,,,49,"1,0,1",4,city,194,probe-39,0.473913456,0.12800911,0.678046669,1,,,,,,
,do_trial,259,1572765,0.0-239.0-0.0,1021.06,,,,49,"1,0,1",4,city,195,probe-103,0.451813096,0.051959823,0.694367034,1,,,,,,
,do_trial,260,1579032,0.0-240.0-0.0,718.0050001,,,,49,"1,0,1",4,city,196,probe-201,0.3510242,0.100148234,0.72790969,1,,,,,,
,do_trial,261,1585269,0.0-241.0-0.0,688.055,,,,49,"0,0,1",4,city,197,probe-212,0.34464716,0.177669678,0.809595788,0,,,,,,
,do_trial,262,1591350,0.0-242.0-0.0,534.095,,,,50,"0,0,1",4,city,198,probe-190,0.499692184,0.206404579,0.899764986,0,,,,,,
,do_trial,263,1597468,0.0-243.0-0.0,568.9949999,,,,49,"0,0,1",4,city,199,probe-36,0.424250129,0.213282735,0.839340747,0,,,,,,
,do_bye,264,1598977,0.0-244.0-0.0,null,,,,null,,,,,,,,,,,,,,,
,do_travel,265,1604981,0.0-245.0-0.0,null,,,,null,,,,,,,,,,,,,,,
,do_welcome,266,1606488,0.0-245.0-1.0,null,,,,null,,,,,,,,,,,,,,,
,do_trial,267,1613358,0.0-246.0-0.0,1325.205,,,,50,"0,0,1",5,coast,200,probe-99,0.378405877,0.300014843,1,0,,,,,,
,do_trial,268,1619257,0.0-247.0-0.0,354.4350001,,,,51,"1,0,1",5,coast,201,probe-14,0.269611739,0.223908723,1,1,,,,,,
,do_trial,269,1625153,0.0-248.0-0.0,349.4599999,,,,51,"0,0,1",5,coast,202,probe-208,0.40159453,0.12044938,1,1,,,,,,
,do_trial,270,1631068,0.0-249.0-0.0,367.5250001,,,,51,"0,0,1",5,coast,203,probe-20,0.371620993,0.077715672,1,1,,,,,,
,do_trial,271,1636987,0.0-250.0-0.0,371.0100001,,,,51,"1,0,1",5,coast,204,probe-13,0.456246848,0.06522545,0.929401424,1,,,,,,
,do_trial,272,1642965,0.0-251.0-0.0,427.7949999,,,,51,"0,1,1",5,coast,205,probe-08,0.402209592,0.250059108,0.926159875,1,,,,,,
,do_trial,273,1649018,0.0-252.0-0.0,503.94,,,,51,"0,0,1",5,coast,206,probe-214,0.425768673,0.190845148,0.837294135,1,,,,,,
,do_trial,274,1655234,0.0-253.0-0.0,668.27,,,,51,"1,1,1",5,coast,207,probe-196,0.457359945,0.24487746,0.903048946,1,,,,,,
,do_trial,275,1661770,0.0-254.0-0.0,986.1299999,,,,51,"0,0,1",5,coast,208,probe-87,0.375516878,0.355058838,0.901753564,1,,,,,,
,do_trial,276,1667689,0.0-255.0-0.0,373.3000001,,,,51,"0,1,1",5,coast,209,probe-95,0.320140238,0.425511427,0.805283797,1,,,,,,
,do_trial,277,1674110,0.0-256.0-0.0,874.9799998,,,,51,"0,0,1",5,coast,210,probe-129,0.454772454,0.519724169,0.534330871,1,,,,,,
,do_trial,278,1680324,0.0-257.0-0.0,667.3649999,,,,51,"1,1,0",5,coast,211,probe-47,0.566931598,0.605779655,0.342715524,0,,,,,,
,do_trial,279,1686293,0.0-258.0-0.0,420.495,,,,51,"0,1,0",5,coast,212,probe-154,0.660708931,0.455900778,0.300079033,0,,,,,,
,do_trial,280,1692557,0.0-259.0-0.0,720.0250002,,,,49,"1,1,0",5,coast,213,probe-25,0.783127084,0.44112305,0.077360299,1,,,,,,
,do_trial,281,1698510,0.0-260.0-0.0,403.9350001,,,,49,"1,0,0",5,coast,214,probe-184,0.798997533,0.427305068,0.104764319,1,,,,,,
,do_trial,282,1704446,0.0-261.0-0.0,386.4,,,,49,"1,1,0",5,coast,215,probe-161,0.829797852,0.419906392,0.105012822,1,,,,,,
,do_trial,283,1710369,0.0-262.0-0.0,375.9600001,,,,49,"1,0,0",5,coast,216,probe-233,0.93123879,0.214726153,0.068563516,1,,,,,,
,do_trial,284,1716365,0.0-263.0-0.0,451.3000001,,,,49,"1,1,0",5,coast,217,probe-23,0.834493567,0.372665749,0.076070338,1,,,,,,
,do_trial,285,1722403,0.0-264.0-0.0,490.555,,,,49,"1,1,0",5,coast,218,probe-16,0.774595913,0.489682479,0.124975651,1,,,,,,
,do_trial,286,1728466,0.0-265.0-0.0,514.1350001,,,,49,"1,0,0",5,coast,219,probe-112,0.825020662,0.532230678,0.181092655,1,,,,,,
,do_trial,287,1734466,0.0-266.0-0.0,451.6599998,,,,49,"0,0,0",5,coast,220,probe-79,0.705649081,0.451456597,0.087836355,0,,,,,,
,do_trial,288,1740460,0.0-267.0-0.0,443.9449999,,,,49,"1,1,0",5,coast,221,probe-30,0.679461512,0.320787798,0.103525114,1,,,,,,
,do_trial,289,1746501,0.0-268.0-0.0,495.2499999,,,,49,"0,0,0",5,coast,222,probe-188,0.604045961,0.356283134,0.081835565,0,,,,,,
,do_trial,290,1752911,0.0-269.0-0.0,860.8949999,,,,51,"1,0,0",5,coast,223,probe-131,0.725849519,0.486341381,0.126628944,0,,,,,,
,do_trial,291,1759113,0.0-270.0-0.0,653.19,,,,50,"1,1,0",5,coast,224,probe-223,0.887838359,0.491882671,0.164886297,1,,,,,,
,do_trial,292,1765269,0.0-271.0-0.0,608.7999998,,,,50,"1,1,0",5,coast,225,probe-137,0.885935779,0.501558321,0.159542488,1,,,,,,
,do_trial,293,1771195,0.0-272.0-0.0,378.7149999,,,,50,"0,0,1",5,coast,226,probe-227,0.826733478,0.460431553,0.215187022,0,,,,,,
,do_trial,294,1777098,0.0-273.0-0.0,356.99,,,,50,"1,0,0",5,coast,227,probe-126,0.77049462,0.427086243,0.151557443,0,,,,,,
,do_trial,295,1783427,0.0-274.0-0.0,784.0249999,,,,51,"0,0,1",5,coast,228,probe-50,0.610583526,0.364689062,0.067251941,1,,,,,,
,do_trial,296,1789402,0.0-275.0-0.0,425.9599999,,,,51,"1,1,0",5,coast,229,probe-163,0.750739626,0.261582477,0.153922168,0,,,,,,
,do_trial,297,1795438,0.0-276.0-0.0,489.69,,,,51,"1,0,0",5,coast,230,probe-197,0.827178687,0.238170367,0.131974277,0,,,,,,
,do_trial,298,1801585,0.0-277.0-0.0,601.2299999,,,,51,"1,0,0",5,coast,231,probe-206,0.927707033,0.300941339,0.056064603,0,,,,,,
,do_trial,299,1807576,0.0-278.0-0.0,443.2700002,,,,49,"0,0,0",5,coast,232,probe-224,0.763074645,0.373588216,0.123967859,0,,,,,,
,do_trial,300,1813469,0.0-279.0-0.0,344.5349999,,,,50,"1,1,0",5,coast,233,probe-138,0.892641197,0.390764167,0.196602084,1,,,,,,
,do_trial,301,1819376,0.0-280.0-0.0,358.2599999,,,,50,"1,0,0",5,coast,234,probe-152,0.700566083,0.272054939,0.183087317,0,,,,,,
,do_trial,302,1825319,0.0-281.0-0.0,394.8049999,,,,51,"1,1,0",5,coast,235,probe-189,0.641698604,0.381756045,0.1058753,0,,,,,,
,do_trial,303,1831371,0.0-282.0-0.0,502.6400001,,,,49,"1,1,0",5,coast,236,probe-53,0.594200495,0.328480806,0.10001734,1,,,,,,
,do_trial,304,1837344,0.0-283.0-0.0,428.8900001,,,,49,"1,0,0",5,coast,237,probe-234,0.552067623,0.313500047,0.115283724,1,,,,,,
,do_trial,305,1843459,0.0-284.0-0.0,565.735,,,,49,"1,1,1",5,coast,238,probe-03,0.531761468,0.459372061,0.137716128,1,,,,,,
,do_trial,306,1849623,0.0-285.0-0.0,617.6449999,,,,49,"1,0,0",5,coast,239,probe-98,0.67022098,0.342061512,0.172472393,1,,,,,,
,do_bye,307,1851133,0.0-286.0-0.0,null,,,,null,,,,,,,,,,,,,,,
,html-keyboard-response,308,1891716,0.0-286.0-1.0,40581.41,"<div class='center'><p>You may take a break now!</p><p> Stretch for a little bit. Get a glass of water.</p><p> You have two minutes to rest. Then, the game will automatically move on.</p><p>If you’d like to get started on the second half of the experiment sooner, then press the <b>space bar</b></p></div>",32,,,,,,,,,,,,,,,,,
,html-keyboard-response,309,1903337,0.0-286.0-2.0,11620.205,"<div class='center'><p>You’ve arrived at the final destination of your journey! Unfortunately, it’s very foggy out, so you won’t be able to see it in the distance like in previous places you've visited.</p><p>You’ll still be deciding which pirates you want to rob ships. However, because of the fog you also won’t be able to see the ship in the distance. </p><p><b>[Press the space bar to continue]</b></p></div>",32,,,,,,,,,,,,,,,,,
,html-keyboard-response,310,1948828,0.0-286.0-3.0,45489.89,"<div class='center'><p> Sometimes you’ll be asked if you’ve seen a ship before (see the example below). You will use the 5, 6, 7, 8 buttons on your keyboard to respond. </p><p> If you definitely did not see the ship, pick the the big red thumbs down by pressing <b>5</b>.</p><p> If you don’t think you saw it but aren’t sure, then pick the small red thumbs down by pressing <b>6</b>.</p><p> If you think you might have seen it, then pick the small green thumbs up by pressing <b>7</b>.</p><p> If you definitely did see this ship before, then pick the big thumb green thumbs up by pressing <b>8</b>.</p><p> If you recall correctly, then you’ll get a gold coin!</p><p><b>[Press the space bar to begin the next phase of the experiment]</b></p><p><img src='run_exp/static/images/example_recog_trial.png' height='500'></p></div>",32,,,,,,,,,,,,,,,,,
,do_welcome,311,1950338,0.0-286.0-4.0,null,,,,null,,,,,,,,,,,,,,,
,do_trial,312,1955965,0.0-287.0-0.0,2081.575,,,,50,"1,0,0",6,blank,240,null,1,0.398169135,0.077580214,0,,,,,,
,do_trial,313,1960320,0.0-288.0-0.0,807.3499999,,,,49,"1,1,0",6,blank,241,null,0.923203848,0.320130944,0.205551878,1,,,,,,
,do_trial,314,1964367,0.0-289.0-0.0,498.0500001,,,,49,"1,0,0",6,blank,242,null,0.730671379,0.322296667,0.086374912,1,,,,,,
,do_recog,315,1970144,0.0-290.0-0.0,4265,,,,56,,,,243,probe-64,,,,,1,[object Object],42,1,1,
,do_trial,316,1974803,0.0-291.0-0.0,1109.81,,,,50,"1,1,0",6,blank,244,null,0.867712822,0.22836412,0.076039579,1,,,,,,
,do_trial,317,1980372,0.0-292.0-0.0,2019.62,,,,50,"1,1,1",6,blank,245,null,0.881442114,0.162167508,0.073394925,1,,,,,,
,do_recog,318,1984241,0.0-293.0-0.0,2357.59,,,,56,,,,246,probe-66,,,,,1,[object Object],83,2,1,
,do_trial,319,1988369,0.0-294.0-0.0,581.0100001,,,,50,"1,0,1",6,blank,247,null,0.936134552,0.238001574,0.158111494,0,,,,,,
,do_recog,320,1992193,0.0-295.0-0.0,2312.65,,,,55,,,,248,probe-65,,,,,1,[object Object],163,4,1,
,do_trial,321,1996581,0.0-296.0-0.0,838.9299999,,,,49,"1,0,1",6,blank,249,null,0.915244882,0.198620241,0.168034053,1,,,,,,
,do_recog,322,2000090,0.0-297.0-0.0,1997.545,,,,54,,,,250,probe-71,,,,,1,[object Object],45,1,0,
,do_trial,323,2004840,0.0-298.0-0.0,1200.84,,,,49,"1,0,0",6,blank,251,null,0.783460677,0.286515515,0.054226999,1,,,,,,
,do_trial,324,2009483,0.0-299.0-0.0,1093.915,,,,51,"1,0,1",6,blank,252,null,0.884649719,0.261148654,0.188535227,1,,,,,,
,do_trial,325,2013965,0.0-300.0-0.0,935.7450001,,,,51,"1,0,0",6,blank,253,null,0.83131749,0.303270785,0.284410231,0,,,,,,
,do_recog,326,2017689,0.0-301.0-0.0,2213.415,,,,55,,,,254,probe-105,,,,,1,[object Object],40,1,1,
,do_trial,327,2022335,0.0-302.0-0.0,1101.25,,,,49,"0,0,0",6,blank,255,null,0.628977032,0.518538987,0.281285493,0,,,,,,
,do_recog,328,2025081,0.0-303.0-0.0,1234.85,,,,56,,,,256,probe-100,,,,,1,[object Object],122,3,1,
,do_trial,329,2029399,0.0-304.0-0.0,773.575,,,,51,"1,0,0",6,blank,257,null,0.582207032,0.740867696,0.195620723,0,,,,,,
,do_trial,330,2033453,0.0-305.0-0.0,507.1099999,,,,50,"0,1,0",6,blank,258,null,0.519769845,0.900013654,0.277135565,1,,,,,,
,do_trial,331,2038459,0.0-306.0-0.0,1457.235,,,,50,"1,1,0",6,blank,259,null,0.597338486,0.941990149,0.24991333,1,,,,,,
,do_recog,332,2042644,0.0-307.0-0.0,2677.585,,,,54,,,,260,probe-196,,,,,1,[object Object],207,5,0,
,do_trial,333,2047195,0.0-308.0-0.0,1001.46,,,,50,"1,0,0",6,blank,261,null,0.4508635,0.884421237,0.294990729,0,,,,,,
,do_recog,334,2050096,0.0-309.0-0.0,1392.085,,,,56,,,,262,probe-239,,,,,1,[object Object],169,4,1,
,do_trial,335,2054279,0.0-310.0-0.0,639.1450001,,,,51,"1,0,1",6,blank,263,null,0.438418638,0.867893603,0.236486398,1,,,,,,
,do_recog,336,2057348,0.0-311.0-0.0,1558.32,,,,56,,,,264,probe-230,,,,,1,[object Object],165,4,1,
,do_trial,337,2061571,0.0-312.0-0.0,673.1100001,,,,50,"0,1,0",6,blank,265,null,0.32484303,0.943038269,0.121503505,1,,,,,,
,do_trial,338,2065875,0.0-313.0-0.0,756.3,,,,51,"0,0,1",6,blank,266,null,0.273689296,0.794802733,0.194299304,1,,,,,,
,do_trial,339,2070137,0.0-314.0-0.0,712.3699998,,,,51,"1,1,0",6,blank,267,null,0.465068232,0.924733133,0.121505103,0,,,,,,
,do_recog,340,2073130,0.0-315.0-0.0,1481.39,,,,56,,,,268,probe-253,,,,,0,[object Object],null,null,0,
,do_trial,341,2077224,0.0-316.0-0.0,545.2999999,,,,50,"1,1,0",6,blank,269,null,0.411201081,0.924298699,0.069250729,1,,,,,,
,do_trial,342,2081219,0.0-317.0-0.0,445.1049999,,,,50,"1,1,0",6,blank,270,null,0.389510527,0.870104851,0.21374916,1,,,,,,
,do_trial,343,2085293,0.0-318.0-0.0,524.68,,,,50,"0,1,0",6,blank,271,null,0.548799036,0.901356133,0.095886984,1,,,,,,
,do_recog,344,2088796,0.0-319.0-0.0,1995.715,,,,55,,,,272,probe-186,,,,,1,[object Object],166,4,1,
,do_trial,345,2092971,0.0-320.0-0.0,627.7650001,,,,50,"0,1,0",6,blank,273,null,0.459011934,0.88440874,0.107052158,1,,,,,,
,do_trial,346,2097184,0.0-321.0-0.0,669.5900001,,,,50,"1,1,0",6,blank,274,null,0.483513125,0.77147027,0.21750571,1,,,,,,
,do_trial,347,2101338,0.0-322.0-0.0,604.7350001,,,,50,"1,0,0",6,blank,275,null,0.350189527,0.729867721,0.123495072,0,,,,,,
,do_trial,348,2105755,0.0-323.0-0.0,867.845,,,,51,"0,1,0",6,blank,276,null,0.252390015,0.735861899,0.167459418,0,,,,,,
,do_recog,349,2109477,0.0-324.0-0.0,2215.49,,,,55,,,,277,probe-238,,,,,1,[object Object],160,4,1,
,do_trial,350,2113977,0.0-325.0-0.0,952.14,,,,49,"0,1,0",6,blank,278,null,0.331416501,0.775410396,0.187938713,0,,,,,,
,do_recog,351,2116651,0.0-326.0-0.0,1161.835,,,,56,,,,279,probe-87,,,,,1,[object Object],208,5,1,
,do_trial,352,2120718,0.0-327.0-0.0,521.735,,,,51,"1,1,0",6,blank,280,null,0.400231968,0.81207348,0.268247883,0,,,,,,
,do_trial,353,2124755,0.0-328.0-0.0,489.965,,,,50,"0,1,0",6,blank,281,null,0.387721861,0.853166672,0.181022161,1,,,,,,
,do_trial,354,2128750,0.0-329.0-0.0,445.1100002,,,,50,"0,1,0",6,blank,282,null,0.404980913,0.849215381,0.116567858,1,,,,,,
,do_trial,355,2132929,0.0-330.0-0.0,633.3249998,,,,50,"0,1,0",6,blank,283,null,0.294010993,1,0.184019546,1,,,,,,
,do_trial,356,2136897,0.0-331.0-0.0,418.665,,,,50,"0,1,0",6,blank,284,null,0.352057818,0.900881184,0.079770036,1,,,,,,
,do_recog,357,2139587,0.0-332.0-0.0,1180.255,,,,56,,,,285,probe-214,,,,,1,[object Object],206,5,1,
,do_trial,358,2144031,0.0-333.0-0.0,895.695,,,,50,"0,1,0",6,blank,286,null,0.417397982,0.893388768,0.180656812,1,,,,,,
,do_recog,359,2146552,0.0-334.0-0.0,1012.95,,,,56,,,,287,probe-113,,,,,1,[object Object],126,3,1,
,do_trial,360,2150549,0.0-335.0-0.0,448.3700001,,,,50,"1,1,1",6,blank,288,null,0.485765578,0.882607374,0.1851069,1,,,,,,
,do_recog,361,2153421,0.0-336.0-0.0,1360.785,,,,56,,,,289,probe-219,,,,,1,[object Object],84,2,1,
,do_trial,362,2157404,0.0-337.0-0.0,433.98,,,,50,"1,1,1",6,blank,290,null,0.600102003,0.93683645,0.287137495,1,,,,,,
,do_recog,363,2159922,0.0-338.0-0.0,1011.285,,,,56,,,,291,probe-216,,,,,1,[object Object],121,3,1,
,do_trial,364,2163886,0.0-339.0-0.0,418.7099999,,,,50,"0,1,0",6,blank,292,null,0.428929661,0.797182606,0.294731027,1,,,,,,
,do_trial,365,2168146,0.0-340.0-0.0,710.53,,,,50,"1,1,0",6,blank,293,null,0.368902136,0.739937339,0.271397627,1,,,,,,
,do_trial,366,2172160,0.0-341.0-0.0,466.4,,,,50,"1,1,0",6,blank,294,null,0.398454791,0.766775414,0.235591404,1,,,,,,
,do_recog,367,2174851,0.0-342.0-0.0,1183.11,,,,56,,,,295,probe-33,,,,,1,[object Object],43,1,1,
,do_trial,368,2178885,0.0-343.0-0.0,487.6549998,,,,50,"0,0,1",6,blank,296,null,0.290369223,0.764033524,0.241926196,0,,,,,,
,do_recog,369,2181634,0.0-344.0-0.0,1238.18,,,,56,,,,297,probe-193,,,,,1,[object Object],49,1,1,
,do_trial,370,2185552,0.0-345.0-0.0,368.5300001,,,,50,"0,1,0",6,blank,298,null,0.264582906,0.947778586,0.221031973,1,,,,,,
,do_trial,371,2189511,0.0-346.0-0.0,413.2149999,,,,50,"0,1,1",6,blank,299,null,0.21698465,0.929919348,0.218902612,1,,,,,,
,do_recog,372,2193045,0.0-347.0-0.0,2022.78,,,,55,,,,300,probe-252,,,,,0,[object Object],null,null,0,
,do_trial,373,2197336,0.0-348.0-0.0,744.6000001,,,,50,"0,0,1",6,blank,301,null,0.128212579,0.923222265,0.273510547,0,,,,,,
,do_recog,374,2199909,0.0-349.0-0.0,1061.905,,,,56,,,,302,probe-61,,,,,1,[object Object],128,3,1,
,do_trial,375,2204223,0.0-350.0-0.0,766.3100001,,,,51,"0,1,0",6,blank,303,null,0.216084085,0.672184166,0.458367652,0,,,,,,
,do_recog,376,2207332,0.0-351.0-0.0,1600.215,,,,54,,,,304,probe-95,,,,,1,[object Object],209,5,0,
,do_trial,377,2211388,0.0-352.0-0.0,512.11,,,,50,"0,0,1",6,blank,305,null,0.196628596,0.435049331,0.582303823,0,,,,,,
,do_trial,378,2215496,0.0-353.0-0.0,563.545,,,,49,"0,0,1",6,blank,306,null,0.238256346,0.25573652,0.817230929,0,,,,,,
,do_trial,379,2219999,0.0-354.0-0.0,954.8300002,,,,51,"0,0,1",6,blank,307,null,0.323994879,0.141431238,0.947913519,1,,,,,,
,do_trial,380,2224123,0.0-355.0-0.0,575.495,,,,50,"0,1,0",6,blank,308,null,0.37041463,0.116215061,0.870793456,1,,,,,,
,do_trial,381,2228458,0.0-356.0-0.0,785.6400001,,,,50,"0,0,1",6,blank,309,null,0.34598194,0.174973176,0.847859007,0,,,,,,
,do_trial,382,2232590,0.0-357.0-0.0,587.4400001,,,,51,"1,0,0",6,blank,310,null,0.434161067,0.12565155,0.789573583,0,,,,,,
,do_recog,383,2235327,0.0-358.0-0.0,1230.505,,,,56,,,,311,probe-14,,,,,1,[object Object],201,5,1,
,do_trial,384,2239461,0.0-359.0-0.0,585.71,,,,50,"1,0,1",6,blank,312,null,0.438340238,0.121631339,0.912208733,0,,,,,,
,do_trial,385,2243706,0.0-360.0-0.0,695.8650001,,,,51,"1,0,1",6,blank,313,null,0.406388081,0.161159953,0.649075456,1,,,,,,
,do_recog,386,2246231,0.0-361.0-0.0,1014.3,,,,56,,,,314,probe-20,,,,,1,[object Object],203,5,1,
,do_trial,387,2250408,0.0-362.0-0.0,629.9400001,,,,51,"0,0,0",6,blank,315,null,0.4394328,0.078818214,0.687151552,0,,,,,,
,do_recog,388,2254001,0.0-363.0-0.0,2083.78,,,,54,,,,316,probe-259,,,,,0,[object Object],null,null,1,
,do_trial,389,2258186,0.0-364.0-0.0,635.6650002,,,,51,"1,0,1",6,blank,317,null,0.412377791,0.091681458,0.710873833,1,,,,,,
,do_trial,390,2262366,0.0-365.0-0.0,632.8050001,,,,51,"0,0,0",6,blank,318,null,0.432887337,0.052369086,0.682789444,0,,,,,,
,do_recog,391,2265295,0.0-366.0-0.0,1420.595,,,,56,,,,319,probe-175,,,,,1,[object Object],44,1,1,
,do_trial,392,2269484,0.0-367.0-0.0,641.3799999,,,,49,"0,1,1",6,blank,320,null,0.339284091,0.11340073,0.766064421,0,,,,,,
,do_trial,393,2273430,0.0-368.0-0.0,399.5650001,,,,50,"0,0,0",6,blank,321,null,0.292417827,0.075725576,0.848845409,0,,,,,,
,do_trial,394,2277315,0.0-369.0-0.0,335.5650001,,,,51,"0,0,1",6,blank,322,null,0.296847675,0.158325507,0.862562551,1,,,,,,
,do_recog,395,2280782,0.0-370.0-0.0,1956.125,,,,54,,,,323,probe-99,,,,,1,[object Object],200,5,0,
,do_trial,396,2284775,0.0-371.0-0.0,448.2499999,,,,51,"0,0,1",6,blank,324,null,0.226219017,0.104650451,0.804701,1,,,,,,
,do_trial,397,2288795,0.0-372.0-0.0,470.8149999,,,,51,"0,0,1",6,blank,325,null,0.34882006,0.147171462,0.875554327,1,,,,,,
,do_trial,398,2292778,0.0-373.0-0.0,434.745,,,,51,"1,0,1",6,blank,326,null,0.381980566,0.198854604,0.94745368,1,,,,,,
,do_trial,399,2296944,0.0-374.0-0.0,615.8450001,,,,51,"1,0,1",6,blank,327,null,0.464530825,0.208026378,1,1,,,,,,
,do_trial,400,2300927,0.0-375.0-0.0,436.1400001,,,,51,"0,0,0",6,blank,328,null,0.486744174,0.07662369,0.834775639,0,,,,,,
,do_trial,401,2305035,0.0-376.0-0.0,559.0350002,,,,50,"1,0,1",6,blank,329,null,0.430835647,0.128601262,0.790346151,0,,,,,,
,do_recog,402,2307559,0.0-377.0-0.0,1015.33,,,,56,,,,330,probe-02,,,,,1,[object Object],124,3,1,
,do_trial,403,2312401,0.0-378.0-0.0,1295.565,,,,51,"0,0,1",6,blank,331,null,0.527544329,0.195727537,0.711105621,1,,,,,,
,do_recog,404,2315567,0.0-379.0-0.0,1654.335,,,,54,,,,332,probe-70,,,,,1,[object Object],120,3,0,
,do_trial,405,2319487,0.0-380.0-0.0,374.785,,,,51,"0,1,1",6,blank,333,null,0.412235876,0.323536615,0.801721196,1,,,,,,
,do_recog,406,2322205,0.0-381.0-0.0,1206.585,,,,56,,,,334,probe-165,,,,,1,[object Object],47,1,1,
,do_trial,407,2326546,0.0-382.0-0.0,793.8899999,,,,51,"0,0,1",6,blank,335,null,0.457251405,0.133067867,0.823604015,1,,,,,,
,do_trial,408,2330763,0.0-383.0-0.0,671.2800001,,,,51,"1,0,1",6,blank,336,null,0.537328328,0.161691503,0.913398538,1,,,,,,
,do_trial,409,2335000,0.0-384.0-0.0,687.535,,,,51,"0,0,1",6,blank,337,null,0.532928601,0.109787202,0.882050961,1,,,,,,
,do_recog,410,2337725,0.0-385.0-0.0,1213.58,,,,56,,,,338,probe-194,,,,,1,[object Object],86,2,1,
,do_trial,411,2342248,0.0-386.0-0.0,974.77,,,,51,"0,1,0",6,blank,339,null,0.452092304,0.210867031,0.750612009,0,,,,,,
,do_recog,412,2345356,0.0-387.0-0.0,1598.38,,,,56,,,,340,probe-255,,,,,0,[object Object],null,null,0,
,do_trial,413,2349437,0.0-388.0-0.0,535.6600001,,,,50,"1,0,0",6,blank,341,null,0.560836933,0.143986266,0.787453549,0,,,,,,
,do_recog,414,2351758,0.0-389.0-0.0,811.2550001,,,,56,,,,342,probe-75,,,,,1,[object Object],125,3,1,
,do_trial,415,2355801,0.0-390.0-0.0,498.81,,,,51,"1,1,1",6,blank,343,null,0.712029801,0.152765547,0.653400412,1,,,,,,
,do_trial,416,2360077,0.0-391.0-0.0,729.695,,,,51,"1,1,1",6,blank,344,null,0.827132067,0.193273044,0.530463671,1,,,,,,
,do_trial,417,2364218,0.0-392.0-0.0,591.67,,,,51,"1,0,0",6,blank,345,null,0.90707408,0.051418146,0.513786577,0,,,,,,
,do_trial,418,2368175,0.0-393.0-0.0,408.08,,,,50,"1,0,1",6,blank,346,null,0.815726395,0.113536239,0.463629456,0,,,,,,
,do_recog,419,2370884,0.0-394.0-0.0,1198.055,,,,56,,,,347,probe-89,,,,,1,[object Object],48,1,1,
,do_trial,420,2374895,0.0-395.0-0.0,465.0699999,,,,51,"0,0,1",6,blank,348,null,0.74750268,0.106933088,0.43431842,1,,,,,,
,do_recog,421,2378071,0.0-396.0-0.0,1665.27,,,,54,,,,349,probe-183,,,,,1,[object Object],162,4,0,
,do_trial,422,2382025,0.0-397.0-0.0,405.12,,,,51,"1,1,1",6,blank,350,null,0.79162005,0.167101774,0.422693786,1,,,,,,
,do_trial,423,2386210,0.0-398.0-0.0,639.4499999,,,,51,"1,0,1",6,blank,351,null,0.928025555,0.238021124,0.514609202,1,,,,,,
,do_trial,424,2390436,0.0-399.0-0.0,678.2549999,,,,51,"1,0,0",6,blank,352,null,0.870790739,0.205984708,0.377953852,0,,,,,,
,do_trial,425,2394565,0.0-400.0-0.0,579.1450001,,,,50,"1,0,1",6,blank,353,null,0.874484796,0.281085949,0.476854175,0,,,,,,
,do_trial,426,2398707,0.0-401.0-0.0,592.5449999,,,,51,"0,0,0",6,blank,354,null,0.784296165,0.203016099,0.409610663,0,,,,,,
,do_recog,427,2401219,0.0-402.0-0.0,1006.375,,,,56,,,,355,probe-09,,,,,1,[object Object],123,3,1,
,do_trial,428,2405250,0.0-403.0-0.0,482.385,,,,49,"1,0,0",6,blank,356,null,0.811098106,0.138662735,0.327903904,1,,,,,,
,do_recog,429,2408272,0.0-404.0-0.0,1513.505,,,,54,,,,357,probe-08,,,,,1,[object Object],205,5,0,
,do_trial,430,2412245,0.0-405.0-0.0,424.935,,,,49,"1,0,0",6,blank,358,null,0.747414541,0.156370197,0.253648734,1,,,,,,
,do_recog,431,2414555,0.0-406.0-0.0,799.0299999,,,,56,,,,359,probe-17,,,,,1,[object Object],81,2,1,
,do_trial,432,2418643,0.0-407.0-0.0,539.2499999,,,,49,"1,0,1",6,blank,360,null,0.852362463,0.144876396,0.398536546,1,,,,,,
,do_trial,433,2422755,0.0-408.0-0.0,561.5549998,,,,49,"1,0,0",6,blank,361,null,0.937716807,0.057479144,0.46186192,1,,,,,,
,do_trial,434,2426934,0.0-409.0-0.0,634.5299999,,,,49,"1,0,0",6,blank,362,null,0.793729439,0.2244974,0.405768031,1,,,,,,
,do_trial,435,2431280,0.0-410.0-0.0,801.6600001,,,,49,"0,0,0",6,blank,363,null,0.763586094,0.233146925,0.335750894,0,,,,,,
,do_recog,436,2434852,0.0-411.0-0.0,2063.95,,,,54,,,,364,probe-231,,,,,1,[object Object],164,4,0,
,do_trial,437,2439084,0.0-412.0-0.0,682.9599999,,,,51,"0,0,0",6,blank,365,null,0.625871639,0.268091371,0.350225839,0,,,,,,
,do_recog,438,2442294,0.0-413.0-0.0,1703.48,,,,56,,,,366,probe-249,,,,,0,[object Object],null,null,0,
,do_trial,439,2446302,0.0-414.0-0.0,460.0750001,,,,50,"1,1,1",6,blank,367,null,0.755620555,0.124948737,0.240516021,1,,,,,,
,do_recog,440,2448710,0.0-415.0-0.0,895.7849999,,,,56,,,,368,probe-159,,,,,1,[object Object],85,2,1,
,do_trial,441,2453142,0.0-416.0-0.0,884.9799999,,,,50,"1,0,0",6,blank,369,null,0.824544975,0.060020755,0.336628165,0,,,,,,
,do_trial,442,2457133,0.0-417.0-0.0,441.745,,,,51,"1,0,1",6,blank,370,null,0.908503647,0.072010629,0.437186169,1,,,,,,
,do_trial,443,2461193,0.0-418.0-0.0,515.1250002,,,,51,"1,0,0",6,blank,371,null,1,0.207131241,0.442281119,0,,,,,,
,do_recog,444,2464853,0.0-419.0-0.0,2150.86,,,,54,,,,372,probe-208,,,,,1,[object Object],202,5,0,
,do_trial,445,2469044,0.0-420.0-0.0,643.0949999,,,,50,"1,0,0",6,blank,373,null,0.793200793,0.199638032,0.474911774,0,,,,,,
,do_recog,446,2471887,0.0-421.0-0.0,1331.385,,,,56,,,,374,probe-123,,,,,1,[object Object],161,4,1,
,do_trial,447,2475921,0.0-422.0-0.0,486.79,,,,49,"1,0,0",6,blank,375,null,0.726132759,0.208032315,0.337373185,1,,,,,,
,do_recog,448,2479094,0.0-423.0-0.0,1666.235,,,,54,,,,376,probe-77,,,,,1,[object Object],41,1,0,
,do_trial,449,2483369,0.0-424.0-0.0,726.0749999,,,,49,"1,0,0",6,blank,377,null,0.715580951,0.228269303,0.206903478,1,,,,,,
,do_recog,450,2485708,0.0-425.0-0.0,830.2499999,,,,56,,,,378,probe-168,,,,,1,[object Object],129,3,1,
,do_trial,451,2489826,0.0-426.0-0.0,570.455,,,,49,"1,0,0",6,blank,379,null,0.686709508,0.081231571,0.348699964,1,,,,,,
,do_recog,452,2492451,0.0-427.0-0.0,1113.11,,,,56,,,,380,probe-256,,,,,0,[object Object],null,null,0,
,do_trial,453,2496483,0.0-428.0-0.0,483.8699999,,,,49,"1,0,0",6,blank,381,null,0.849980754,0.192354236,0.332066917,1,,,,,,
,do_recog,454,2498877,0.0-429.0-0.0,882.9600001,,,,56,,,,382,probe-187,,,,,1,[object Object],89,2,1,
,do_trial,455,2503163,0.0-430.0-0.0,740.1650001,,,,49,"1,0,0",6,blank,383,null,0.91309188,0.089526756,0.332328917,1,,,,,,
,do_trial,456,2507336,0.0-431.0-0.0,623.865,,,,49,"1,0,1",6,blank,384,null,0.930880874,0.21827703,0.439087784,1,,,,,,
,do_trial,457,2511502,0.0-432.0-0.0,619.43,,,,49,"1,0,1",6,blank,385,null,0.849003518,0.098035228,0.541890138,1,,,,,,
,do_trial,458,2515660,0.0-433.0-0.0,608.7999998,,,,49,"1,0,0",6,blank,386,null,0.838663645,0.053126323,0.537806204,1,,,,,,
,do_recog,459,2518414,0.0-434.0-0.0,1246.295,,,,54,,,,387,probe-13,,,,,1,[object Object],204,5,0,
,do_trial,460,2522447,0.0-435.0-0.0,484.13,,,,49,"0,0,1",6,blank,388,null,0.702478832,0.406224487,0.545377201,0,,,,,,
,do_trial,461,2526875,0.0-436.0-0.0,882.7850001,,,,50,"0,1,1",6,blank,389,null,0.477995907,0.589774948,0.479798785,1,,,,,,
,do_trial,462,2530829,0.0-437.0-0.0,404.4250001,,,,50,"0,0,1",6,blank,390,null,0.364753061,0.584974461,0.497384034,0,,,,,,
,do_recog,463,2533367,0.0-438.0-0.0,1029.875,,,,56,,,,391,probe-22,,,,,1,[object Object],82,2,1,
,do_trial,464,2537684,0.0-439.0-0.0,769.0050001,,,,50,"1,1,1",6,blank,392,null,0.330777654,0.741828899,0.497596516,1,,,,,,
,do_recog,465,2539949,0.0-440.0-0.0,753.4399999,,,,56,,,,393,probe-144,,,,,1,[object Object],87,2,1,
,do_trial,466,2543936,0.0-441.0-0.0,438.08,,,,50,"1,1,1",6,blank,394,null,0.312319741,0.708794806,0.479146204,1,,,,,,
,do_recog,467,2546481,0.0-442.0-0.0,1035.44,,,,56,,,,395,probe-46,,,,,1,[object Object],168,4,1,
,do_trial,468,2550467,0.0-443.0-0.0,437.01,,,,50,"0,1,1",6,blank,396,null,0.062482701,0.689746634,0.55749949,1,,,,,,
,do_recog,469,2552641,0.0-444.0-0.0,665.3199999,,,,56,,,,397,probe-122,,,,,1,[object Object],80,2,1,
,do_trial,470,2556682,0.0-445.0-0.0,493.09,,,,50,"0,1,0",6,blank,398,null,0.08368135,0.843620309,0.516831893,1,,,,,,
,do_recog,471,2559961,0.0-446.0-0.0,1767.375,,,,56,,,,399,probe-245,,,,,0,[object Object],null,null,0,
,do_trial,472,2563989,0.0-447.0-0.0,480.3299999,,,,50,"0,1,1",6,blank,400,null,0.21836403,0.843302411,0.459916044,1,,,,,,
,do_recog,473,2566827,0.0-448.0-0.0,1331.615,,,,56,,,,401,probe-240,,,,,1,[object Object],167,4,1,
,do_trial,474,2571234,0.0-449.0-0.0,858.065,,,,50,"0,0,0",6,blank,402,null,0.241187987,0.822334744,0.393367401,0,,,,,,
,do_recog,475,2573798,0.0-450.0-0.0,1057.48,,,,56,,,,403,probe-68,,,,,1,[object Object],88,2,1,
,do_trial,476,2577984,0.0-451.0-0.0,637.7600001,,,,51,"0,1,0",6,blank,404,null,0.073865978,0.831364329,0.335373827,0,,,,,,
,do_recog,477,2580366,0.0-452.0-0.0,872.1750001,,,,56,,,,405,probe-18,,,,,1,[object Object],46,1,1,
,do_trial,478,2584391,0.0-453.0-0.0,476.3099998,,,,50,"0,1,0",6,blank,406,null,0.170768529,0.901506257,0.289584078,1,,,,,,
,do_trial,479,2588642,0.0-454.0-0.0,702.4350001,,,,50,"0,0,0",6,blank,407,null,0.095923748,0.7409988,0.429011621,0,,,,,,
,do_trial,480,2593079,0.0-455.0-0.0,887.7049999,,,,50,"1,1,0",6,blank,408,null,0.155643945,0.797243475,0.483653105,1,,,,,,
,do_trial,481,2597279,0.0-456.0-0.0,650.045,,,,50,"0,1,0",6,blank,409,null,0.14762466,0.68888732,0.443057374,1,,,,,,
,do_trial,482,2601616,0.0-457.0-0.0,787.9599999,,,,50,"1,1,1",6,blank,410,null,0.182199638,0.701532309,0.428083712,1,,,,,,
,do_trial,483,2605594,0.0-458.0-0.0,434.3150002,,,,50,"0,1,0",6,blank,411,null,0.13528172,0.748390513,0.481955233,1,,,,,,
,do_trial,484,2609510,0.0-459.0-0.0,369.465,,,,50,"0,1,1",6,blank,412,null,0.094654437,0.712363658,0.526600082,1,,,,,,
,do_recog,485,2612102,0.0-460.0-0.0,1080.97,,,,56,,,,413,probe-80,,,,,1,[object Object],127,3,1,
,do_trial,486,2616318,0.0-461.0-0.0,668.415,,,,50,"0,1,0",6,blank,414,null,0.138216565,0.870729128,0.5239623,1,,,,,,
,do_recog,487,2618837,0.0-462.0-0.0,1013.285,,,,56,,,,415,probe-241,,,,,0,[object Object],null,null,0,
,do_trial,488,2623099,0.0-463.0-0.0,712.785,,,,50,"0,1,0",6,blank,416,null,0.057862281,0.779762017,0.482812121,1,,,,,,
,do_recog,489,2625974,0.0-464.0-0.0,1364.925,,,,55,,,,417,probe-246,,,,,0,[object Object],null,null,0,
,do_trial,490,2630057,0.0-465.0-0.0,533.1350002,,,,50,"0,1,1",6,blank,418,null,0.088556894,0.786373648,0.43525977,1,,,,,,
,do_recog,491,2632917,0.0-466.0-0.0,1353.645,,,,54,,,,419,probe-250,,,,,0,[object Object],null,null,1,
,do_pick_best_pirate,492,2638993,0.0-467.0-0.0,5066.105,,,,50,,,,,,,,,,,,,,,
,do_pick_best_pirate,493,2642710,0.0-468.0-0.0,2706.37,,,,50,,,,,,,,,,,,,,,
,do_pick_best_pirate,494,2647326,0.0-469.0-0.0,3608.83,,,,51,,,,,,,,,,,,,,,
,do_pick_best_pirate,495,2650675,0.0-470.0-0.0,2339.195,,,,50,,,,,,,,,,,,,,,
,do_pick_best_pirate,496,2653090,0.0-471.0-0.0,1404.935,,,,50,,,,,,,,,,,,,,,
,do_pick_best_pirate,497,2656053,0.0-472.0-0.0,1953.97,,,,51,,,,,,,,,,,,,,,
,html-keyboard-response,498,2662452,0.0-473.0-0.0,6398.16,<div class='center'>You are all done with the experiment! You made $15 plus $3 in bonus payment!! Thank you for participating. You will recieve your payment within 3 days<p><b>[Press the space bar to end the experiment]</b></p></div>,32,,,,,,,,,,,,,,,,,