"success","trial_type","trial_index","time_elapsed","internal_node_id","interactions","blur_events","focus_events","fullscreenenter_events","fullscreenexit_events","rt","stimulus","key_press","subject_id","participant_id","age","gender","prompt","response","choice_outcomes","context_n","context_img_id","trial_n","probe_img_id","pR_red","pR_white","pR_black","outcome","contextArray_ind","validImageProbes","invalidImageProbes","pRew_Red","pRew_White","pRew_Black","availableForMemProbe","choice_blocks"
"true","fullscreen","0","2667","0.0-0.0","""event"",""trial"",""time""
""fullscreenenter"",""0"",""1705""
","
","
","""event"",""trial"",""time""
""fullscreenenter"",""0"",""1705""
","
","","","","","","","","","","","","","","","","","","","","","","","","","",""
"","pavlovia","1","2674","0.0-1.0","""event"",""trial"",""time""
""fullscreenenter"",""0"",""1705""
","
","
","""event"",""trial"",""time""
""fullscreenenter"",""0"",""1705""
","
","","","","","","","","","","","","","","","","","","","","","","","","","",""
"","instruc1","2","47822","0.0-2.0","""event"",""trial"",""time""
""fullscreenenter"",""0"",""1705""
","
","
","""event"",""trial"",""time""
""fullscreenenter"",""0"",""1705""
","
","null","run_exp/static/audio/clip_1_welcome.m4a","null","347","894","21","Female","<div class='center'><p>Welcome! This is the first part of the study. It will last ~30 minutes. In part 1 and part 2 of the study, you are the head captain of a pirate ship traveling around the world to different islands. You will play a few different games throughout these two parts. Here is an overview of them:</p><br><p>Part 1 (today)</p><p>1. Instructions, practice game, and quiz</p><p>2. Pick a pirate game on 6 different islands</p><br><p>Part 2 (tomorrow)</p><p>3. Pick a pirate game and memory game</p><p>4. Where did you see this ship? </p></div>","","","","","","","","","","","","","","","","","",""
"","html-keyboard-response","3","49546","0.0-3.0","""event"",""trial"",""time""
""fullscreenenter"",""0"",""1705""
","
","
","""event"",""trial"",""time""
""fullscreenenter"",""0"",""1705""
","
","1721.2999999523163","<div class='center'><p>Welcome! This is the first part of the study. It will last ~30 minutes. In part 1 and part 2 of the study, you are the head captain of a pirate ship traveling around the world to different islands. You will play a few different games throughout these two parts. Here is an overview of them:</p><br><p>Part 1 (today)</p><p>1. Instructions, practice game, and quiz</p><p>2. Pick a pirate game on 6 different islands</p><br><p>Part 2 (tomorrow)</p><p>3. Pick a pirate game and memory game</p><p>4. Where did you see this ship? </p><p><b>[Press the space bar to continue]</b></p></div>","32","","","","","","","","","","","","","","","","","","","","","","",""
"","instruc2","4","54860","0.0-4.0","""event"",""trial"",""time""
""fullscreenenter"",""0"",""1705""
","
","
","""event"",""trial"",""time""
""fullscreenenter"",""0"",""1705""
","
","null","run_exp/static/audio/clip_2_different_places.m4a","null","","","","","<div class='center'><p>Today, you’ll visit these 6 islands on your journey. You'll be able to see these islands from your ship.</p><p><img src='run_exp/static/images/contexts/all_contexts.png' height='500'></p></div>","","","","","","","","","","","","","","","","","",""
"","html-keyboard-response","5","56541","0.0-5.0","""event"",""trial"",""time""
""fullscreenenter"",""0"",""1705""
","
","
","""event"",""trial"",""time""
""fullscreenenter"",""0"",""1705""
","
","1677.800000011921","<div class='center'><p>Today, you’ll visit these 6 islands on your journey. You'll be able to see these islands from your ship.</p><p><img src='run_exp/static/images/contexts/all_contexts.png' height='500'></p><p><b>[Press the space bar to continue]</b></p></div>","32","","","","","","","","","","","","","","","","","","","","","","",""
"","instruc3","6","66252","0.0-6.0","""event"",""trial"",""time""
""fullscreenenter"",""0"",""1705""
","
","
","""event"",""trial"",""time""
""fullscreenenter"",""0"",""1705""
","
","null","run_exp/static/audio/clip_3_goal_of_game_1.m4a","null","","","","","<div class='center'><p> The pirates on your ship will rob other ships as they leave the island.</p> These ships have just sold their goods to the islanders, so they will be filled with lots and lots of gold.</p><p><img src='run_exp/static/images/tutorial/ship_center.png' height='400'></p></div>","","","","","","","","","","","","","","","","","",""
"","html-keyboard-response","7","67854","0.0-7.0","""event"",""trial"",""time""
""fullscreenenter"",""0"",""1705""
","
","
","""event"",""trial"",""time""
""fullscreenenter"",""0"",""1705""
","
","1599.4000000357628","<div class='center'><p> The pirates on your ship will rob other ships as they leave the island.</p> These ships have just sold their goods to the islanders, so they will be filled with lots and lots of gold.</p><p><img src='run_exp/static/images/tutorial/ship_center.png' height='400'></p><p><b>[Press the space bar to continue]</b></p></div>","32","","","","","","","","","","","","","","","","","","","","","","",""
"","instruc4","8","95864","0.0-8.0","""event"",""trial"",""time""
""fullscreenenter"",""0"",""1705""
","
","
","""event"",""trial"",""time""
""fullscreenenter"",""0"",""1705""
","
","null","run_exp/static/audio/clip_4_goal_of_game_2.m4a","null","","","","","<div class='center'><p>As the head captain, you do not have to rob any ships yourself. Another pirate will be doing the robbing for you. First, you will choose a pirate to rob the next ship.</p><p><img src='run_exp/static/images/tutorial/pirates_all_crop.png' height='200'></p><p>Then, you'll see if the pirate successfully robbed the ship of their gold. If they were successful, then you'll get a stack of gold coins like this:</p><p><img src='run_exp/static/images/tutorial/reward.png' height='150'></p><p> If they were <b>not</b> successful, then you'll get no gold coins, and you'll see a big red x like this: </p><p><img src='run_exp/static/images/tutorial/reward_no.png' height='150'></p><p> How much bonus money you make is based on how many gold coins you collect.</p><div>","","","","","","","","","","","","","","","","","",""
"","html-keyboard-response","9","97304","0.0-9.0","""event"",""trial"",""time""
""fullscreenenter"",""0"",""1705""
","
","
","""event"",""trial"",""time""
""fullscreenenter"",""0"",""1705""
","
","1437","<div class='center'><p>As the head captain, you do not have to rob any ships yourself. Another pirate will be doing the robbing for you. First, you will choose a pirate to rob the next ship.</p><p><img src='run_exp/static/images/tutorial/pirates_all_crop.png' height='200'></p><p>Then, you'll see if the pirate successfully robbed the ship of their gold. If they were successful, then you'll get a stack of gold coins like this:</p><p><img src='run_exp/static/images/tutorial/reward.png' height='150'></p><p> If they were <b>not</b> successful, then you'll get no gold coins, and you'll see a big red x like this: </p><p><img src='run_exp/static/images/tutorial/reward_no.png' height='150'></p><p> How much bonus money you make is based on how many gold coins you collect.</p<p><b>[Press the space bar to continue]</b></p></div>","32","","","","","","","","","","","","","","","","","","","","","","",""
"","instruc5","10","118341","0.0-10.0","""event"",""trial"",""time""
""fullscreenenter"",""0"",""1705""
","
","
","""event"",""trial"",""time""
""fullscreenenter"",""0"",""1705""
","
","21034.899999976158","run_exp/static/audio/clip_5_probabilistic.m4a","49","","","","","<div class='center'><p>Even the most skilled pirate can not rob EVERY ship.</p><p> Some ships will have very strong protections against pirate attacks.</p><p> Blue beard, here, is very, very good at robbing ships, but he won't be successful every time he tries to rob one.</p><p> You can press the <b>‘1’</b> key on the keyboard to choose him.</p><p> Try choosing him 10 times to see how often he succeeds at robbing a ship. </p><p><img src='run_exp/static/images/tutorial/blue.png' height='500'></p></div>","","","","","","","","","","","","","","","","","",""
"","html-keyboard-response","11","119849","0.0-11.0","""event"",""trial"",""time""
""fullscreenenter"",""0"",""1705""
","
","
","""event"",""trial"",""time""
""fullscreenenter"",""0"",""1705""
","
","null","<div class='center'><p><img src='run_exp/static/images/tutorial/blue_win.png' height='500'></p></div>","null","","","","","","","","","","","","","","","","","","","","","","",""
"","html-keyboard-response","12","121338","0.0-12.0","""event"",""trial"",""time""
""fullscreenenter"",""0"",""1705""
","
","
","""event"",""trial"",""time""
""fullscreenenter"",""0"",""1705""
","
","1486.300000011921","<div class='center'><img src='run_exp/static/images/tutorial/blue.png' height='500'></p></div>","49","","","","","","","","","","","","","","","","","","","","","","",""
"","html-keyboard-response","13","122841","0.0-13.0","""event"",""trial"",""time""
""fullscreenenter"",""0"",""1705""
","
","
","""event"",""trial"",""time""
""fullscreenenter"",""0"",""1705""
","
","null","<div class='center'><p><img src='run_exp/static/images/tutorial/blue_win.png' height='500'></p></div>","null","","","","","","","","","","","","","","","","","","","","","","",""
"","html-keyboard-response","14","123360","0.0-14.0","""event"",""trial"",""time""
""fullscreenenter"",""0"",""1705""
","
","
","""event"",""trial"",""time""
""fullscreenenter"",""0"",""1705""
","
","517.0999999642372","<div class='center'><img src='run_exp/static/images/tutorial/blue.png' height='500'></p></div>","49","","","","","","","","","","","","","","","","","","","","","","",""
"","html-keyboard-response","15","124864","0.0-15.0","""event"",""trial"",""time""
""fullscreenenter"",""0"",""1705""
","
","
","""event"",""trial"",""time""
""fullscreenenter"",""0"",""1705""
","
","null","<div class='center'><p><img src='run_exp/static/images/tutorial/blue_win.png' height='500'></p></div>","null","","","","","","","","","","","","","","","","","","","","","","",""
"","html-keyboard-response","16","125120","0.0-16.0","""event"",""trial"",""time""
""fullscreenenter"",""0"",""1705""
","
","
","""event"",""trial"",""time""
""fullscreenenter"",""0"",""1705""
","
","255.0999999642372","<div class='center'><img src='run_exp/static/images/tutorial/blue.png' height='500'></p></div>","49","","","","","","","","","","","","","","","","","","","","","","",""
"","html-keyboard-response","17","126627","0.0-17.0","""event"",""trial"",""time""
""fullscreenenter"",""0"",""1705""
","
","
","""event"",""trial"",""time""
""fullscreenenter"",""0"",""1705""
","
","null","<div class='center'><p><img src='run_exp/static/images/tutorial/blue_no_win.png' height='500'></p></div>","null","","","","","","","","","","","","","","","","","","","","","","",""
"","html-keyboard-response","18","126924","0.0-18.0","""event"",""trial"",""time""
""fullscreenenter"",""0"",""1705""
","
","
","""event"",""trial"",""time""
""fullscreenenter"",""0"",""1705""
","
","295","<div class='center'><img src='run_exp/static/images/tutorial/blue.png' height='500'></p></div>","49","","","","","","","","","","","","","","","","","","","","","","",""
"","html-keyboard-response","19","128426","0.0-19.0","""event"",""trial"",""time""
""fullscreenenter"",""0"",""1705""
","
","
","""event"",""trial"",""time""
""fullscreenenter"",""0"",""1705""
","
","null","<div class='center'><p><img src='run_exp/static/images/tutorial/blue_win.png' height='500'></p></div>","null","","","","","","","","","","","","","","","","","","","","","","",""
"","html-keyboard-response","20","128903","0.0-20.0","""event"",""trial"",""time""
""fullscreenenter"",""0"",""1705""
","
","
","""event"",""trial"",""time""
""fullscreenenter"",""0"",""1705""
","
","476.0999999642372","<div class='center'><img src='run_exp/static/images/tutorial/blue.png' height='500'></p></div>","49","","","","","","","","","","","","","","","","","","","","","","",""
"","html-keyboard-response","21","130406","0.0-21.0","""event"",""trial"",""time""
""fullscreenenter"",""0"",""1705""
","
","
","""event"",""trial"",""time""
""fullscreenenter"",""0"",""1705""
","
","null","<div class='center'><p><img src='run_exp/static/images/tutorial/blue_win.png' height='500'></p></div>","null","","","","","","","","","","","","","","","","","","","","","","",""
"","html-keyboard-response","22","130691","0.0-22.0","""event"",""trial"",""time""
""fullscreenenter"",""0"",""1705""
","
","
","""event"",""trial"",""time""
""fullscreenenter"",""0"",""1705""
","
","281.4000000357628","<div class='center'><img src='run_exp/static/images/tutorial/blue.png' height='500'></p></div>","49","","","","","","","","","","","","","","","","","","","","","","",""
"","html-keyboard-response","23","132194","0.0-23.0","""event"",""trial"",""time""
""fullscreenenter"",""0"",""1705""
","
","
","""event"",""trial"",""time""
""fullscreenenter"",""0"",""1705""
","
","null","<div class='center'><p><img src='run_exp/static/images/tutorial/blue_win.png' height='500'></p></div>","null","","","","","","","","","","","","","","","","","","","","","","",""
"","html-keyboard-response","24","132469","0.0-24.0","""event"",""trial"",""time""
""fullscreenenter"",""0"",""1705""
","
","
","""event"",""trial"",""time""
""fullscreenenter"",""0"",""1705""
","
","272.30000001192093","<div class='center'><img src='run_exp/static/images/tutorial/blue.png' height='500'></p></div>","49","","","","","","","","","","","","","","","","","","","","","","",""
"","html-keyboard-response","25","133971","0.0-25.0","""event"",""trial"",""time""
""fullscreenenter"",""0"",""1705""
","
","
","""event"",""trial"",""time""
""fullscreenenter"",""0"",""1705""
","
","null","<div class='center'><p><img src='run_exp/static/images/tutorial/blue_no_win.png' height='500'></p></div>","null","","","","","","","","","","","","","","","","","","","","","","",""
"","html-keyboard-response","26","134270","0.0-26.0","""event"",""trial"",""time""
""fullscreenenter"",""0"",""1705""
","
","
","""event"",""trial"",""time""
""fullscreenenter"",""0"",""1705""
","
","296.7999999523163","<div class='center'><img src='run_exp/static/images/tutorial/blue.png' height='500'></p></div>","49","","","","","","","","","","","","","","","","","","","","","","",""
"","html-keyboard-response","27","135777","0.0-27.0","""event"",""trial"",""time""
""fullscreenenter"",""0"",""1705""
","
","
","""event"",""trial"",""time""
""fullscreenenter"",""0"",""1705""
","
","null","<div class='center'><p><img src='run_exp/static/images/tutorial/blue_win.png' height='500'></p></div>","null","","","","","","","","","","","","","","","","","","","","","","",""
"","html-keyboard-response","28","136001","0.0-28.0","""event"",""trial"",""time""
""fullscreenenter"",""0"",""1705""
","
","
","""event"",""trial"",""time""
""fullscreenenter"",""0"",""1705""
","
","222.10000002384186","<div class='center'><img src='run_exp/static/images/tutorial/blue.png' height='500'></p></div>","49","","","","","","","","","","","","","","","","","","","","","","",""
"","html-keyboard-response","29","137507","0.0-29.0","""event"",""trial"",""time""
""fullscreenenter"",""0"",""1705""
","
","
","""event"",""trial"",""time""
""fullscreenenter"",""0"",""1705""
","
","null","<div class='center'><p><img src='run_exp/static/images/tutorial/blue_win.png' height='500'></p></div>","null","","","","","","","","","","","","","","","","","","","","","","",""
"","instruc6","30","142931","0.0-30.0","""event"",""trial"",""time""
""fullscreenenter"",""0"",""1705""
","
","
","""event"",""trial"",""time""
""fullscreenenter"",""0"",""1705""
","
","null","run_exp/static/audio/clip_6_blue_beard_outcome.m4a","null","","","","","<div class='center'><p> See, he succeeded in robbing the ships most of the time but not every time. </p></div>","","","","","","","","","","","","","","","","","",""
"","html-keyboard-response","31","144065","0.0-31.0","""event"",""trial"",""time""
""fullscreenenter"",""0"",""1705""
","
","
","""event"",""trial"",""time""
""fullscreenenter"",""0"",""1705""
","
","1132.0999999642372","<div class='center'><p> See, he succeeded in robbing the ships most of the time but not every time. </p><p><b>[Press the space bar to continue]</b></p></div>","32","","","","","","","","","","","","","","","","","","","","","","",""
"","audio-keyboard-response","32","150667","0.0-32.0","""event"",""trial"",""time""
""fullscreenenter"",""0"",""1705""
","
","
","""event"",""trial"",""time""
""fullscreenenter"",""0"",""1705""
","
","6600.199999988079","run_exp/static/audio/clip_7_pick_pirate.m4a","51","","","","","","","","","","","","","","","","","","","","","","",""
"","audio-keyboard-response","33","153416","0.0-33.0-0.0","""event"",""trial"",""time""
""fullscreenenter"",""0"",""1705""
","
","
","""event"",""trial"",""time""
""fullscreenenter"",""0"",""1705""
","
","2745","run_exp/static/audio/clip_8_chosen_pirate_win.m4a","32","","","","","","","","","","","","","","","","","","","","","","",""
"","audio-keyboard-response","34","155744","0.0-33.0-1.0","""event"",""trial"",""time""
""fullscreenenter"",""0"",""1705""
","
","
","""event"",""trial"",""time""
""fullscreenenter"",""0"",""1705""
","
","2325.699999988079","run_exp/static/audio/clip_9_pick_a_pirate_again.m4a","51","","","","","","","","","","","","","","","","","","","","","","",""
"","audio-keyboard-response","35","158910","0.0-34.0-0.0","""event"",""trial"",""time""
""fullscreenenter"",""0"",""1705""
","
","
","""event"",""trial"",""time""
""fullscreenenter"",""0"",""1705""
","
","3162.699999988079","run_exp/static/audio/clip_10_chosen_pirate_loss.m4a","32","","","","","","","","","","","","","","","","","","","","","","",""
"","instruc9","36","164415","0.0-35.0-0.0","""event"",""trial"",""time""
""fullscreenenter"",""0"",""1705""
","
","
","""event"",""trial"",""time""
""fullscreenenter"",""0"",""1705""
","
","null","run_exp/static/audio/clip_11_time_out.m4a","null","","","","","<div class='center'><p>If you don’t make your choice fast enough, you’ll have to wait a few seconds before you can make another one. </p><p><img src='run_exp/static/images/miscellaneous/hurry_up.png' height='500'></p></div>","","","","","","","","","","","","","","","","","",""
"","html-keyboard-response","37","165554","0.0-35.0-1.0","""event"",""trial"",""time""
""fullscreenenter"",""0"",""1705""
","
","
","""event"",""trial"",""time""
""fullscreenenter"",""0"",""1705""
","
","1137","<div class='center'><p>If you don’t make your choice fast enough, you’ll have to wait a few seconds before you can make another one. </p><p><img src='run_exp/static/images/miscellaneous/hurry_up.png' height='500'></p><p><b>[Press the space bar to continue]</b></p></div>","32","","","","","","","","","","","","","","","","","","","","","","",""
"","instruc10","38","204650","0.0-35.0-2.0","""event"",""trial"",""time""
""fullscreenenter"",""0"",""1705""
","
","
","""event"",""trial"",""time""
""fullscreenenter"",""0"",""1705""
","
","null","run_exp/static/audio/clip_12_probe.m4a","null","","","","","<div class='center'><p>Once you've chosen a pirate, you’ll be shown the ship they are robbing. You will never rob the same ship twice. Ships can be told apart from one another by the image on them. These are the goods that they sell. See, this ship has a travel mug on it. </p><p> You’ll have to remember which island you saw each ship on. You will win more gold coins and hence more bonus money if you remember correctly! To help you remember, you can imagine a story. For example, here, you could imagine a mug full of water in the desert. Or, as another example, if on the forest island, your pirate robbed a ship with an apple on it, you could imagine an apple falling from a tree in the forest. </p><p><img src='run_exp/static/images/tutorial/example_probe.png' height='500'></p></div>","","","","","","","","","","","","","","","","","",""
"","html-keyboard-response","39","205354","0.0-35.0-3.0","""event"",""trial"",""time""
""fullscreenenter"",""0"",""1705""
","
","
","""event"",""trial"",""time""
""fullscreenenter"",""0"",""1705""
","
","700.6999999880791","<div class='center'><p>Once you've chosen a pirate, you’ll be shown the ship they are robbing. You will never rob the same ship twice. Ships can be told apart from one another by the image on them. These are the goods that they sell. See, this ship has a travel mug on it. </p><p> You’ll have to remember which island you saw each ship on. You will win more gold coins and hence more bonus money if you remember correctly! To help you remember, you can imagine a story. For example, here, you could imagine a mug full of water in the desert. Or, as another example, if on the forest island, your pirate robbed a ship with an apple on it, you could imagine an apple falling from a tree in the forest. </p><p><img src='run_exp/static/images/tutorial/example_probe.png' height='500'></p><p><b>[Press the space bar to continue]</b></p></div>","32","","","","","","","","","","","","","","","","","","","","","","",""
"","instruc11","40","221760","0.0-35.0-4.0","""event"",""trial"",""time""
""fullscreenenter"",""0"",""1705""
","
","
","""event"",""trial"",""time""
""fullscreenenter"",""0"",""1705""
","
","null","run_exp/static/audio/clip_13_changepoint.m4a","null","","","","","<div class='center'><p>How successful a pirate is at robbing ships will depend on the island you’re on.</p><p> A pirate may have visited this island many times before and gained a lot of practice robbing ships there.</p><p>So, they’re more likely to be successful than a pirate who has never visited the island before.</p></div>","","","","","","","","","","","","","","","","","",""
"","html-keyboard-response","41","230745","0.0-35.0-5.0","""event"",""trial"",""time""
""fullscreenenter"",""0"",""1705""
","
","
","""event"",""trial"",""time""
""fullscreenenter"",""0"",""1705""
","
","8983.199999988079","<div class='center'><p>How successful a pirate is at robbing ships will depend on the island you’re on.</p><p> A pirate may have visited this island many times before and gained a lot of practice robbing ships there.</p><p>So, they’re more likely to be successful than a pirate who has never visited the island before.</p><p><b>[Press the space bar to continue]</b></p></div>","32","","","","","","","","","","","","","","","","","","","","","","",""
"","instruc12","42","271831","0.0-35.0-6.0","""event"",""trial"",""time""
""fullscreenenter"",""0"",""1705""
","
","
","""event"",""trial"",""time""
""fullscreenenter"",""0"",""1705""
","
","null","run_exp/static/audio/clip_14_drift.m4a","null","","","","","<div class='center'><p>How successful a pirate is at robbing ships can also change over the time spent on the island. </p><p> Ships may hear from islanders about the pirates coming and will improve their protections against the attack. This may make it harder to rob them.</p><p> Ships may also become lazy and weaken the strength of their protections. This may make it easier to rob them.</p><br><p>Things are always changing on the high seas! So, try your best to pay attention!</p><p><img src='run_exp/static/images/tutorial/contingency.png' height='500'></p></div>","","","","","","","","","","","","","","","","","",""
"","html-keyboard-response","43","272794","0.0-35.0-7.0","""event"",""trial"",""time""
""fullscreenenter"",""0"",""1705""
","
","
","""event"",""trial"",""time""
""fullscreenenter"",""0"",""1705""
","
","960","<div class='center'><p>How successful a pirate is at robbing ships can also change over the time spent on the island. </p><p> Ships may hear from islanders about the pirates coming and will improve their protections against the attack. This may make it harder to rob them.</p><p> Ships may also become lazy and weaken the strength of their protections. This may make it easier to rob them.</p><br><p>Things are always changing on the high seas! So, try your best to pay attention!</p><p><img src='run_exp/static/images/tutorial/contingency.png' height='500'></p><p><b>[Press the space bar to continue]</b></p></div>","32","","","","","","","","","","","","","","","","","","","","","","",""
"","instruc13","44","307992","0.0-35.0-8.0","""event"",""trial"",""time""
""fullscreenenter"",""0"",""1705""
","
","
","""event"",""trial"",""time""
""fullscreenenter"",""0"",""1705""
","
","null","run_exp/static/audio/clip_15_summary.m4a","null","","","","","<div class='center'><p>Let's go over the instructions quickly again. You have two important things to do: </p><b><p> 1. Pick the pirate who is the best at robbing ships on the current island. </p></b><b><p> 2. Remember on which island a ship was robbed.</p> </b><p>The amount of bonus money you can win depends on both.</p><p><br><p>Let’s try a practice game. The game will start by showing you the pirates. First, pick a pirate using the <b> 1, 2, 3 </b> keys on your keyboard. When you are shown a ship, try to remember which island you’re on by making up a story.</p><p>This is just a practice game, so you’re not playing for money. </p><p> Good luck! This game will be very difficult but try your best!</p></div>","","","","","","","","","","","","","","","","","",""
"","html-keyboard-response","45","308583","0.0-35.0-9.0","""event"",""trial"",""time""
""fullscreenenter"",""0"",""1705""
","
","
","""event"",""trial"",""time""
""fullscreenenter"",""0"",""1705""
","
","589.1999999880791","<div class='center'><p>Let's go over the instructions quickly again. You have two important things to do: </p><b><p> 1. Pick the pirate who is the best at robbing ships on the current island. </p></b><b><p> 2. Remember on which island a ship was robbed.</p> </b><p>The amount of bonus money you can win depends on both.</p><p><br><p>Let’s try a practice game. The game will start by showing you the pirates. First, pick a pirate using the <b> 1, 2, 3 </b> keys on your keyboard. When you are shown a ship, try to remember which island you’re on by making up a story.</p><p>This is just a practice game, so you’re not playing for money. </p><p> Good luck! This game will be very difficult but try your best!</p><p><b>[Press the space bar to continue]</b></p></div>","32","","","","","","","","","","","","","","","","","","","","","","",""
"","do_welcome","46","312594","0.0-35.0-10.0","""event"",""trial"",""time""
""fullscreenenter"",""0"",""1705""
","
","
","""event"",""trial"",""time""
""fullscreenenter"",""0"",""1705""
","
","null","","","","","","","","null","","","","","","","","","","","","","","","","",""
"","do_trial","47","318606","0.0-35.0-11.0","""event"",""trial"",""time""
""fullscreenenter"",""0"",""1705""
","
","
","""event"",""trial"",""time""
""fullscreenenter"",""0"",""1705""
","
","null","","","","","","","","null","1,0,0","","","","","","","","","","","","","","","",""
"","html-keyboard-response","48","319612","0.0-36.0-0.0","""event"",""trial"",""time""
""fullscreenenter"",""0"",""1705""
","
","
","""event"",""trial"",""time""
""fullscreenenter"",""0"",""1705""
","
","null","<p></p>","null","","","","","","","","","","","","","","","","","","","","","","",""
"","do_trial","49","324750","0.0-36.0-1.0","""event"",""trial"",""time""
""fullscreenenter"",""0"",""1705""
","
","
","""event"",""trial"",""time""
""fullscreenenter"",""0"",""1705""
","
","628.8000000119209","","","","","","","","49","1,0,0","","","","","","","","","","","","","","","",""
"","html-keyboard-response","50","325757","0.0-37.0-0.0","""event"",""trial"",""time""
""fullscreenenter"",""0"",""1705""
","
","
","""event"",""trial"",""time""
""fullscreenenter"",""0"",""1705""
","
","null","<p></p>","null","","","","","","","","","","","","","","","","","","","","","","",""
"","do_trial","51","331529","0.0-37.0-1.0","""event"",""trial"",""time""
""fullscreenenter"",""0"",""1705""
","
","
","""event"",""trial"",""time""
""fullscreenenter"",""0"",""1705""
","
","1260.2000000476837","","","","","","","","51","1,1,0","","","","","","","","","","","","","","","",""
"","html-keyboard-response","52","332536","0.0-38.0-0.0","""event"",""trial"",""time""
""fullscreenenter"",""0"",""1705""
","
","
","""event"",""trial"",""time""
""fullscreenenter"",""0"",""1705""
","
","null","<p></p>","null","","","","","","","","","","","","","","","","","","","","","","",""
"","do_trial","53","337701","0.0-38.0-1.0","""event"",""trial"",""time""
""fullscreenenter"",""0"",""1705""
","
","
","""event"",""trial"",""time""
""fullscreenenter"",""0"",""1705""
","
","656.3999999761581","","","","","","","","49","1,0,1","","","","","","","","","","","","","","","",""
"","html-keyboard-response","54","338707","0.0-39.0-0.0","""event"",""trial"",""time""
""fullscreenenter"",""0"",""1705""
","
","
","""event"",""trial"",""time""
""fullscreenenter"",""0"",""1705""
","
","null","<p></p>","null","","","","","","","","","","","","","","","","","","","","","","",""
"","do_trial","55","344906","0.0-39.0-1.0","""event"",""trial"",""time""
""fullscreenenter"",""0"",""1705""
","
","
","""event"",""trial"",""time""
""fullscreenenter"",""0"",""1705""
","
","1685.5","","","","","","","","50","0,1,0","","","","","","","","","","","","","","","",""
"","html-keyboard-response","56","345912","0.0-40.0-0.0","""event"",""trial"",""time""
""fullscreenenter"",""0"",""1705""
","
","
","""event"",""trial"",""time""
""fullscreenenter"",""0"",""1705""
","
","null","<p></p>","null","","","","","","","","","","","","","","","","","","","","","","",""
"","do_trial","57","351266","0.0-40.0-1.0","""event"",""trial"",""time""
""fullscreenenter"",""0"",""1705""
","
","
","""event"",""trial"",""time""
""fullscreenenter"",""0"",""1705""
","
","844.5","","","","","","","","49","1,0,0","","","","","","","","","","","","","","","",""
"","do_bye","58","352779","0.0-41.0-0.0","""event"",""trial"",""time""
""fullscreenenter"",""0"",""1705""
","
","
","""event"",""trial"",""time""
""fullscreenenter"",""0"",""1705""
","
","null","","","","","","","","null","","","","","","","","","","","","","","","","",""
"","do_travel","59","361784","0.0-41.0-1.0","""event"",""trial"",""time""
""fullscreenenter"",""0"",""1705""
","
","
","""event"",""trial"",""time""
""fullscreenenter"",""0"",""1705""
","
","null","","","","","","","","null","","","","","","","","","","","","","","","","",""
"","do_welcome","60","365795","0.0-41.0-2.0","""event"",""trial"",""time""
""fullscreenenter"",""0"",""1705""
","
","
","""event"",""trial"",""time""
""fullscreenenter"",""0"",""1705""
","
","null","","","","","","","","null","","","","","","","","","","","","","","","","",""
"","do_trial","61","371247","0.0-41.0-3.0","""event"",""trial"",""time""
""fullscreenenter"",""0"",""1705""
","
","
","""event"",""trial"",""time""
""fullscreenenter"",""0"",""1705""
","
","941","","","","","","","","51","1,0,0","","","","","","","","","","","","","","","",""
"","html-keyboard-response","62","372251","0.0-42.0-0.0","""event"",""trial"",""time""
""fullscreenenter"",""0"",""1705""
","
","
","""event"",""trial"",""time""
""fullscreenenter"",""0"",""1705""
","
","null","<p></p>","null","","","","","","","","","","","","","","","","","","","","","","",""
"","do_trial","63","377594","0.0-42.0-1.0","""event"",""trial"",""time""
""fullscreenenter"",""0"",""1705""
","
","
","""event"",""trial"",""time""
""fullscreenenter"",""0"",""1705""
","
","833.1999999880791","","","","","","","","50","1,0,1","","","","","","","","","","","","","","","",""
"","html-keyboard-response","64","378597","0.0-43.0-0.0","""event"",""trial"",""time""
""fullscreenenter"",""0"",""1705""
","
","
","""event"",""trial"",""time""
""fullscreenenter"",""0"",""1705""
","
","null","<p></p>","null","","","","","","","","","","","","","","","","","","","","","","",""
"","do_trial","65","383663","0.0-43.0-1.0","""event"",""trial"",""time""
""fullscreenenter"",""0"",""1705""
","
","
","""event"",""trial"",""time""
""fullscreenenter"",""0"",""1705""
","
","556.6999999880791","","","","","","","","50","1,1,0","","","","","","","","","","","","","","","",""
"","html-keyboard-response","66","384668","0.0-44.0-0.0","""event"",""trial"",""time""
""fullscreenenter"",""0"",""1705""
","
","
","""event"",""trial"",""time""
""fullscreenenter"",""0"",""1705""
","
","null","<p></p>","null","","","","","","","","","","","","","","","","","","","","","","",""
"","do_trial","67","390042","0.0-44.0-1.0","""event"",""trial"",""time""
""fullscreenenter"",""0"",""1705""
","
","
","""event"",""trial"",""time""
""fullscreenenter"",""0"",""1705""
","
","862.5","","","","","","","","49","0,0,1","","","","","","","","","","","","","","","",""
"","html-keyboard-response","68","391046","0.0-45.0-0.0","""event"",""trial"",""time""
""fullscreenenter"",""0"",""1705""
","
","
","""event"",""trial"",""time""
""fullscreenenter"",""0"",""1705""
","
","null","<p></p>","null","","","","","","","","","","","","","","","","","","","","","","",""
"","do_trial","69","395885","0.0-45.0-1.0","""event"",""trial"",""time""
""fullscreenenter"",""0"",""1705""
","
","
","""event"",""trial"",""time""
""fullscreenenter"",""0"",""1705""
","
","325.19999998807907","","","","","","","","51","1,0,1","","","","","","","","","","","","","","","",""
"","html-keyboard-response","70","399062","0.0-46.0-0.0","""event"",""trial"",""time""
""fullscreenenter"",""0"",""1705""
","
","
","""event"",""trial"",""time""
""fullscreenenter"",""0"",""1705""
","
","3172.099999964237","<div class='center'><p><img src='run_exp/static/images/tutorial/prac_best_pirate.png'  height='500'></p></div>","49","","","","","","","","","","","","","","","","","","","","","","",""
"","html-keyboard-response","71","402354","0.0-47.0-0.0","""event"",""trial"",""time""
""fullscreenenter"",""0"",""1705""
","
","
","""event"",""trial"",""time""
""fullscreenenter"",""0"",""1705""
","
","3290.300000011921","<div class='center'><p>That's correct! Red beard was the best.</p><p><b>[Press the space bar to continue]</b></p></div>","32","","","","","","","","","","","","","","","","","","","","","","",""
"","html-keyboard-response","72","405247","0.0-47.0-1.0","""event"",""trial"",""time""
""fullscreenenter"",""0"",""1705""
","
","
","""event"",""trial"",""time""
""fullscreenenter"",""0"",""1705""
","
","2891.100000023842","<div class='center'><p><img src='run_exp/static/images/tutorial/prac_source.png'  height='500'></p></div>","50","","","","","","","","","","","","","","","","","","","","","","",""
"","html-keyboard-response","73","406676","0.0-48.0-0.0","""event"",""trial"",""time""
""fullscreenenter"",""0"",""1705""
","
","
","""event"",""trial"",""time""
""fullscreenenter"",""0"",""1705""
","
","1427","<div class='center'><p>That's correct! You saw this ship on the cavern island.</p><p><b>[Press the space bar to continue]</b></p></div>","32","","","","","","","","","","","","","","","","","","","","","","",""
"","quiz_beginning","74","417928","0.0-48.0-1.0","""event"",""trial"",""time""
""fullscreenenter"",""0"",""1705""
","
","
","""event"",""trial"",""time""
""fullscreenenter"",""0"",""1705""
","
","null","run_exp/static/audio/clip_16_quiz_intro.m4a","null","","","","","<div class='center'><p>Good job on the practice game! Now, you will be asked some true or false questions to make sure you really understand the rules of the game.</p><p> Press <b>'1'</b> on the keyboard for true and press <b>'2'</b> for false.</p></div>","","","","","","","","","","","","","","","","","",""
"","audio-keyboard-response","75","422317","0.0-48.0-2.0","""event"",""trial"",""time""
""fullscreenenter"",""0"",""1705""
","
","
","""event"",""trial"",""time""
""fullscreenenter"",""0"",""1705""
","
","4387.600000023842","run_exp/static/audio/clip_17_q1.m4a","50","","","","","","","","","","","","","","","","","","","","","","",""
"","q1_err","76","427229","0.0-49.0-0.0","""event"",""trial"",""time""
""fullscreenenter"",""0"",""1705""
","
","
","""event"",""trial"",""time""
""fullscreenenter"",""0"",""1705""
","
","null","run_exp/static/audio/clip_19_wrong_q1.m4a","null","","","","","<div class='center'><p>That’s incorrect. You win bonus money by collecting gold coins.</p></div>","","","","","","","","","","","","","","","","","",""
"","html-keyboard-response","77","428556","0.0-49.0-1.0","""event"",""trial"",""time""
""fullscreenenter"",""0"",""1705""
","
","
","""event"",""trial"",""time""
""fullscreenenter"",""0"",""1705""
","
","1325.199999988079","<div class='center'><p>That’s incorrect. You win bonus money by collecting gold coins.</p><p><b>[Press the space bar to continue]</b></p></div>","32","","","","","","","","","","","","","","","","","","","","","","",""
"","audio-keyboard-response","78","435065","0.0-49.0-2.0","""event"",""trial"",""time""
""fullscreenenter"",""0"",""1705""
","
","
","""event"",""trial"",""time""
""fullscreenenter"",""0"",""1705""
","
","6507.600000023842","run_exp/static/audio/clip_20_q2.m4a","50","","","","","","","","","","","","","","","","","","","","","","",""
"","correct","79","437470","0.0-50.0-0.0","""event"",""trial"",""time""
""fullscreenenter"",""0"",""1705""
","
","
","""event"",""trial"",""time""
""fullscreenenter"",""0"",""1705""
","
","null","run_exp/static/audio/clip_18_correct.m4a","null","","","","","<div class='center'><p>That's correct!</p></div>","","","","","","","","","","","","","","","","","",""
"","html-keyboard-response","80","438445","0.0-50.0-1.0","""event"",""trial"",""time""
""fullscreenenter"",""0"",""1705""
","
","
","""event"",""trial"",""time""
""fullscreenenter"",""0"",""1705""
","
","974.3999999761581","<div class='center'><p>That's correct!</p><p><b>[Press the space bar to continue]</b></p></div>","32","","","","","","","","","","","","","","","","","","","","","","",""
"","audio-keyboard-response","81","444870","0.0-50.0-2.0","""event"",""trial"",""time""
""fullscreenenter"",""0"",""1705""
","
","
","""event"",""trial"",""time""
""fullscreenenter"",""0"",""1705""
","
","6422.900000035763","run_exp/static/audio/clip_22_q3.m4a","50","","","","","","","","","","","","","","","","","","","","","","",""
"","correct","82","447283","0.0-51.0-0.0","""event"",""trial"",""time""
""fullscreenenter"",""0"",""1705""
","
","
","""event"",""trial"",""time""
""fullscreenenter"",""0"",""1705""
","
","null","run_exp/static/audio/clip_18_correct.m4a","null","","","","","<div class='center'><p>That's correct!</p></div>","","","","","","","","","","","","","","","","","",""
"","html-keyboard-response","83","447981","0.0-51.0-1.0","""event"",""trial"",""time""
""fullscreenenter"",""0"",""1705""
","
","
","""event"",""trial"",""time""
""fullscreenenter"",""0"",""1705""
","
","696.8000000119209","<div class='center'><p>That's correct!</p><p><b>[Press the space bar to continue]</b></p></div>","32","","","","","","","","","","","","","","","","","","","","","","",""
"","audio-keyboard-response","84","452367","0.0-51.0-2.0","""event"",""trial"",""time""
""fullscreenenter"",""0"",""1705""
","
","
","""event"",""trial"",""time""
""fullscreenenter"",""0"",""1705""
","
","4384.100000023842","run_exp/static/audio/clip_24_q4.m4a","49","","","","","","","","","","","","","","","","","","","","","","",""
"","correct","85","454771","0.0-52.0-0.0","""event"",""trial"",""time""
""fullscreenenter"",""0"",""1705""
","
","
","""event"",""trial"",""time""
""fullscreenenter"",""0"",""1705""
","
","null","run_exp/static/audio/clip_18_correct.m4a","null","","","","","<div class='center'><p>That's correct!</p></div>","","","","","","","","","","","","","","","","","",""
"","html-keyboard-response","86","455229","0.0-52.0-1.0","""event"",""trial"",""time""
""fullscreenenter"",""0"",""1705""
","
","
","""event"",""trial"",""time""
""fullscreenenter"",""0"",""1705""
","
","456.7000000476837","<div class='center'><p>That's correct!</p><p><b>[Press the space bar to continue]</b></p></div>","32","","","","","","","","","","","","","","","","","","","","","","",""
"","q_all_err","87","461406","0.0-53.0-0.0","""event"",""trial"",""time""
""fullscreenenter"",""0"",""1705""
","
","
","""event"",""trial"",""time""
""fullscreenenter"",""0"",""1705""
","
","null","run_exp/static/audio/clip_26_quiz_redo.m4a","null","","","","","<div class='center'><p>Oops, you missed some questions. Now that you’ve heard the correct answers. Try the quiz again! </p></div>","","","","","","","","","","","","","","","","","",""
"","html-keyboard-response","88","461780","0.0-53.0-1.0","""event"",""trial"",""time""
""fullscreenenter"",""0"",""1705""
","
","
","""event"",""trial"",""time""
""fullscreenenter"",""0"",""1705""
","
","372.4000000357628","<div class='center'><p>Oops, you missed some questions. Now that you’ve heard the correct answers. Try the quiz again! </p><p><b>[Press the space bar to continue]</b></p></div>","32","","","","","","","","","","","","","","","","","","","","","","",""
"","audio-keyboard-response","89","463392","0.0-53.0-2.0","""event"",""trial"",""time""
""fullscreenenter"",""0"",""1705""
","
","
","""event"",""trial"",""time""
""fullscreenenter"",""0"",""1705""
","
","1610.5","run_exp/static/audio/clip_17_q1.m4a","49","","","","","","","","","","","","","","","","","","","","","","",""
"","correct","90","465801","0.0-54.0-0.0","""event"",""trial"",""time""
""fullscreenenter"",""0"",""1705""
","
","
","""event"",""trial"",""time""
""fullscreenenter"",""0"",""1705""
","
","null","run_exp/static/audio/clip_18_correct.m4a","null","","","","","<div class='center'><p>That's correct!</p></div>","","","","","","","","","","","","","","","","","",""
"","html-keyboard-response","91","466042","0.0-54.0-1.0","""event"",""trial"",""time""
""fullscreenenter"",""0"",""1705""
","
","
","""event"",""trial"",""time""
""fullscreenenter"",""0"",""1705""
","
","240","<div class='center'><p>That's correct!</p><p><b>[Press the space bar to continue]</b></p></div>","32","","","","","","","","","","","","","","","","","","","","","","",""
"","audio-keyboard-response","92","467603","0.0-54.0-2.0","""event"",""trial"",""time""
""fullscreenenter"",""0"",""1705""
","
","
","""event"",""trial"",""time""
""fullscreenenter"",""0"",""1705""
","
","1559.5","run_exp/static/audio/clip_20_q2.m4a","50","","","","","","","","","","","","","","","","","","","","","","",""
"","correct","93","470004","0.0-55.0-0.0","""event"",""trial"",""time""
""fullscreenenter"",""0"",""1705""
","
","
","""event"",""trial"",""time""
""fullscreenenter"",""0"",""1705""
","
","null","run_exp/static/audio/clip_18_correct.m4a","null","","","","","<div class='center'><p>That's correct!</p></div>","","","","","","","","","","","","","","","","","",""
"","html-keyboard-response","94","470355","0.0-55.0-1.0","""event"",""trial"",""time""
""fullscreenenter"",""0"",""1705""
","
","
","""event"",""trial"",""time""
""fullscreenenter"",""0"",""1705""
","
","349.80000001192093","<div class='center'><p>That's correct!</p><p><b>[Press the space bar to continue]</b></p></div>","32","","","","","","","","","","","","","","","","","","","","","","",""
"","audio-keyboard-response","95","472111","0.0-55.0-2.0","""event"",""trial"",""time""
""fullscreenenter"",""0"",""1705""
","
","
","""event"",""trial"",""time""
""fullscreenenter"",""0"",""1705""
","
","1754.300000011921","run_exp/static/audio/clip_22_q3.m4a","50","","","","","","","","","","","","","","","","","","","","","","",""
"","correct","96","474505","0.0-56.0-0.0","""event"",""trial"",""time""
""fullscreenenter"",""0"",""1705""
","
","
","""event"",""trial"",""time""
""fullscreenenter"",""0"",""1705""
","
","null","run_exp/static/audio/clip_18_correct.m4a","null","","","","","<div class='center'><p>That's correct!</p></div>","","","","","","","","","","","","","","","","","",""
"","html-keyboard-response","97","474956","0.0-56.0-1.0","""event"",""trial"",""time""
""fullscreenenter"",""0"",""1705""
","
","
","""event"",""trial"",""time""
""fullscreenenter"",""0"",""1705""
","
","449.5","<div class='center'><p>That's correct!</p><p><b>[Press the space bar to continue]</b></p></div>","32","","","","","","","","","","","","","","","","","","","","","","",""
"","audio-keyboard-response","98","476370","0.0-56.0-2.0","""event"",""trial"",""time""
""fullscreenenter"",""0"",""1705""
","
","
","""event"",""trial"",""time""
""fullscreenenter"",""0"",""1705""
","
","1412.6000000238419","run_exp/static/audio/clip_24_q4.m4a","49","","","","","","","","","","","","","","","","","","","","","","",""
"","correct","99","478815","0.0-57.0-0.0","""event"",""trial"",""time""
""fullscreenenter"",""0"",""1705""
","
","
","""event"",""trial"",""time""
""fullscreenenter"",""0"",""1705""
","
","null","run_exp/static/audio/clip_18_correct.m4a","null","","","","","<div class='center'><p>That's correct!</p></div>","","","","","","","","","","","","","","","","","",""
"","html-keyboard-response","100","479107","0.0-57.0-1.0","""event"",""trial"",""time""
""fullscreenenter"",""0"",""1705""
","
","
","""event"",""trial"",""time""
""fullscreenenter"",""0"",""1705""
","
","289.60000002384186","<div class='center'><p>That's correct!</p><p><b>[Press the space bar to continue]</b></p></div>","32","","","","","","","","","","","","","","","","","","","","","","",""
"","q_all_corr","101","487605","0.0-58.0-0.0","""event"",""trial"",""time""
""fullscreenenter"",""0"",""1705""
","
","
","""event"",""trial"",""time""
""fullscreenenter"",""0"",""1705""
","
","null","run_exp/static/audio/clip_27_quiz_all_correct.m4a","null","","","","","<div class='center'><p>Good job! You’re now ready to move on to the real game! Remember this game will be difficult but don't get discouraged and try your best!</p></div>","","","","","","","","","","","","","","","","","",""
"","html-keyboard-response","102","489018","0.0-58.0-1.0","""event"",""trial"",""time""
""fullscreenenter"",""0"",""1705""
","
","
","""event"",""trial"",""time""
""fullscreenenter"",""0"",""1705""
","
","1409.6000000238419","<div class='center'><p>Good job! You’re now ready to move on to the real game! Remember this game will be difficult but don't get discouraged and try your best!</p><p><b>[Press the space bar to continue]</b></p></div>","32","","","","","","","","","","","","","","","","","","","","","","",""
"","do_welcome","103","493027","0.0-59.0-0.0","""event"",""trial"",""time""
""fullscreenenter"",""0"",""1705""
","
","
","""event"",""trial"",""time""
""fullscreenenter"",""0"",""1705""
","
","null","","","","","","","","null","","","","","","","","","","","","","","","","",""
"","do_trial","104","498587","0.0-60.0-0.0","""event"",""trial"",""time""
""fullscreenenter"",""0"",""1705""
","
","
","""event"",""trial"",""time""
""fullscreenenter"",""0"",""1705""
","
","1021.6999999880791","","","","","","","","49","0,0,0","0","city","0","probe-20","0.6","0.3","0.1","0","","","","","","","",""
"","html-keyboard-response","105","499592","0.0-60.0-1.0","""event"",""trial"",""time""
""fullscreenenter"",""0"",""1705""
","
","
","""event"",""trial"",""time""
""fullscreenenter"",""0"",""1705""
","
","null","<p></p>","null","","","","","","","","","","","","","","","","","","","","","","",""
"","do_trial","106","504964","0.0-61.0-0.0","""event"",""trial"",""time""
""fullscreenenter"",""0"",""1705""
","
","
","""event"",""trial"",""time""
""fullscreenenter"",""0"",""1705""
","
","818.3999999761581","","","","","","","","50","0,0,0","0","city","1","probe-71","0.6990365149207334","0.35625175389828057","0.12110260242867407","0","","","","","","","",""
"","html-keyboard-response","107","505969","0.0-61.0-1.0","""event"",""trial"",""time""
""fullscreenenter"",""0"",""1705""
","
","
","""event"",""trial"",""time""
""fullscreenenter"",""0"",""1705""
","
","null","<p></p>","null","","","","","","","","","","","","","","","","","","","","","","",""
"","do_trial","108","510866","0.0-62.0-0.0","""event"",""trial"",""time""
""fullscreenenter"",""0"",""1705""
","
","
","""event"",""trial"",""time""
""fullscreenenter"",""0"",""1705""
","
","341.30000001192093","","","","","","","","51","0,0,1","0","city","2","probe-224","0.6923027103190252","0.2952292112330143","0.2715519268876583","1","","","","","","","",""
"","html-keyboard-response","109","511869","0.0-62.0-1.0","""event"",""trial"",""time""
""fullscreenenter"",""0"",""1705""
","
","
","""event"",""trial"",""time""
""fullscreenenter"",""0"",""1705""
","
","null","<p></p>","null","","","","","","","","","","","","","","","","","","","","","","",""
"","do_trial","110","517113","0.0-63.0-0.0","""event"",""trial"",""time""
""fullscreenenter"",""0"",""1705""
","
","
","""event"",""trial"",""time""
""fullscreenenter"",""0"",""1705""
","
","695.3999999761581","","","","","","","","49","1,1,0","0","city","3","probe-22","0.696407932085544","0.2335908302277804","0.2970787329133841","1","","","","","","","",""
"","html-keyboard-response","111","518121","0.0-63.0-1.0","""event"",""trial"",""time""
""fullscreenenter"",""0"",""1705""
","
","
","""event"",""trial"",""time""
""fullscreenenter"",""0"",""1705""
","
","null","<p></p>","null","","","","","","","","","","","","","","","","","","","","","","",""
"","do_trial","112","523563","0.0-64.0-0.0","""event"",""trial"",""time""
""fullscreenenter"",""0"",""1705""
","
","
","""event"",""trial"",""time""
""fullscreenenter"",""0"",""1705""
","
","891.0999999642372","","","","","","","","51","0,1,0","0","city","4","probe-145","0.5953617407850355","0.21618562571834812","0.14937730396102628","0","","","","","","","",""
"","html-keyboard-response","113","524567","0.0-64.0-1.0","""event"",""trial"",""time""
""fullscreenenter"",""0"",""1705""
","
","
","""event"",""trial"",""time""
""fullscreenenter"",""0"",""1705""
","
","null","<p></p>","null","","","","","","","","","","","","","","","","","","","","","","",""
"","do_trial","114","529868","0.0-65.0-0.0","""event"",""trial"",""time""
""fullscreenenter"",""0"",""1705""
","
","
","""event"",""trial"",""time""
""fullscreenenter"",""0"",""1705""
","
","742.8000000119209","","","","","","","","50","0,1,0","0","city","5","probe-125","0.5997484860237486","0.26584247693042296","0.09996451176468657","1","","","","","","","",""
"","html-keyboard-response","115","530875","0.0-65.0-1.0","""event"",""trial"",""time""
""fullscreenenter"",""0"",""1705""
","
","
","""event"",""trial"",""time""
""fullscreenenter"",""0"",""1705""
","
","null","<p></p>","null","","","","","","","","","","","","","","","","","","","","","","",""
"","do_trial","116","535927","0.0-66.0-0.0","""event"",""trial"",""time""
""fullscreenenter"",""0"",""1705""
","
","
","""event"",""trial"",""time""
""fullscreenenter"",""0"",""1705""
","
","510","","","","","","","","49","0,0,0","0","city","6","probe-152","0.42094388893183377","0.1651618682195993","0.07646150203065431","0","","","","","","","",""
"","html-keyboard-response","117","536930","0.0-66.0-1.0","""event"",""trial"",""time""
""fullscreenenter"",""0"",""1705""
","
","
","""event"",""trial"",""time""
""fullscreenenter"",""0"",""1705""
","
","null","<p></p>","null","","","","","","","","","","","","","","","","","","","","","","",""
"","do_trial","118","541910","0.0-67.0-0.0","""event"",""trial"",""time""
""fullscreenenter"",""0"",""1705""
","
","
","""event"",""trial"",""time""
""fullscreenenter"",""0"",""1705""
","
","431","","","","","","","","51","1,0,0","0","city","7","probe-98","0.3173993396724731","0.2942914496705963","0.07833580012898345","0","","","","","","","",""
"","html-keyboard-response","119","542915","0.0-67.0-1.0","""event"",""trial"",""time""
""fullscreenenter"",""0"",""1705""
","
","
","""event"",""trial"",""time""
""fullscreenenter"",""0"",""1705""
","
","null","<p></p>","null","","","","","","","","","","","","","","","","","","","","","","",""
"","do_trial","120","547935","0.0-68.0-0.0","""event"",""trial"",""time""
""fullscreenenter"",""0"",""1705""
","
","
","""event"",""trial"",""time""
""fullscreenenter"",""0"",""1705""
","
","468.60000002384186","","","","","","","","50","0,0,1","0","city","8","probe-127","0.35920733981061825","0.4308413812072135","0.18820866138482636","0","","","","","","","",""
"","html-keyboard-response","121","548940","0.0-68.0-1.0","""event"",""trial"",""time""
""fullscreenenter"",""0"",""1705""
","
","
","""event"",""trial"",""time""
""fullscreenenter"",""0"",""1705""
","
","null","<p></p>","null","","","","","","","","","","","","","","","","","","","","","","",""
"","do_trial","122","553775","0.0-69.0-0.0","""event"",""trial"",""time""
""fullscreenenter"",""0"",""1705""
","
","
","""event"",""trial"",""time""
""fullscreenenter"",""0"",""1705""
","
","280.30000001192093","","","","","","","","49","0,0,0","0","city","9","probe-32","0.5022599273701752","0.30327661029549463","0.07341699970152443","0","","","","","","","",""
"","html-keyboard-response","123","554779","0.0-69.0-1.0","""event"",""trial"",""time""
""fullscreenenter"",""0"",""1705""
","
","
","""event"",""trial"",""time""
""fullscreenenter"",""0"",""1705""
","
","null","<p></p>","null","","","","","","","","","","","","","","","","","","","","","","",""
"","do_trial","124","559772","0.0-70.0-0.0","""event"",""trial"",""time""
""fullscreenenter"",""0"",""1705""
","
","
","""event"",""trial"",""time""
""fullscreenenter"",""0"",""1705""
","
","433.2999999523163","","","","","","","","49","0,0,0","0","city","10","probe-53","0.5185684681234045","0.30562541145553307","0.09647346155684978","0","","","","","","","",""
"","html-keyboard-response","125","560777","0.0-70.0-1.0","""event"",""trial"",""time""
""fullscreenenter"",""0"",""1705""
","
","
","""event"",""trial"",""time""
""fullscreenenter"",""0"",""1705""
","
","null","<p></p>","null","","","","","","","","","","","","","","","","","","","","","","",""
"","do_trial","126","565666","0.0-71.0-0.0","""event"",""trial"",""time""
""fullscreenenter"",""0"",""1705""
","
","
","""event"",""trial"",""time""
""fullscreenenter"",""0"",""1705""
","
","335.0999999642372","","","","","","","","51","1,1,0","0","city","11","probe-168","0.4354339284569167","0.38715454807437594","0.08196760739635581","0","","","","","","","",""
"","html-keyboard-response","127","566672","0.0-71.0-1.0","""event"",""trial"",""time""
""fullscreenenter"",""0"",""1705""
","
","
","""event"",""trial"",""time""
""fullscreenenter"",""0"",""1705""
","
","null","<p></p>","null","","","","","","","","","","","","","","","","","","","","","","",""
"","do_trial","128","571570","0.0-72.0-0.0","""event"",""trial"",""time""
""fullscreenenter"",""0"",""1705""
","
","
","""event"",""trial"",""time""
""fullscreenenter"",""0"",""1705""
","
","344.5999999642372","","","","","","","","49","0,0,0","0","city","12","probe-81","0.4198865244672574","0.40722118952649","0.24277878207715936","0","","","","","","","",""
"","html-keyboard-response","129","572577","0.0-72.0-1.0","""event"",""trial"",""time""
""fullscreenenter"",""0"",""1705""
","
","
","""event"",""trial"",""time""
""fullscreenenter"",""0"",""1705""
","
","null","<p></p>","null","","","","","","","","","","","","","","","","","","","","","","",""
"","do_trial","130","577468","0.0-73.0-0.0","""event"",""trial"",""time""
""fullscreenenter"",""0"",""1705""
","
","
","""event"",""trial"",""time""
""fullscreenenter"",""0"",""1705""
","
","338.60000002384186","","","","","","","","50","1,0,0","0","city","13","probe-75","0.5137470184702858","0.47596168425410207","0.26241941770141497","0","","","","","","","",""
"","html-keyboard-response","131","578475","0.0-73.0-1.0","""event"",""trial"",""time""
""fullscreenenter"",""0"",""1705""
","
","
","""event"",""trial"",""time""
""fullscreenenter"",""0"",""1705""
","
","null","<p></p>","null","","","","","","","","","","","","","","","","","","","","","","",""
"","do_trial","132","583396","0.0-74.0-0.0","""event"",""trial"",""time""
""fullscreenenter"",""0"",""1705""
","
","
","""event"",""trial"",""time""
""fullscreenenter"",""0"",""1705""
","
","375.9000000357628","","","","","","","","51","0,0,0","0","city","14","probe-110","0.5644721697464202","0.3647716985214007","0.06355421257172299","0","","","","","","","",""
"","html-keyboard-response","133","584401","0.0-74.0-1.0","""event"",""trial"",""time""
""fullscreenenter"",""0"",""1705""
","
","
","""event"",""trial"",""time""
""fullscreenenter"",""0"",""1705""
","
","null","<p></p>","null","","","","","","","","","","","","","","","","","","","","","","",""
"","do_trial","134","588949","0.0-75.0-0.0","""event"",""trial"",""time""
""fullscreenenter"",""0"",""1705""
","
","
","""event"",""trial"",""time""
""fullscreenenter"",""0"",""1705""
","
","0.10000002384185791","","","","","","","","49","1,0,0","0","city","15","probe-94","0.6065617778748186","0.3984786317530928","0.05503465474900564","1","","","","","","","",""
"","html-keyboard-response","135","589954","0.0-75.0-1.0","""event"",""trial"",""time""
""fullscreenenter"",""0"",""1705""
","
","
","""event"",""trial"",""time""
""fullscreenenter"",""0"",""1705""
","
","null","<p></p>","null","","","","","","","","","","","","","","","","","","","","","","",""
"","do_trial","136","594993","0.0-76.0-0.0","""event"",""trial"",""time""
""fullscreenenter"",""0"",""1705""
","
","
","""event"",""trial"",""time""
""fullscreenenter"",""0"",""1705""
","
","486.10000002384186","","","","","","","","49","0,0,0","0","city","16","probe-67","0.491998915803389","0.39856701265548017","0.08910944159072541","0","","","","","","","",""
"","html-keyboard-response","137","595999","0.0-76.0-1.0","""event"",""trial"",""time""
""fullscreenenter"",""0"",""1705""
","
","
","""event"",""trial"",""time""
""fullscreenenter"",""0"",""1705""
","
","null","<p></p>","null","","","","","","","","","","","","","","","","","","","","","","",""
"","do_trial","138","600547","0.0-77.0-0.0","""event"",""trial"",""time""
""fullscreenenter"",""0"",""1705""
","
","
","""event"",""trial"",""time""
""fullscreenenter"",""0"",""1705""
","
","0.7000000476837158","","","","","","","","50","0,0,0","0","city","17","probe-05","0.5721234464047312","0.34671631826080246","0.15422579572525713","0","","","","","","","",""
"","html-keyboard-response","139","601553","0.0-77.0-1.0","""event"",""trial"",""time""
""fullscreenenter"",""0"",""1705""
","
","
","""event"",""trial"",""time""
""fullscreenenter"",""0"",""1705""
","
","null","<p></p>","null","","","","","","","","","","","","","","","","","","","","","","",""
"","do_trial","140","606544","0.0-78.0-0.0","""event"",""trial"",""time""
""fullscreenenter"",""0"",""1705""
","
","
","""event"",""trial"",""time""
""fullscreenenter"",""0"",""1705""
","
","436.5","","","","","","","","51","1,0,0","0","city","18","probe-202","0.67636784734115","0.4256878370016044","0.0623594165654818","0","","","","","","","",""
"","html-keyboard-response","141","607549","0.0-78.0-1.0","""event"",""trial"",""time""
""fullscreenenter"",""0"",""1705""
","
","
","""event"",""trial"",""time""
""fullscreenenter"",""0"",""1705""
","
","null","<p></p>","null","","","","","","","","","","","","","","","","","","","","","","",""
"","do_trial","142","613543","0.0-79.0-0.0","""event"",""trial"",""time""
""fullscreenenter"",""0"",""1705""
","
","
","""event"",""trial"",""time""
""fullscreenenter"",""0"",""1705""
","
","1438.7999999523163","","","","","","","","51","1,0,0","0","city","19","probe-207","0.56149127594348","0.5378970210762887","0.17282797714611828","0","","","","","","","",""
"","html-keyboard-response","143","614547","0.0-79.0-1.0","""event"",""trial"",""time""
""fullscreenenter"",""0"",""1705""
","
","
","""event"",""trial"",""time""
""fullscreenenter"",""0"",""1705""
","
","null","<p></p>","null","","","","","","","","","","","","","","","","","","","","","","",""
"","do_trial","144","619608","0.0-80.0-0.0","""event"",""trial"",""time""
""fullscreenenter"",""0"",""1705""
","
","
","""event"",""trial"",""time""
""fullscreenenter"",""0"",""1705""
","
","510.60000002384186","","","","","","","","49","1,1,0","0","city","20","probe-218","0.5971829570848989","0.4496947840821061","0.1165935512972483","1","","","","","","","",""
"","html-keyboard-response","145","620612","0.0-80.0-1.0","""event"",""trial"",""time""
""fullscreenenter"",""0"",""1705""
","
","
","""event"",""trial"",""time""
""fullscreenenter"",""0"",""1705""
","
","null","<p></p>","null","","","","","","","","","","","","","","","","","","","","","","",""
"","do_trial","146","625493","0.0-81.0-0.0","""event"",""trial"",""time""
""fullscreenenter"",""0"",""1705""
","
","
","""event"",""trial"",""time""
""fullscreenenter"",""0"",""1705""
","
","338.7999999523163","","","","","","","","49","0,0,0","0","city","21","probe-216","0.564887338046829","0.42836081064326326","0.08754685659443494","0","","","","","","","",""
"","html-keyboard-response","147","626500","0.0-81.0-1.0","""event"",""trial"",""time""
""fullscreenenter"",""0"",""1705""
","
","
","""event"",""trial"",""time""
""fullscreenenter"",""0"",""1705""
","
","null","<p></p>","null","","","","","","","","","","","","","","","","","","","","","","",""
"","do_trial","148","631501","0.0-82.0-0.0","""event"",""trial"",""time""
""fullscreenenter"",""0"",""1705""
","
","
","""event"",""trial"",""time""
""fullscreenenter"",""0"",""1705""
","
","454.9000000357628","","","","","","","","51","0,0,0","0","city","22","probe-116","0.6327527340840865","0.36831953265331685","0.1411887926497773","0","","","","","","","",""
"","html-keyboard-response","149","632508","0.0-82.0-1.0","""event"",""trial"",""time""
""fullscreenenter"",""0"",""1705""
","
","
","""event"",""trial"",""time""
""fullscreenenter"",""0"",""1705""
","
","null","<p></p>","null","","","","","","","","","","","","","","","","","","","","","","",""
"","do_trial","150","637409","0.0-83.0-0.0","""event"",""trial"",""time""
""fullscreenenter"",""0"",""1705""
","
","
","""event"",""trial"",""time""
""fullscreenenter"",""0"",""1705""
","
","352.39999997615814","","","","","","","","50","1,0,0","0","city","23","probe-193","0.6230013051905132","0.27056702408798783","0.0750775947327928","0","","","","","","","",""
"","html-keyboard-response","151","638415","0.0-83.0-1.0","""event"",""trial"",""time""
""fullscreenenter"",""0"",""1705""
","
","
","""event"",""trial"",""time""
""fullscreenenter"",""0"",""1705""
","
","null","<p></p>","null","","","","","","","","","","","","","","","","","","","","","","",""
"","do_trial","152","644107","0.0-84.0-0.0","""event"",""trial"",""time""
""fullscreenenter"",""0"",""1705""
","
","
","""event"",""trial"",""time""
""fullscreenenter"",""0"",""1705""
","
","1142.3999999761581","","","","","","","","49","0,0,0","0","city","24","probe-148","0.5601074622956645","0.2161943770288478","0.05761858317222719","0","","","","","","","",""
"","html-keyboard-response","153","645111","0.0-84.0-1.0","""event"",""trial"",""time""
""fullscreenenter"",""0"",""1705""
","
","
","""event"",""trial"",""time""
""fullscreenenter"",""0"",""1705""
","
","null","<p></p>","null","","","","","","","","","","","","","","","","","","","","","","",""
"","do_trial","154","650188","0.0-85.0-0.0","""event"",""trial"",""time""
""fullscreenenter"",""0"",""1705""
","
","
","""event"",""trial"",""time""
""fullscreenenter"",""0"",""1705""
","
","525.7000000476837","","","","","","","","49","0,0,0","0","city","25","probe-84","0.5790607214552821","0.1869682874793137","0.06735045988630173","0","","","","","","","",""
"","html-keyboard-response","155","651193","0.0-85.0-1.0","""event"",""trial"",""time""
""fullscreenenter"",""0"",""1705""
","
","
","""event"",""trial"",""time""
""fullscreenenter"",""0"",""1705""
","
","null","<p></p>","null","","","","","","","","","","","","","","","","","","","","","","",""
"","do_trial","156","656186","0.0-86.0-0.0","""event"",""trial"",""time""
""fullscreenenter"",""0"",""1705""
","
","
","""event"",""trial"",""time""
""fullscreenenter"",""0"",""1705""
","
","443.5","","","","","","","","49","1,0,1","0","city","26","probe-50","0.4657804290515024","0.21782547631603016","0.12839857152757206","1","","","","","","","",""
"","html-keyboard-response","157","657190","0.0-86.0-1.0","""event"",""trial"",""time""
""fullscreenenter"",""0"",""1705""
","
","
","""event"",""trial"",""time""
""fullscreenenter"",""0"",""1705""
","
","null","<p></p>","null","","","","","","","","","","","","","","","","","","","","","","",""
"","do_trial","158","662959","0.0-87.0-0.0","""event"",""trial"",""time""
""fullscreenenter"",""0"",""1705""
","
","
","""event"",""trial"",""time""
""fullscreenenter"",""0"",""1705""
","
","1216","","","","","","","","51","0,0,0","0","city","27","probe-06","0.53970792376668","0.3284727595502185","0.06359378407828367","0","","","","","","","",""
"","html-keyboard-response","159","663967","0.0-87.0-1.0","""event"",""trial"",""time""
""fullscreenenter"",""0"",""1705""
","
","
","""event"",""trial"",""time""
""fullscreenenter"",""0"",""1705""
","
","null","<p></p>","null","","","","","","","","","","","","","","","","","","","","","","",""
"","do_trial","160","668828","0.0-88.0-0.0","""event"",""trial"",""time""
""fullscreenenter"",""0"",""1705""
","
","
","""event"",""trial"",""time""
""fullscreenenter"",""0"",""1705""
","
","310.5","","","","","","","","49","1,0,0","0","city","28","probe-132","0.580761365655103","0.1977166029423303","0.19928559532541346","1","","","","","","","",""
"","html-keyboard-response","161","669835","0.0-88.0-1.0","""event"",""trial"",""time""
""fullscreenenter"",""0"",""1705""
","
","
","""event"",""trial"",""time""
""fullscreenenter"",""0"",""1705""
","
","null","<p></p>","null","","","","","","","","","","","","","","","","","","","","","","",""
"","do_trial","162","674947","0.0-89.0-0.0","""event"",""trial"",""time""
""fullscreenenter"",""0"",""1705""
","
","
","""event"",""trial"",""time""
""fullscreenenter"",""0"",""1705""
","
","559","","","","","","","","50","1,0,0","0","city","29","probe-187","0.5202014498298008","0.13794589958739142","0.20580565437186835","0","","","","","","","",""
"","html-keyboard-response","163","675952","0.0-89.0-1.0","""event"",""trial"",""time""
""fullscreenenter"",""0"",""1705""
","
","
","""event"",""trial"",""time""
""fullscreenenter"",""0"",""1705""
","
","null","<p></p>","null","","","","","","","","","","","","","","","","","","","","","","",""
"","do_bye","164","677464","0.0-90.0-0.0","""event"",""trial"",""time""
""fullscreenenter"",""0"",""1705""
","
","
","""event"",""trial"",""time""
""fullscreenenter"",""0"",""1705""
","
","null","","","","","","","","null","","","","","","","","","","","","","","","","",""
"","break","165","714436","0.0-90.0-1.0","""event"",""trial"",""time""
""fullscreenenter"",""0"",""1705""
","
","
","""event"",""trial"",""time""
""fullscreenenter"",""0"",""1705""
","
","36969.80000001192","<div class='center'><p>Time to take a quick break! You have 2 minutes to rest, but you can move on sooner if you'd like.</p><p> Press the <b>space bar</b> to continue.</p></div>","32","","","","","","","","","","","","","","","","","","","","","","",""
"","do_travel","166","723444","0.0-91.0-0.0","""event"",""trial"",""time""
""fullscreenenter"",""0"",""1705""
","
","
","""event"",""trial"",""time""
""fullscreenenter"",""0"",""1705""
","
","null","","","","","","","","null","","","","","","","","","","","","","","","","",""
"","do_welcome","167","727451","0.0-91.0-1.0","""event"",""trial"",""time""
""fullscreenenter"",""0"",""1705""
","
","
","""event"",""trial"",""time""
""fullscreenenter"",""0"",""1705""
","
","null","","","","","","","","null","","","","","","","","","","","","","","","","",""
"","do_trial","168","733332","0.0-92.0-0.0","""event"",""trial"",""time""
""fullscreenenter"",""0"",""1705""
","
","
","""event"",""trial"",""time""
""fullscreenenter"",""0"",""1705""
","
","1339.199999988079","","","","","","","","49","1,0,0","1","highway","30","probe-136","1","0.1880043356199721","0.16363745584568787","1","","","","","","","",""
"","html-keyboard-response","169","734338","0.0-92.0-1.0","""event"",""trial"",""time""
""fullscreenenter"",""0"",""1705""
","
","
","""event"",""trial"",""time""
""fullscreenenter"",""0"",""1705""
","
","null","<p></p>","null","","","","","","","","","","","","","","","","","","","","","","",""
"","do_trial","170","739304","0.0-93.0-0.0","""event"",""trial"",""time""
""fullscreenenter"",""0"",""1705""
","
","
","""event"",""trial"",""time""
""fullscreenenter"",""0"",""1705""
","
","415.89999997615814","","","","","","","","51","1,0,0","1","highway","31","probe-227","1","0.16094755382134493","0.14953188818830618","0","","","","","","","",""
"","html-keyboard-response","171","740312","0.0-93.0-1.0","""event"",""trial"",""time""
""fullscreenenter"",""0"",""1705""
","
","
","""event"",""trial"",""time""
""fullscreenenter"",""0"",""1705""
","
","null","<p></p>","null","","","","","","","","","","","","","","","","","","","","","","",""
"","do_trial","172","745191","0.0-94.0-0.0","""event"",""trial"",""time""
""fullscreenenter"",""0"",""1705""
","
","
","""event"",""trial"",""time""
""fullscreenenter"",""0"",""1705""
","
","330.89999997615814","","","","","","","","49","1,0,0","1","highway","32","probe-15","1","0.18542816914773483","0.10396992463801027","1","","","","","","","",""
"","html-keyboard-response","173","746198","0.0-94.0-1.0","""event"",""trial"",""time""
""fullscreenenter"",""0"",""1705""
","
","
","""event"",""trial"",""time""
""fullscreenenter"",""0"",""1705""
","
","null","<p></p>","null","","","","","","","","","","","","","","","","","","","","","","",""
"","do_trial","174","751098","0.0-95.0-0.0","""event"",""trial"",""time""
""fullscreenenter"",""0"",""1705""
","
","
","""event"",""trial"",""time""
""fullscreenenter"",""0"",""1705""
","
","356.19999998807907","","","","","","","","50","1,0,0","1","highway","33","probe-206","0.9271911730934808","0.06726676340703541","0.18821208917308313","0","","","","","","","",""
"","html-keyboard-response","175","752103","0.0-95.0-1.0","""event"",""trial"",""time""
""fullscreenenter"",""0"",""1705""
","
","
","""event"",""trial"",""time""
""fullscreenenter"",""0"",""1705""
","
","null","<p></p>","null","","","","","","","","","","","","","","","","","","","","","","",""
"","do_trial","176","756948","0.0-96.0-0.0","""event"",""trial"",""time""
""fullscreenenter"",""0"",""1705""
","
","
","""event"",""trial"",""time""
""fullscreenenter"",""0"",""1705""
","
","290.69999998807907","","","","","","","","49","0,0,1","1","highway","34","probe-109","0.6796130975733451","0.22210884707251477","0.20812008215946648","0","","","","","","","",""
"","html-keyboard-response","177","757951","0.0-96.0-1.0","""event"",""trial"",""time""
""fullscreenenter"",""0"",""1705""
","
","
","""event"",""trial"",""time""
""fullscreenenter"",""0"",""1705""
","
","null","<p></p>","null","","","","","","","","","","","","","","","","","","","","","","",""
"","do_trial","178","762795","0.0-97.0-0.0","""event"",""trial"",""time""
""fullscreenenter"",""0"",""1705""
","
","
","""event"",""trial"",""time""
""fullscreenenter"",""0"",""1705""
","
","287","","","","","","","","51","1,1,0","1","highway","35","probe-105","0.6015636925759266","0.3107056193209554","0.32117375233342665","0","","","","","","","",""
"","html-keyboard-response","179","763803","0.0-97.0-1.0","""event"",""trial"",""time""
""fullscreenenter"",""0"",""1705""
","
","
","""event"",""trial"",""time""
""fullscreenenter"",""0"",""1705""
","
","null","<p></p>","null","","","","","","","","","","","","","","","","","","","","","","",""
"","do_trial","180","768678","0.0-98.0-0.0","""event"",""trial"",""time""
""fullscreenenter"",""0"",""1705""
","
","
","""event"",""trial"",""time""
""fullscreenenter"",""0"",""1705""
","
","321","","","","","","","","51","1,1,0","1","highway","36","probe-160","0.5505182561665783","0.37604295678738825","0.16637954068317248","0","","","","","","","",""
"","html-keyboard-response","181","769684","0.0-98.0-1.0","""event"",""trial"",""time""
""fullscreenenter"",""0"",""1705""
","
","
","""event"",""trial"",""time""
""fullscreenenter"",""0"",""1705""
","
","null","<p></p>","null","","","","","","","","","","","","","","","","","","","","","","",""
"","do_trial","182","774578","0.0-99.0-0.0","""event"",""trial"",""time""
""fullscreenenter"",""0"",""1705""
","
","
","""event"",""trial"",""time""
""fullscreenenter"",""0"",""1705""
","
","343.0999999642372","","","","","","","","50","0,0,0","1","highway","37","probe-167","0.5671607727416109","0.4411824856940998","0.09601259352028754","0","","","","","","","",""
"","html-keyboard-response","183","775582","0.0-99.0-1.0","""event"",""trial"",""time""
""fullscreenenter"",""0"",""1705""
","
","
","""event"",""trial"",""time""
""fullscreenenter"",""0"",""1705""
","
","null","<p></p>","null","","","","","","","","","","","","","","","","","","","","","","",""
"","do_trial","184","780525","0.0-100.0-0.0","""event"",""trial"",""time""
""fullscreenenter"",""0"",""1705""
","
","
","""event"",""trial"",""time""
""fullscreenenter"",""0"",""1705""
","
","392.30000001192093","","","","","","","","49","1,0,0","1","highway","38","probe-68","0.6227321252510012","0.49402585078277905","0.10673853631073249","1","","","","","","","",""
"","html-keyboard-response","185","781530","0.0-100.0-1.0","""event"",""trial"",""time""
""fullscreenenter"",""0"",""1705""
","
","
","""event"",""trial"",""time""
""fullscreenenter"",""0"",""1705""
","
","null","<p></p>","null","","","","","","","","","","","","","","","","","","","","","","",""
"","do_trial","186","786392","0.0-101.0-0.0","""event"",""trial"",""time""
""fullscreenenter"",""0"",""1705""
","
","
","""event"",""trial"",""time""
""fullscreenenter"",""0"",""1705""
","
","308.0999999642372","","","","","","","","51","1,0,1","1","highway","39","probe-89","0.5905758917879412","0.33841298008390835","0.10191271903188376","1","","","","","","","",""
"","html-keyboard-response","187","787398","0.0-101.0-1.0","""event"",""trial"",""time""
""fullscreenenter"",""0"",""1705""
","
","
","""event"",""trial"",""time""
""fullscreenenter"",""0"",""1705""
","
","null","<p></p>","null","","","","","","","","","","","","","","","","","","","","","","",""
"","do_trial","188","792403","0.0-102.0-0.0","""event"",""trial"",""time""
""fullscreenenter"",""0"",""1705""
","
","
","""event"",""trial"",""time""
""fullscreenenter"",""0"",""1705""
","
","449","","","","","","","","50","0,0,0","1","highway","40","probe-27","0.5389199175151247","0.4576203100608046","0.053875033727475985","0","","","","","","","",""
"","html-keyboard-response","189","793407","0.0-102.0-1.0","""event"",""trial"",""time""
""fullscreenenter"",""0"",""1705""
","
","
","""event"",""trial"",""time""
""fullscreenenter"",""0"",""1705""
","
","null","<p></p>","null","","","","","","","","","","","","","","","","","","","","","","",""
"","do_trial","190","798237","0.0-103.0-0.0","""event"",""trial"",""time""
""fullscreenenter"",""0"",""1705""
","
","
","""event"",""trial"",""time""
""fullscreenenter"",""0"",""1705""
","
","276.30000001192093","","","","","","","","51","1,0,0","1","highway","41","probe-24","0.570787253326347","0.39789556574473706","0.07459865678710394","0","","","","","","","",""
"","html-keyboard-response","191","799242","0.0-103.0-1.0","""event"",""trial"",""time""
""fullscreenenter"",""0"",""1705""
","
","
","""event"",""trial"",""time""
""fullscreenenter"",""0"",""1705""
","
","null","<p></p>","null","","","","","","","","","","","","","","","","","","","","","","",""
"","do_trial","192","804188","0.0-104.0-0.0","""event"",""trial"",""time""
""fullscreenenter"",""0"",""1705""
","
","
","""event"",""trial"",""time""
""fullscreenenter"",""0"",""1705""
","
","394.5","","","","","","","","49","0,1,0","1","highway","42","probe-183","0.3581405119964831","0.4334506250978389","0.10227719613778806","0","","","","","","","",""
"","html-keyboard-response","193","805195","0.0-104.0-1.0","""event"",""trial"",""time""
""fullscreenenter"",""0"",""1705""
","
","
","""event"",""trial"",""time""
""fullscreenenter"",""0"",""1705""
","
","null","<p></p>","null","","","","","","","","","","","","","","","","","","","","","","",""
"","do_trial","194","810725","0.0-105.0-0.0","""event"",""trial"",""time""
""fullscreenenter"",""0"",""1705""
","
","
","""event"",""trial"",""time""
""fullscreenenter"",""0"",""1705""
","
","980.8000000119209","","","","","","","","51","1,0,0","1","highway","43","probe-82","0.22674671099617108","0.38233324348179887","0.08074739606418853","0","","","","","","","",""
"","html-keyboard-response","195","811729","0.0-105.0-1.0","""event"",""trial"",""time""
""fullscreenenter"",""0"",""1705""
","
","
","""event"",""trial"",""time""
""fullscreenenter"",""0"",""1705""
","
","null","<p></p>","null","","","","","","","","","","","","","","","","","","","","","","",""
"","do_trial","196","816811","0.0-106.0-0.0","""event"",""trial"",""time""
""fullscreenenter"",""0"",""1705""
","
","
","""event"",""trial"",""time""
""fullscreenenter"",""0"",""1705""
","
","535.9000000357628","","","","","","","","49","0,0,1","1","highway","44","probe-61","0.18475679336564002","0.4771385252491447","0.11232574479936705","0","","","","","","","",""
"","html-keyboard-response","197","817813","0.0-106.0-1.0","""event"",""trial"",""time""
""fullscreenenter"",""0"",""1705""
","
","
","""event"",""trial"",""time""
""fullscreenenter"",""0"",""1705""
","
","null","<p></p>","null","","","","","","","","","","","","","","","","","","","","","","",""
"","do_trial","198","822729","0.0-107.0-0.0","""event"",""trial"",""time""
""fullscreenenter"",""0"",""1705""
","
","
","""event"",""trial"",""time""
""fullscreenenter"",""0"",""1705""
","
","370.30000001192093","","","","","","","","50","0,1,0","1","highway","45","probe-65","0.10519208745805787","0.533363655072145","0.1668145483383411","1","","","","","","","",""
"","html-keyboard-response","199","823734","0.0-107.0-1.0","""event"",""trial"",""time""
""fullscreenenter"",""0"",""1705""
","
","
","""event"",""trial"",""time""
""fullscreenenter"",""0"",""1705""
","
","null","<p></p>","null","","","","","","","","","","","","","","","","","","","","","","",""
"","do_trial","200","828973","0.0-108.0-0.0","""event"",""trial"",""time""
""fullscreenenter"",""0"",""1705""
","
","
","""event"",""trial"",""time""
""fullscreenenter"",""0"",""1705""
","
","686.1999999880791","","","","","","","","49","0,0,0","1","highway","46","probe-230","0.07825590835373862","0.6382956203708564","0.26506687877735213","0","","","","","","","",""
"","html-keyboard-response","201","829978","0.0-108.0-1.0","""event"",""trial"",""time""
""fullscreenenter"",""0"",""1705""
","
","
","""event"",""trial"",""time""
""fullscreenenter"",""0"",""1705""
","
","null","<p></p>","null","","","","","","","","","","","","","","","","","","","","","","",""
"","do_trial","202","834859","0.0-109.0-0.0","""event"",""trial"",""time""
""fullscreenenter"",""0"",""1705""
","
","
","""event"",""trial"",""time""
""fullscreenenter"",""0"",""1705""
","
","331.69999998807907","","","","","","","","49","0,0,0","1","highway","47","probe-217","0.06275383935419825","0.6786941669553419","0.35449243746351167","0","","","","","","","",""
"","html-keyboard-response","203","835866","0.0-109.0-1.0","""event"",""trial"",""time""
""fullscreenenter"",""0"",""1705""
","
","
","""event"",""trial"",""time""
""fullscreenenter"",""0"",""1705""
","
","null","<p></p>","null","","","","","","","","","","","","","","","","","","","","","","",""
"","do_trial","204","840939","0.0-110.0-0.0","""event"",""trial"",""time""
""fullscreenenter"",""0"",""1705""
","
","
","""event"",""trial"",""time""
""fullscreenenter"",""0"",""1705""
","
","521.8000000119209","","","","","","","","51","0,1,1","1","highway","48","probe-174","0.05703647183748725","0.6220447549238541","0.39854462195130297","1","","","","","","","",""
"","html-keyboard-response","205","841943","0.0-110.0-1.0","""event"",""trial"",""time""
""fullscreenenter"",""0"",""1705""
","
","
","""event"",""trial"",""time""
""fullscreenenter"",""0"",""1705""
","
","null","<p></p>","null","","","","","","","","","","","","","","","","","","","","","","",""
"","do_trial","206","847225","0.0-111.0-0.0","""event"",""trial"",""time""
""fullscreenenter"",""0"",""1705""
","
","
","""event"",""trial"",""time""
""fullscreenenter"",""0"",""1705""
","
","729.5999999642372","","","","","","","","49","0,1,0","1","highway","49","probe-112","0.07495544563107676","0.5244101688537659","0.32315003920018565","0","","","","","","","",""
"","html-keyboard-response","207","848227","0.0-111.0-1.0","""event"",""trial"",""time""
""fullscreenenter"",""0"",""1705""
","
","
","""event"",""trial"",""time""
""fullscreenenter"",""0"",""1705""
","
","null","<p></p>","null","","","","","","","","","","","","","","","","","","","","","","",""
"","do_trial","208","853114","0.0-112.0-0.0","""event"",""trial"",""time""
""fullscreenenter"",""0"",""1705""
","
","
","""event"",""trial"",""time""
""fullscreenenter"",""0"",""1705""
","
","334.0999999642372","","","","","","","","50","0,0,0","1","highway","50","probe-55","0.11586992822232368","0.38171725008018087","0.20435973450330353","0","","","","","","","",""
"","html-keyboard-response","209","854119","0.0-112.0-1.0","""event"",""trial"",""time""
""fullscreenenter"",""0"",""1705""
","
","
","""event"",""trial"",""time""
""fullscreenenter"",""0"",""1705""
","
","null","<p></p>","null","","","","","","","","","","","","","","","","","","","","","","",""
"","do_trial","210","859033","0.0-113.0-0.0","""event"",""trial"",""time""
""fullscreenenter"",""0"",""1705""
","
","
","""event"",""trial"",""time""
""fullscreenenter"",""0"",""1705""
","
","361.89999997615814","","","","","","","","49","1,0,0","1","highway","51","probe-128","0.2182730903797592","0.33540046534127405","0.2629010742984308","1","","","","","","","",""
"","html-keyboard-response","211","860040","0.0-113.0-1.0","""event"",""trial"",""time""
""fullscreenenter"",""0"",""1705""
","
","
","""event"",""trial"",""time""
""fullscreenenter"",""0"",""1705""
","
","null","<p></p>","null","","","","","","","","","","","","","","","","","","","","","","",""
"","do_trial","212","865388","0.0-114.0-0.0","""event"",""trial"",""time""
""fullscreenenter"",""0"",""1705""
","
","
","""event"",""trial"",""time""
""fullscreenenter"",""0"",""1705""
","
","790.2000000476837","","","","","","","","49","0,1,1","1","highway","52","probe-80","0.10356386952105283","0.6135646021728929","0.29684590924167614","0","","","","","","","",""
"","html-keyboard-response","213","866393","0.0-114.0-1.0","""event"",""trial"",""time""
""fullscreenenter"",""0"",""1705""
","
","
","""event"",""trial"",""time""
""fullscreenenter"",""0"",""1705""
","
","null","<p></p>","null","","","","","","","","","","","","","","","","","","","","","","",""
"","do_trial","214","871339","0.0-115.0-0.0","""event"",""trial"",""time""
""fullscreenenter"",""0"",""1705""
","
","
","""event"",""trial"",""time""
""fullscreenenter"",""0"",""1705""
","
","393.69999998807907","","","","","","","","51","0,1,0","1","highway","53","probe-107","0.07394067284864038","0.6985585692966763","0.27800158420711074","0","","","","","","","",""
"","html-keyboard-response","215","872342","0.0-115.0-1.0","""event"",""trial"",""time""
""fullscreenenter"",""0"",""1705""
","
","
","""event"",""trial"",""time""
""fullscreenenter"",""0"",""1705""
","
","null","<p></p>","null","","","","","","","","","","","","","","","","","","","","","","",""
"","do_trial","216","877217","0.0-116.0-0.0","""event"",""trial"",""time""
""fullscreenenter"",""0"",""1705""
","
","
","""event"",""trial"",""time""
""fullscreenenter"",""0"",""1705""
","
","321.5","","","","","","","","50","0,1,0","1","highway","54","probe-54","0.06275901211057619","0.6764135041624862","0.27841409247818727","1","","","","","","","",""
"","html-keyboard-response","217","878222","0.0-116.0-1.0","""event"",""trial"",""time""
""fullscreenenter"",""0"",""1705""
","
","
","""event"",""trial"",""time""
""fullscreenenter"",""0"",""1705""
","
","null","<p></p>","null","","","","","","","","","","","","","","","","","","","","","","",""
"","do_trial","218","883197","0.0-117.0-0.0","""event"",""trial"",""time""
""fullscreenenter"",""0"",""1705""
","
","
","""event"",""trial"",""time""
""fullscreenenter"",""0"",""1705""
","
","420.9000000357628","","","","","","","","49","0,1,1","1","highway","55","probe-07","0.12799555134580648","0.6195930637010408","0.37970810535628313","0","","","","","","","",""
"","html-keyboard-response","219","884202","0.0-117.0-1.0","""event"",""trial"",""time""
""fullscreenenter"",""0"",""1705""
","
","
","""event"",""trial"",""time""
""fullscreenenter"",""0"",""1705""
","
","null","<p></p>","null","","","","","","","","","","","","","","","","","","","","","","",""
"","do_trial","220","889192","0.0-118.0-0.0","""event"",""trial"",""time""
""fullscreenenter"",""0"",""1705""
","
","
","""event"",""trial"",""time""
""fullscreenenter"",""0"",""1705""
","
","446.30000001192093","","","","","","","","51","0,1,0","1","highway","56","probe-18","0.17590191029025648","0.6142795581589807","0.3834820620510243","0","","","","","","","",""
"","html-keyboard-response","221","890196","0.0-118.0-1.0","""event"",""trial"",""time""
""fullscreenenter"",""0"",""1705""
","
","
","""event"",""trial"",""time""
""fullscreenenter"",""0"",""1705""
","
","null","<p></p>","null","","","","","","","","","","","","","","","","","","","","","","",""
"","do_trial","222","895352","0.0-119.0-0.0","""event"",""trial"",""time""
""fullscreenenter"",""0"",""1705""
","
","
","""event"",""trial"",""time""
""fullscreenenter"",""0"",""1705""
","
","603.6000000238419","","","","","","","","50","0,1,0","1","highway","57","probe-172","0.2365235996418568","0.7556831065689762","0.47286116431256814","1","","","","","","","",""
"","html-keyboard-response","223","896359","0.0-119.0-1.0","""event"",""trial"",""time""
""fullscreenenter"",""0"",""1705""
","
","
","""event"",""trial"",""time""
""fullscreenenter"",""0"",""1705""
","
","null","<p></p>","null","","","","","","","","","","","","","","","","","","","","","","",""
"","do_trial","224","901515","0.0-120.0-0.0","""event"",""trial"",""time""
""fullscreenenter"",""0"",""1705""
","
","
","""event"",""trial"",""time""
""fullscreenenter"",""0"",""1705""
","
","605.8000000119209","","","","","","","","49","0,0,1","1","highway","58","probe-08","0.21949429463005327","0.7441355220834368","0.4496285568290788","0","","","","","","","",""
"","html-keyboard-response","225","902522","0.0-120.0-1.0","""event"",""trial"",""time""
""fullscreenenter"",""0"",""1705""
","
","
","""event"",""trial"",""time""
""fullscreenenter"",""0"",""1705""
","
","null","<p></p>","null","","","","","","","","","","","","","","","","","","","","","","",""
"","do_trial","226","907403","0.0-121.0-0.0","""event"",""trial"",""time""
""fullscreenenter"",""0"",""1705""
","
","
","""event"",""trial"",""time""
""fullscreenenter"",""0"",""1705""
","
","327.10000002384186","","","","","","","","50","1,1,0","1","highway","59","probe-120","0.11234729830152787","0.589742113452724","0.32797312977517074","1","","","","","","","",""
"","html-keyboard-response","227","908408","0.0-121.0-1.0","""event"",""trial"",""time""
""fullscreenenter"",""0"",""1705""
","
","
","""event"",""trial"",""time""
""fullscreenenter"",""0"",""1705""
","
","null","<p></p>","null","","","","","","","","","","","","","","","","","","","","","","",""
"","do_trial","228","913452","0.0-122.0-0.0","""event"",""trial"",""time""
""fullscreenenter"",""0"",""1705""
","
","
","""event"",""trial"",""time""
""fullscreenenter"",""0"",""1705""
","
","489.2000000476837","","","","","","","","49","1,1,0","1","highway","60","probe-184","0.07971273838533248","0.6232273943965916","0.2732133959914335","1","","","","","","","",""
"","html-keyboard-response","229","914459","0.0-122.0-1.0","""event"",""trial"",""time""
""fullscreenenter"",""0"",""1705""
","
","
","""event"",""trial"",""time""
""fullscreenenter"",""0"",""1705""
","
","null","<p></p>","null","","","","","","","","","","","","","","","","","","","","","","",""
"","do_trial","230","919599","0.0-123.0-0.0","""event"",""trial"",""time""
""fullscreenenter"",""0"",""1705""
","
","
","""event"",""trial"",""time""
""fullscreenenter"",""0"",""1705""
","
","590.8000000119209","","","","","","","","51","0,1,0","1","highway","61","probe-157","0.1154163143089868","0.683733204754487","0.22047110029950923","0","","","","","","","",""
"","html-keyboard-response","231","920604","0.0-123.0-1.0","""event"",""trial"",""time""
""fullscreenenter"",""0"",""1705""
","
","
","""event"",""trial"",""time""
""fullscreenenter"",""0"",""1705""
","
","null","<p></p>","null","","","","","","","","","","","","","","","","","","","","","","",""
"","do_trial","232","925837","0.0-124.0-0.0","""event"",""trial"",""time""
""fullscreenenter"",""0"",""1705""
","
","
","""event"",""trial"",""time""
""fullscreenenter"",""0"",""1705""
","
","683.9000000357628","","","","","","","","49","0,0,0","1","highway","62","probe-185","0.08806644383158307","0.41809994220439367","0.2966247920424863","0","","","","","","","",""
"","html-keyboard-response","233","926841","0.0-124.0-1.0","""event"",""trial"",""time""
""fullscreenenter"",""0"",""1705""
","
","
","""event"",""trial"",""time""
""fullscreenenter"",""0"",""1705""
","
","null","<p></p>","null","","","","","","","","","","","","","","","","","","","","","","",""
"","do_trial","234","931790","0.0-125.0-0.0","""event"",""trial"",""time""
""fullscreenenter"",""0"",""1705""
","
","
","""event"",""trial"",""time""
""fullscreenenter"",""0"",""1705""
","
","395.69999998807907","","","","","","","","51","0,0,1","1","highway","63","probe-142","0.21209436951888477","0.49050035778110296","0.3978271834177865","1","","","","","","","",""
"","html-keyboard-response","235","932794","0.0-125.0-1.0","""event"",""trial"",""time""
""fullscreenenter"",""0"",""1705""
","
","
","""event"",""trial"",""time""
""fullscreenenter"",""0"",""1705""
","
","null","<p></p>","null","","","","","","","","","","","","","","","","","","","","","","",""
"","do_trial","236","937874","0.0-126.0-0.0","""event"",""trial"",""time""
""fullscreenenter"",""0"",""1705""
","
","
","""event"",""trial"",""time""
""fullscreenenter"",""0"",""1705""
","
","524.6999999880791","","","","","","","","50","0,0,0","1","highway","64","probe-123","0.11665912964562537","0.4191983186871279","0.29829747183920463","0","","","","","","","",""
"","html-keyboard-response","237","938879","0.0-126.0-1.0","""event"",""trial"",""time""
""fullscreenenter"",""0"",""1705""
","
","
","""event"",""trial"",""time""
""fullscreenenter"",""0"",""1705""
","
","null","<p></p>","null","","","","","","","","","","","","","","","","","","","","","","",""
"","do_trial","238","943714","0.0-127.0-0.0","""event"",""trial"",""time""
""fullscreenenter"",""0"",""1705""
","
","
","""event"",""trial"",""time""
""fullscreenenter"",""0"",""1705""
","
","283","","","","","","","","49","0,1,0","1","highway","65","probe-02","0.12045512667720397","0.4491364967950966","0.2703259376015994","0","","","","","","","",""
"","html-keyboard-response","239","944719","0.0-127.0-1.0","""event"",""trial"",""time""
""fullscreenenter"",""0"",""1705""
","
","
","""event"",""trial"",""time""
""fullscreenenter"",""0"",""1705""
","
","null","<p></p>","null","","","","","","","","","","","","","","","","","","","","","","",""
"","do_trial","240","949595","0.0-128.0-0.0","""event"",""trial"",""time""
""fullscreenenter"",""0"",""1705""
","
","
","""event"",""trial"",""time""
""fullscreenenter"",""0"",""1705""
","
","318.19999998807907","","","","","","","","51","1,1,1","1","highway","66","probe-88","0.0745909713344325","0.4870357662936701","0.23330095167833262","1","","","","","","","",""
"","html-keyboard-response","241","950603","0.0-128.0-1.0","""event"",""trial"",""time""
""fullscreenenter"",""0"",""1705""
","
","
","""event"",""trial"",""time""
""fullscreenenter"",""0"",""1705""
","
","null","<p></p>","null","","","","","","","","","","","","","","","","","","","","","","",""
"","do_trial","242","955850","0.0-129.0-0.0","""event"",""trial"",""time""
""fullscreenenter"",""0"",""1705""
","
","
","""event"",""trial"",""time""
""fullscreenenter"",""0"",""1705""
","
","690.8000000119209","","","","","","","","49","0,0,0","1","highway","67","probe-215","0.061761234398371716","0.5273203169609517","0.38196766820147376","0","","","","","","","",""
"","html-keyboard-response","243","956857","0.0-129.0-1.0","""event"",""trial"",""time""
""fullscreenenter"",""0"",""1705""
","
","
","""event"",""trial"",""time""
""fullscreenenter"",""0"",""1705""
","
","null","<p></p>","null","","","","","","","","","","","","","","","","","","","","","","",""
"","do_trial","244","962030","0.0-130.0-0.0","""event"",""trial"",""time""
""fullscreenenter"",""0"",""1705""
","
","
","""event"",""trial"",""time""
""fullscreenenter"",""0"",""1705""
","
","621.1000000238419","","","","","","","","49","0,1,0","1","highway","68","probe-115","0.06264943494645756","0.608701743237555","0.41359054011895197","0","","","","","","","",""
"","html-keyboard-response","245","963036","0.0-130.0-1.0","""event"",""trial"",""time""
""fullscreenenter"",""0"",""1705""
","
","
","""event"",""trial"",""time""
""fullscreenenter"",""0"",""1705""
","
","null","<p></p>","null","","","","","","","","","","","","","","","","","","","","","","",""
"","do_trial","246","968230","0.0-131.0-0.0","""event"",""trial"",""time""
""fullscreenenter"",""0"",""1705""
","
","
","""event"",""trial"",""time""
""fullscreenenter"",""0"",""1705""
","
","639.1000000238419","","","","","","","","51","0,1,0","1","highway","69","probe-197","0.11683636355372923","0.6006803285147914","0.342849043503481","0","","","","","","","",""
"","html-keyboard-response","247","969238","0.0-131.0-1.0","""event"",""trial"",""time""
""fullscreenenter"",""0"",""1705""
","
","
","""event"",""trial"",""time""
""fullscreenenter"",""0"",""1705""
","
","null","<p></p>","null","","","","","","","","","","","","","","","","","","","","","","",""
"","do_bye","248","970746","0.0-132.0-0.0","""event"",""trial"",""time""
""fullscreenenter"",""0"",""1705""
","
","
","""event"",""trial"",""time""
""fullscreenenter"",""0"",""1705""
","
","null","","","","","","","","null","","","","","","","","","","","","","","","","",""
"","break","249","1043284","0.0-132.0-1.0","""event"",""trial"",""time""
""fullscreenenter"",""0"",""1705""
","
","
","""event"",""trial"",""time""
""fullscreenenter"",""0"",""1705""
","
","72538","<div class='center'><p>Time to take a quick break! You have 2 minutes to rest, but you can move on sooner if you'd like.</p><p> Press the <b>space bar</b> to continue.</p></div>","32","","","","","","","","","","","","","","","","","","","","","","",""
"","do_travel","250","1052290","0.0-133.0-0.0","""event"",""trial"",""time""
""fullscreenenter"",""0"",""1705""
","
","
","""event"",""trial"",""time""
""fullscreenenter"",""0"",""1705""
","
","null","","","","","","","","null","","","","","","","","","","","","","","","","",""
"","do_welcome","251","1056300","0.0-133.0-1.0","""event"",""trial"",""time""
""fullscreenenter"",""0"",""1705""
","
","
","""event"",""trial"",""time""
""fullscreenenter"",""0"",""1705""
","
","null","","","","","","","","null","","","","","","","","","","","","","","","","",""
"","do_trial","252","1062067","0.0-134.0-0.0","""event"",""trial"",""time""
""fullscreenenter"",""0"",""1705""
","
","
","""event"",""trial"",""time""
""fullscreenenter"",""0"",""1705""
","
","1224.6000000238419","","","","","","","","49","0,1,1","2","forest","70","probe-76","0.2050472129846525","1","0.33245631478935594","0","","","","","","","",""
"","html-keyboard-response","253","1063072","0.0-134.0-1.0","""event"",""trial"",""time""
""fullscreenenter"",""0"",""1705""
","
","
","""event"",""trial"",""time""
""fullscreenenter"",""0"",""1705""
","
","null","<p></p>","null","","","","","","","","","","","","","","","","","","","","","","",""
"","do_trial","254","1067902","0.0-135.0-0.0","""event"",""trial"",""time""
""fullscreenenter"",""0"",""1705""
","
","
","""event"",""trial"",""time""
""fullscreenenter"",""0"",""1705""
","
","278.30000001192093","","","","","","","","51","0,1,0","2","forest","71","probe-41","0.16711575980351318","1","0.3172424217809858","0","","","","","","","",""
"","html-keyboard-response","255","1068909","0.0-135.0-1.0","""event"",""trial"",""time""
""fullscreenenter"",""0"",""1705""
","
","
","""event"",""trial"",""time""
""fullscreenenter"",""0"",""1705""
","
","null","<p></p>","null","","","","","","","","","","","","","","","","","","","","","","",""
"","do_trial","256","1073692","0.0-136.0-0.0","""event"",""trial"",""time""
""fullscreenenter"",""0"",""1705""
","
","
","""event"",""trial"",""time""
""fullscreenenter"",""0"",""1705""
","
","230.9000000357628","","","","","","","","50","0,0,0","2","forest","72","probe-211","0.12912508837901795","0.9040447517511757","0.47210271978277585","0","","","","","","","",""
"","html-keyboard-response","257","1074697","0.0-136.0-1.0","""event"",""trial"",""time""
""fullscreenenter"",""0"",""1705""
","
","
","""event"",""trial"",""time""
""fullscreenenter"",""0"",""1705""
","
","null","<p></p>","null","","","","","","","","","","","","","","","","","","","","","","",""
"","do_trial","258","1079569","0.0-137.0-0.0","""event"",""trial"",""time""
""fullscreenenter"",""0"",""1705""
","
","
","""event"",""trial"",""time""
""fullscreenenter"",""0"",""1705""
","
","314.5","","","","","","","","51","0,1,1","2","forest","73","probe-56","0.0999263848187316","0.7636028566457015","0.38063246021517094","1","","","","","","","",""
"","html-keyboard-response","259","1080573","0.0-137.0-1.0","""event"",""trial"",""time""
""fullscreenenter"",""0"",""1705""
","
","
","""event"",""trial"",""time""
""fullscreenenter"",""0"",""1705""
","
","null","<p></p>","null","","","","","","","","","","","","","","","","","","","","","","",""
