"success","trial_type","trial_index","time_elapsed","internal_node_id","interactions","blur_events","focus_events","fullscreenenter_events","fullscreenexit_events","rt","stimulus","key_press","subject_id","participant_id","age","gender","prompt","response","choice_outcomes","context_n","context_img_id","trial_n","probe_img_id","pR_red","pR_white","pR_black","outcome","contextArray_ind","validImageProbes","invalidImageProbes","pRew_Red","pRew_White","pRew_Black","availableForMemProbe","choice_blocks"
"true","fullscreen","0","9277","0.0-0.0","""event"",""trial"",""time""
""fullscreenenter"",""0"",""8320""
","
","
","""event"",""trial"",""time""
""fullscreenenter"",""0"",""8320""
","
","","","","","","","","","","","","","","","","","","","","","","","","","",""
"","pavlovia","1","9284","0.0-1.0","""event"",""trial"",""time""
""fullscreenenter"",""0"",""8320""
","
","
","""event"",""trial"",""time""
""fullscreenenter"",""0"",""8320""
","
","","","","","","","","","","","","","","","","","","","","","","","","","",""
"","instruc1","2","54348","0.0-2.0","""event"",""trial"",""time""
""fullscreenenter"",""0"",""8320""
","
","
","""event"",""trial"",""time""
""fullscreenenter"",""0"",""8320""
","
","null","run_exp/static/audio/clip_1_welcome.m4a","null","360","9","23","Male","<div class='center'><p>Welcome! This is the first part of the study. It will last ~30 minutes. In part 1 and part 2 of the study, you are the head captain of a pirate ship traveling around the world to different islands. You will play a few different games throughout these two parts. Here is an overview of them:</p><br><p>Part 1 (today)</p><p>1. Instructions, practice game, and quiz</p><p>2. Pick a pirate game on 6 different islands</p><br><p>Part 2 (tomorrow)</p><p>3. Pick a pirate game and memory game</p><p>4. Where did you see this ship? </p></div>","","","","","","","","","","","","","","","","","",""
"","html-keyboard-response","3","55408","0.0-3.0","""event"",""trial"",""time""
""fullscreenenter"",""0"",""8320""
","
","
","""event"",""trial"",""time""
""fullscreenenter"",""0"",""8320""
","
","1055.5","<div class='center'><p>Welcome! This is the first part of the study. It will last ~30 minutes. In part 1 and part 2 of the study, you are the head captain of a pirate ship traveling around the world to different islands. You will play a few different games throughout these two parts. Here is an overview of them:</p><br><p>Part 1 (today)</p><p>1. Instructions, practice game, and quiz</p><p>2. Pick a pirate game on 6 different islands</p><br><p>Part 2 (tomorrow)</p><p>3. Pick a pirate game and memory game</p><p>4. Where did you see this ship? </p><p><b>[Press the space bar to continue]</b></p></div>","32","","","","","","","","","","","","","","","","","","","","","","",""
"","instruc2","4","60682","0.0-4.0","""event"",""trial"",""time""
""fullscreenenter"",""0"",""8320""
","
","
","""event"",""trial"",""time""
""fullscreenenter"",""0"",""8320""
","
","null","run_exp/static/audio/clip_2_different_places.m4a","null","","","","","<div class='center'><p>Today, you’ll visit these 6 islands on your journey. You'll be able to see these islands from your ship.</p><p><img src='run_exp/static/images/contexts/all_contexts.png' height='500'></p></div>","","","","","","","","","","","","","","","","","",""
"","html-keyboard-response","5","62231","0.0-5.0","""event"",""trial"",""time""
""fullscreenenter"",""0"",""8320""
","
","
","""event"",""trial"",""time""
""fullscreenenter"",""0"",""8320""
","
","1545.9000000059605","<div class='center'><p>Today, you’ll visit these 6 islands on your journey. You'll be able to see these islands from your ship.</p><p><img src='run_exp/static/images/contexts/all_contexts.png' height='500'></p><p><b>[Press the space bar to continue]</b></p></div>","32","","","","","","","","","","","","","","","","","","","","","","",""
"","instruc3","6","71903","0.0-6.0","""event"",""trial"",""time""
""fullscreenenter"",""0"",""8320""
","
","
","""event"",""trial"",""time""
""fullscreenenter"",""0"",""8320""
","
","null","run_exp/static/audio/clip_3_goal_of_game_1.m4a","null","","","","","<div class='center'><p> The pirates on your ship will rob other ships as they leave the island.</p> These ships have just sold their goods to the islanders, so they will be filled with lots and lots of gold.</p><p><img src='run_exp/static/images/tutorial/ship_center.png' height='400'></p></div>","","","","","","","","","","","","","","","","","",""
"","html-keyboard-response","7","72270","0.0-7.0","""event"",""trial"",""time""
""fullscreenenter"",""0"",""8320""
","
","
","""event"",""trial"",""time""
""fullscreenenter"",""0"",""8320""
","
","362.69999998807907","<div class='center'><p> The pirates on your ship will rob other ships as they leave the island.</p> These ships have just sold their goods to the islanders, so they will be filled with lots and lots of gold.</p><p><img src='run_exp/static/images/tutorial/ship_center.png' height='400'></p><p><b>[Press the space bar to continue]</b></p></div>","32","","","","","","","","","","","","","","","","","","","","","","",""
"","instruc4","8","100234","0.0-8.0","""event"",""trial"",""time""
""fullscreenenter"",""0"",""8320""
","
","
","""event"",""trial"",""time""
""fullscreenenter"",""0"",""8320""
","
","null","run_exp/static/audio/clip_4_goal_of_game_2.m4a","null","","","","","<div class='center'><p>As the head captain, you do not have to rob any ships yourself. Another pirate will be doing the robbing for you. First, you will choose a pirate to rob the next ship.</p><p><img src='run_exp/static/images/tutorial/pirates_all_crop.png' height='200'></p><p>Then, you'll see if the pirate successfully robbed the ship of their gold. If they were successful, then you'll get a stack of gold coins like this:</p><p><img src='run_exp/static/images/tutorial/reward.png' height='150'></p><p> If they were <b>not</b> successful, then you'll get no gold coins, and you'll see a big red x like this: </p><p><img src='run_exp/static/images/tutorial/reward_no.png' height='150'></p><p> How much bonus money you make is based on how many gold coins you collect.</p><div>","","","","","","","","","","","","","","","","","",""
"","html-keyboard-response","9","100655","0.0-9.0","""event"",""trial"",""time""
""fullscreenenter"",""0"",""8320""
","
","
","""event"",""trial"",""time""
""fullscreenenter"",""0"",""8320""
","
","417","<div class='center'><p>As the head captain, you do not have to rob any ships yourself. Another pirate will be doing the robbing for you. First, you will choose a pirate to rob the next ship.</p><p><img src='run_exp/static/images/tutorial/pirates_all_crop.png' height='200'></p><p>Then, you'll see if the pirate successfully robbed the ship of their gold. If they were successful, then you'll get a stack of gold coins like this:</p><p><img src='run_exp/static/images/tutorial/reward.png' height='150'></p><p> If they were <b>not</b> successful, then you'll get no gold coins, and you'll see a big red x like this: </p><p><img src='run_exp/static/images/tutorial/reward_no.png' height='150'></p><p> How much bonus money you make is based on how many gold coins you collect.</p<p><b>[Press the space bar to continue]</b></p></div>","32","","","","","","","","","","","","","","","","","","","","","","",""
"","instruc5","10","121690","0.0-10.0","""event"",""trial"",""time""
""fullscreenenter"",""0"",""8320""
","
","
","""event"",""trial"",""time""
""fullscreenenter"",""0"",""8320""
","
","21033.09999999404","run_exp/static/audio/clip_5_probabilistic.m4a","49","","","","","<div class='center'><p>Even the most skilled pirate can not rob EVERY ship.</p><p> Some ships will have very strong protections against pirate attacks.</p><p> Blue beard, here, is very, very good at robbing ships, but he won't be successful every time he tries to rob one.</p><p> You can press the <b>‘1’</b> key on the keyboard to choose him.</p><p> Try choosing him 10 times to see how often he succeeds at robbing a ship. </p><p><img src='run_exp/static/images/tutorial/blue.png' height='500'></p></div>","","","","","","","","","","","","","","","","","",""
"","html-keyboard-response","11","123193","0.0-11.0","""event"",""trial"",""time""
""fullscreenenter"",""0"",""8320""
","
","
","""event"",""trial"",""time""
""fullscreenenter"",""0"",""8320""
","
","null","<div class='center'><p><img src='run_exp/static/images/tutorial/blue_win.png' height='500'></p></div>","null","","","","","","","","","","","","","","","","","","","","","","",""
"","html-keyboard-response","12","123370","0.0-12.0","""event"",""trial"",""time""
""fullscreenenter"",""0"",""8320""
","
","
","""event"",""trial"",""time""
""fullscreenenter"",""0"",""8320""
","
","174.40000000596046","<div class='center'><img src='run_exp/static/images/tutorial/blue.png' height='500'></p></div>","49","","","","","","","","","","","","","","","","","","","","","","",""
"","html-keyboard-response","13","124874","0.0-13.0","""event"",""trial"",""time""
""fullscreenenter"",""0"",""8320""
","
","
","""event"",""trial"",""time""
""fullscreenenter"",""0"",""8320""
","
","null","<div class='center'><p><img src='run_exp/static/images/tutorial/blue_win.png' height='500'></p></div>","null","","","","","","","","","","","","","","","","","","","","","","",""
"","html-keyboard-response","14","124930","0.0-14.0","""event"",""trial"",""time""
""fullscreenenter"",""0"",""8320""
","
","
","""event"",""trial"",""time""
""fullscreenenter"",""0"",""8320""
","
","54.10000002384186","<div class='center'><img src='run_exp/static/images/tutorial/blue.png' height='500'></p></div>","49","","","","","","","","","","","","","","","","","","","","","","",""
"","html-keyboard-response","15","126434","0.0-15.0","""event"",""trial"",""time""
""fullscreenenter"",""0"",""8320""
","
","
","""event"",""trial"",""time""
""fullscreenenter"",""0"",""8320""
","
","null","<div class='center'><p><img src='run_exp/static/images/tutorial/blue_win.png' height='500'></p></div>","null","","","","","","","","","","","","","","","","","","","","","","",""
"","html-keyboard-response","16","128123","0.0-16.0","""event"",""trial"",""time""
""fullscreenenter"",""0"",""8320""
","
","
","""event"",""trial"",""time""
""fullscreenenter"",""0"",""8320""
","
","1687.0999999940395","<div class='center'><img src='run_exp/static/images/tutorial/blue.png' height='500'></p></div>","49","","","","","","","","","","","","","","","","","","","","","","",""
"","html-keyboard-response","17","129626","0.0-17.0","""event"",""trial"",""time""
""fullscreenenter"",""0"",""8320""
","
","
","""event"",""trial"",""time""
""fullscreenenter"",""0"",""8320""
","
","null","<div class='center'><p><img src='run_exp/static/images/tutorial/blue_no_win.png' height='500'></p></div>","null","","","","","","","","","","","","","","","","","","","","","","",""
"","html-keyboard-response","18","130264","0.0-18.0","""event"",""trial"",""time""
""fullscreenenter"",""0"",""8320""
","
","
","""event"",""trial"",""time""
""fullscreenenter"",""0"",""8320""
","
","635.6999999880791","<div class='center'><img src='run_exp/static/images/tutorial/blue.png' height='500'></p></div>","49","","","","","","","","","","","","","","","","","","","","","","",""
"","html-keyboard-response","19","131769","0.0-19.0","""event"",""trial"",""time""
""fullscreenenter"",""0"",""8320""
","
","
","""event"",""trial"",""time""
""fullscreenenter"",""0"",""8320""
","
","null","<div class='center'><p><img src='run_exp/static/images/tutorial/blue_win.png' height='500'></p></div>","null","","","","","","","","","","","","","","","","","","","","","","",""
"","html-keyboard-response","20","132128","0.0-20.0","""event"",""trial"",""time""
""fullscreenenter"",""0"",""8320""
","
","
","""event"",""trial"",""time""
""fullscreenenter"",""0"",""8320""
","
","357.40000000596046","<div class='center'><img src='run_exp/static/images/tutorial/blue.png' height='500'></p></div>","49","","","","","","","","","","","","","","","","","","","","","","",""
"","html-keyboard-response","21","133634","0.0-21.0","""event"",""trial"",""time""
""fullscreenenter"",""0"",""8320""
","
","
","""event"",""trial"",""time""
""fullscreenenter"",""0"",""8320""
","
","null","<div class='center'><p><img src='run_exp/static/images/tutorial/blue_win.png' height='500'></p></div>","null","","","","","","","","","","","","","","","","","","","","","","",""
"","html-keyboard-response","22","133929","0.0-22.0","""event"",""trial"",""time""
""fullscreenenter"",""0"",""8320""
","
","
","""event"",""trial"",""time""
""fullscreenenter"",""0"",""8320""
","
","291.90000000596046","<div class='center'><img src='run_exp/static/images/tutorial/blue.png' height='500'></p></div>","49","","","","","","","","","","","","","","","","","","","","","","",""
"","html-keyboard-response","23","135433","0.0-23.0","""event"",""trial"",""time""
""fullscreenenter"",""0"",""8320""
","
","
","""event"",""trial"",""time""
""fullscreenenter"",""0"",""8320""
","
","null","<div class='center'><p><img src='run_exp/static/images/tutorial/blue_win.png' height='500'></p></div>","null","","","","","","","","","","","","","","","","","","","","","","",""
"","html-keyboard-response","24","135580","0.0-24.0","""event"",""trial"",""time""
""fullscreenenter"",""0"",""8320""
","
","
","""event"",""trial"",""time""
""fullscreenenter"",""0"",""8320""
","
","145.19999998807907","<div class='center'><img src='run_exp/static/images/tutorial/blue.png' height='500'></p></div>","49","","","","","","","","","","","","","","","","","","","","","","",""
"","html-keyboard-response","25","137082","0.0-25.0","""event"",""trial"",""time""
""fullscreenenter"",""0"",""8320""
","
","
","""event"",""trial"",""time""
""fullscreenenter"",""0"",""8320""
","
","null","<div class='center'><p><img src='run_exp/static/images/tutorial/blue_no_win.png' height='500'></p></div>","null","","","","","","","","","","","","","","","","","","","","","","",""
"","html-keyboard-response","26","137380","0.0-26.0","""event"",""trial"",""time""
""fullscreenenter"",""0"",""8320""
","
","
","""event"",""trial"",""time""
""fullscreenenter"",""0"",""8320""
","
","295.2999999821186","<div class='center'><img src='run_exp/static/images/tutorial/blue.png' height='500'></p></div>","49","","","","","","","","","","","","","","","","","","","","","","",""
"","html-keyboard-response","27","138883","0.0-27.0","""event"",""trial"",""time""
""fullscreenenter"",""0"",""8320""
","
","
","""event"",""trial"",""time""
""fullscreenenter"",""0"",""8320""
","
","null","<div class='center'><p><img src='run_exp/static/images/tutorial/blue_win.png' height='500'></p></div>","null","","","","","","","","","","","","","","","","","","","","","","",""
"","html-keyboard-response","28","139289","0.0-28.0","""event"",""trial"",""time""
""fullscreenenter"",""0"",""8320""
","
","
","""event"",""trial"",""time""
""fullscreenenter"",""0"",""8320""
","
","404.2000000178814","<div class='center'><img src='run_exp/static/images/tutorial/blue.png' height='500'></p></div>","49","","","","","","","","","","","","","","","","","","","","","","",""
"","html-keyboard-response","29","140793","0.0-29.0","""event"",""trial"",""time""
""fullscreenenter"",""0"",""8320""
","
","
","""event"",""trial"",""time""
""fullscreenenter"",""0"",""8320""
","
","null","<div class='center'><p><img src='run_exp/static/images/tutorial/blue_win.png' height='500'></p></div>","null","","","","","","","","","","","","","","","","","","","","","","",""
"","instruc6","30","146150","0.0-30.0","""event"",""trial"",""time""
""fullscreenenter"",""0"",""8320""
","
","
","""event"",""trial"",""time""
""fullscreenenter"",""0"",""8320""
","
","null","run_exp/static/audio/clip_6_blue_beard_outcome.m4a","null","","","","","<div class='center'><p> See, he succeeded in robbing the ships most of the time but not every time. </p></div>","","","","","","","","","","","","","","","","","",""
"","html-keyboard-response","31","147149","0.0-31.0","""event"",""trial"",""time""
""fullscreenenter"",""0"",""8320""
","
","
","""event"",""trial"",""time""
""fullscreenenter"",""0"",""8320""
","
","997.6999999880791","<div class='center'><p> See, he succeeded in robbing the ships most of the time but not every time. </p><p><b>[Press the space bar to continue]</b></p></div>","32","","","","","","","","","","","","","","","","","","","","","","",""
"","audio-keyboard-response","32","163756","0.0-32.0","""event"",""trial"",""time""
""fullscreenenter"",""0"",""8320""
","
","
","""event"",""trial"",""time""
""fullscreenenter"",""0"",""8320""
","
","16604.80000001192","run_exp/static/audio/clip_7_pick_pirate.m4a","51","","","","","","","","","","","","","","","","","","","","","","",""
"","audio-keyboard-response","33","168007","0.0-33.0-0.0","""event"",""trial"",""time""
""fullscreenenter"",""0"",""8320""
","
","
","""event"",""trial"",""time""
""fullscreenenter"",""0"",""8320""
","
","4246.9000000059605","run_exp/static/audio/clip_8_chosen_pirate_win.m4a","32","","","","","","","","","","","","","","","","","","","","","","",""
"","audio-keyboard-response","34","170772","0.0-33.0-1.0","""event"",""trial"",""time""
""fullscreenenter"",""0"",""8320""
","
","
","""event"",""trial"",""time""
""fullscreenenter"",""0"",""8320""
","
","2763.4000000059605","run_exp/static/audio/clip_9_pick_a_pirate_again.m4a","51","","","","","","","","","","","","","","","","","","","","","","",""
"","audio-keyboard-response","35","172359","0.0-34.0-0.0","""event"",""trial"",""time""
""fullscreenenter"",""0"",""8320""
","
","
","""event"",""trial"",""time""
""fullscreenenter"",""0"",""8320""
","
","1583.6000000238419","run_exp/static/audio/clip_10_chosen_pirate_loss.m4a","32","","","","","","","","","","","","","","","","","","","","","","",""
"","instruc9","36","177807","0.0-35.0-0.0","""event"",""trial"",""time""
""fullscreenenter"",""0"",""8320""
","
","
","""event"",""trial"",""time""
""fullscreenenter"",""0"",""8320""
","
","null","run_exp/static/audio/clip_11_time_out.m4a","null","","","","","<div class='center'><p>If you don’t make your choice fast enough, you’ll have to wait a few seconds before you can make another one. </p><p><img src='run_exp/static/images/miscellaneous/hurry_up.png' height='500'></p></div>","","","","","","","","","","","","","","","","","",""
"","html-keyboard-response","37","178814","0.0-35.0-1.0","""event"",""trial"",""time""
""fullscreenenter"",""0"",""8320""
","
","
","""event"",""trial"",""time""
""fullscreenenter"",""0"",""8320""
","
","1004.1999999880791","<div class='center'><p>If you don’t make your choice fast enough, you’ll have to wait a few seconds before you can make another one. </p><p><img src='run_exp/static/images/miscellaneous/hurry_up.png' height='500'></p><p><b>[Press the space bar to continue]</b></p></div>","32","","","","","","","","","","","","","","","","","","","","","","",""
"","instruc10","38","217872","0.0-35.0-2.0","""event"",""trial"",""time""
""fullscreenenter"",""0"",""8320""
","
","
","""event"",""trial"",""time""
""fullscreenenter"",""0"",""8320""
","
","null","run_exp/static/audio/clip_12_probe.m4a","null","","","","","<div class='center'><p>Once you've chosen a pirate, you’ll be shown the ship they are robbing. You will never rob the same ship twice. Ships can be told apart from one another by the image on them. These are the goods that they sell. See, this ship has a travel mug on it. </p><p> You’ll have to remember which island you saw each ship on. You will win more gold coins and hence more bonus money if you remember correctly! To help you remember, you can imagine a story. For example, here, you could imagine a mug full of water in the desert. Or, as another example, if on the forest island, your pirate robbed a ship with an apple on it, you could imagine an apple falling from a tree in the forest. </p><p><img src='run_exp/static/images/tutorial/example_probe.png' height='500'></p></div>","","","","","","","","","","","","","","","","","",""
"","html-keyboard-response","39","218828","0.0-35.0-3.0","""event"",""trial"",""time""
""fullscreenenter"",""0"",""8320""
","
","
","""event"",""trial"",""time""
""fullscreenenter"",""0"",""8320""
","
","952.3000000119209","<div class='center'><p>Once you've chosen a pirate, you’ll be shown the ship they are robbing. You will never rob the same ship twice. Ships can be told apart from one another by the image on them. These are the goods that they sell. See, this ship has a travel mug on it. </p><p> You’ll have to remember which island you saw each ship on. You will win more gold coins and hence more bonus money if you remember correctly! To help you remember, you can imagine a story. For example, here, you could imagine a mug full of water in the desert. Or, as another example, if on the forest island, your pirate robbed a ship with an apple on it, you could imagine an apple falling from a tree in the forest. </p><p><img src='run_exp/static/images/tutorial/example_probe.png' height='500'></p><p><b>[Press the space bar to continue]</b></p></div>","32","","","","","","","","","","","","","","","","","","","","","","",""
"","instruc11","40","235215","0.0-35.0-4.0","""event"",""trial"",""time""
""fullscreenenter"",""0"",""8320""
","
","
","""event"",""trial"",""time""
""fullscreenenter"",""0"",""8320""
","
","null","run_exp/static/audio/clip_13_changepoint.m4a","null","","","","","<div class='center'><p>How successful a pirate is at robbing ships will depend on the island you’re on.</p><p> A pirate may have visited this island many times before and gained a lot of practice robbing ships there.</p><p>So, they’re more likely to be successful than a pirate who has never visited the island before.</p></div>","","","","","","","","","","","","","","","","","",""
"","html-keyboard-response","41","235663","0.0-35.0-5.0","""event"",""trial"",""time""
""fullscreenenter"",""0"",""8320""
","
","
","""event"",""trial"",""time""
""fullscreenenter"",""0"",""8320""
","
","444.7000000178814","<div class='center'><p>How successful a pirate is at robbing ships will depend on the island you’re on.</p><p> A pirate may have visited this island many times before and gained a lot of practice robbing ships there.</p><p>So, they’re more likely to be successful than a pirate who has never visited the island before.</p><p><b>[Press the space bar to continue]</b></p></div>","32","","","","","","","","","","","","","","","","","","","","","","",""
"","instruc12","42","276729","0.0-35.0-6.0","""event"",""trial"",""time""
""fullscreenenter"",""0"",""8320""
","
","
","""event"",""trial"",""time""
""fullscreenenter"",""0"",""8320""
","
","null","run_exp/static/audio/clip_14_drift.m4a","null","","","","","<div class='center'><p>How successful a pirate is at robbing ships can also change over the time spent on the island. </p><p> Ships may hear from islanders about the pirates coming and will improve their protections against the attack. This may make it harder to rob them.</p><p> Ships may also become lazy and weaken the strength of their protections. This may make it easier to rob them.</p><br><p>Things are always changing on the high seas! So, try your best to pay attention!</p><p><img src='run_exp/static/images/tutorial/contingency.png' height='500'></p></div>","","","","","","","","","","","","","","","","","",""
"","html-keyboard-response","43","277759","0.0-35.0-7.0","""event"",""trial"",""time""
""fullscreenenter"",""0"",""8320""
","
","
","""event"",""trial"",""time""
""fullscreenenter"",""0"",""8320""
","
","1026.800000011921","<div class='center'><p>How successful a pirate is at robbing ships can also change over the time spent on the island. </p><p> Ships may hear from islanders about the pirates coming and will improve their protections against the attack. This may make it harder to rob them.</p><p> Ships may also become lazy and weaken the strength of their protections. This may make it easier to rob them.</p><br><p>Things are always changing on the high seas! So, try your best to pay attention!</p><p><img src='run_exp/static/images/tutorial/contingency.png' height='500'></p><p><b>[Press the space bar to continue]</b></p></div>","32","","","","","","","","","","","","","","","","","","","","","","",""
"","instruc13","44","312911","0.0-35.0-8.0","""event"",""trial"",""time""
""fullscreenenter"",""0"",""8320""
","
","
","""event"",""trial"",""time""
""fullscreenenter"",""0"",""8320""
","
","null","run_exp/static/audio/clip_15_summary.m4a","null","","","","","<div class='center'><p>Let's go over the instructions quickly again. You have two important things to do: </p><b><p> 1. Pick the pirate who is the best at robbing ships on the current island. </p></b><b><p> 2. Remember on which island a ship was robbed.</p> </b><p>The amount of bonus money you can win depends on both.</p><p><br><p>Let’s try a practice game. The game will start by showing you the pirates. First, pick a pirate using the <b> 1, 2, 3 </b> keys on your keyboard. When you are shown a ship, try to remember which island you’re on by making up a story.</p><p>This is just a practice game, so you’re not playing for money. </p><p> Good luck! This game will be very difficult but try your best!</p></div>","","","","","","","","","","","","","","","","","",""
"","html-keyboard-response","45","313292","0.0-35.0-9.0","""event"",""trial"",""time""
""fullscreenenter"",""0"",""8320""
","
","
","""event"",""trial"",""time""
""fullscreenenter"",""0"",""8320""
","
","377.59999999403954","<div class='center'><p>Let's go over the instructions quickly again. You have two important things to do: </p><b><p> 1. Pick the pirate who is the best at robbing ships on the current island. </p></b><b><p> 2. Remember on which island a ship was robbed.</p> </b><p>The amount of bonus money you can win depends on both.</p><p><br><p>Let’s try a practice game. The game will start by showing you the pirates. First, pick a pirate using the <b> 1, 2, 3 </b> keys on your keyboard. When you are shown a ship, try to remember which island you’re on by making up a story.</p><p>This is just a practice game, so you’re not playing for money. </p><p> Good luck! This game will be very difficult but try your best!</p><p><b>[Press the space bar to continue]</b></p></div>","32","","","","","","","","","","","","","","","","","","","","","","",""
"","do_welcome","46","317300","0.0-35.0-10.0","""event"",""trial"",""time""
""fullscreenenter"",""0"",""8320""
","
","
","""event"",""trial"",""time""
""fullscreenenter"",""0"",""8320""
","
","null","","","","","","","","null","","","","","","","","","","","","","","","","",""
"","do_trial","47","324226","0.0-35.0-11.0","""event"",""trial"",""time""
""fullscreenenter"",""0"",""8320""
","
","
","""event"",""trial"",""time""
""fullscreenenter"",""0"",""8320""
","
","2414.800000011921","","","","","","","","51","1,0,0","","","","","","","","","","","","","","","",""
"","html-keyboard-response","48","325233","0.0-36.0-0.0","""event"",""trial"",""time""
""fullscreenenter"",""0"",""8320""
","
","
","""event"",""trial"",""time""
""fullscreenenter"",""0"",""8320""
","
","null","<p></p>","null","","","","","","","","","","","","","","","","","","","","","","",""
"","do_trial","49","331245","0.0-36.0-1.0","""event"",""trial"",""time""
""fullscreenenter"",""0"",""8320""
","
","
","""event"",""trial"",""time""
""fullscreenenter"",""0"",""8320""
","
","null","","","","","","","","null","1,1,0","","","","","","","","","","","","","","","",""
"","html-keyboard-response","50","332249","0.0-37.0-0.0","""event"",""trial"",""time""
""fullscreenenter"",""0"",""8320""
","
","
","""event"",""trial"",""time""
""fullscreenenter"",""0"",""8320""
","
","null","<p></p>","null","","","","","","","","","","","","","","","","","","","","","","",""
"","do_trial","51","337459","0.0-37.0-1.0","""event"",""trial"",""time""
""fullscreenenter"",""0"",""8320""
","
","
","""event"",""trial"",""time""
""fullscreenenter"",""0"",""8320""
","
","700.2999999821186","","","","","","","","49","1,1,0","","","","","","","","","","","","","","","",""
"","html-keyboard-response","52","338464","0.0-38.0-0.0","""event"",""trial"",""time""
""fullscreenenter"",""0"",""8320""
","
","
","""event"",""trial"",""time""
""fullscreenenter"",""0"",""8320""
","
","null","<p></p>","null","","","","","","","","","","","","","","","","","","","","","","",""
"","do_trial","53","343955","0.0-38.0-1.0","""event"",""trial"",""time""
""fullscreenenter"",""0"",""8320""
","
","
","""event"",""trial"",""time""
""fullscreenenter"",""0"",""8320""
","
","978.1999999880791","","","","","","","","50","1,0,1","","","","","","","","","","","","","","","",""
"","html-keyboard-response","54","344961","0.0-39.0-0.0","""event"",""trial"",""time""
""fullscreenenter"",""0"",""8320""
","
","
","""event"",""trial"",""time""
""fullscreenenter"",""0"",""8320""
","
","null","<p></p>","null","","","","","","","","","","","","","","","","","","","","","","",""
"","do_trial","55","350173","0.0-39.0-1.0","""event"",""trial"",""time""
""fullscreenenter"",""0"",""8320""
","
","
","""event"",""trial"",""time""
""fullscreenenter"",""0"",""8320""
","
","698.9000000059605","","","","","","","","51","0,1,0","","","","","","","","","","","","","","","",""
"","html-keyboard-response","56","351181","0.0-40.0-0.0","""event"",""trial"",""time""
""fullscreenenter"",""0"",""8320""
","
","
","""event"",""trial"",""time""
""fullscreenenter"",""0"",""8320""
","
","null","<p></p>","null","","","","","","","","","","","","","","","","","","","","","","",""
"","do_trial","57","356094","0.0-40.0-1.0","""event"",""trial"",""time""
""fullscreenenter"",""0"",""8320""
","
","
","""event"",""trial"",""time""
""fullscreenenter"",""0"",""8320""
","
","401.90000000596046","","","","","","","","51","1,0,0","","","","","","","","","","","","","","","",""
"","do_bye","58","357603","0.0-41.0-0.0","""event"",""trial"",""time""
""fullscreenenter"",""0"",""8320""
","
","
","""event"",""trial"",""time""
""fullscreenenter"",""0"",""8320""
","
","null","","","","","","","","null","","","","","","","","","","","","","","","","",""
"","do_travel","59","366609","0.0-41.0-1.0","""event"",""trial"",""time""
""fullscreenenter"",""0"",""8320""
","
","
","""event"",""trial"",""time""
""fullscreenenter"",""0"",""8320""
","
","null","","","","","","","","null","","","","","","","","","","","","","","","","",""
"","do_welcome","60","370619","0.0-41.0-2.0","""event"",""trial"",""time""
""fullscreenenter"",""0"",""8320""
","
","
","""event"",""trial"",""time""
""fullscreenenter"",""0"",""8320""
","
","null","","","","","","","","null","","","","","","","","","","","","","","","","",""
"","do_trial","61","376131","0.0-41.0-3.0","""event"",""trial"",""time""
""fullscreenenter"",""0"",""8320""
","
","
","""event"",""trial"",""time""
""fullscreenenter"",""0"",""8320""
","
","1007","","","","","","","","49","1,0,0","","","","","","","","","","","","","","","",""
"","html-keyboard-response","62","377136","0.0-42.0-0.0","""event"",""trial"",""time""
""fullscreenenter"",""0"",""8320""
","
","
","""event"",""trial"",""time""
""fullscreenenter"",""0"",""8320""
","
","null","<p></p>","null","","","","","","","","","","","","","","","","","","","","","","",""
"","do_trial","63","382168","0.0-42.0-1.0","""event"",""trial"",""time""
""fullscreenenter"",""0"",""8320""
","
","
","""event"",""trial"",""time""
""fullscreenenter"",""0"",""8320""
","
","518.8000000119209","","","","","","","","51","1,0,1","","","","","","","","","","","","","","","",""
"","html-keyboard-response","64","383175","0.0-43.0-0.0","""event"",""trial"",""time""
""fullscreenenter"",""0"",""8320""
","
","
","""event"",""trial"",""time""
""fullscreenenter"",""0"",""8320""
","
","null","<p></p>","null","","","","","","","","","","","","","","","","","","","","","","",""
"","do_trial","65","388120","0.0-43.0-1.0","""event"",""trial"",""time""
""fullscreenenter"",""0"",""8320""
","
","
","""event"",""trial"",""time""
""fullscreenenter"",""0"",""8320""
","
","436.5","","","","","","","","51","1,1,0","","","","","","","","","","","","","","","",""
"","html-keyboard-response","66","389126","0.0-44.0-0.0","""event"",""trial"",""time""
""fullscreenenter"",""0"",""8320""
","
","
","""event"",""trial"",""time""
""fullscreenenter"",""0"",""8320""
","
","null","<p></p>","null","","","","","","","","","","","","","","","","","","","","","","",""
"","do_trial","67","393803","0.0-44.0-1.0","""event"",""trial"",""time""
""fullscreenenter"",""0"",""8320""
","
","
","""event"",""trial"",""time""
""fullscreenenter"",""0"",""8320""
","
","162","","","","","","","","50","0,0,1","","","","","","","","","","","","","","","",""
"","html-keyboard-response","68","394807","0.0-45.0-0.0","""event"",""trial"",""time""
""fullscreenenter"",""0"",""8320""
","
","
","""event"",""trial"",""time""
""fullscreenenter"",""0"",""8320""
","
","null","<p></p>","null","","","","","","","","","","","","","","","","","","","","","","",""
"","do_trial","69","399817","0.0-45.0-1.0","""event"",""trial"",""time""
""fullscreenenter"",""0"",""8320""
","
","
","""event"",""trial"",""time""
""fullscreenenter"",""0"",""8320""
","
","502.5","","","","","","","","50","1,0,1","","","","","","","","","","","","","","","",""
"","html-keyboard-response","70","403054","0.0-46.0-0.0","""event"",""trial"",""time""
""fullscreenenter"",""0"",""8320""
","
","
","""event"",""trial"",""time""
""fullscreenenter"",""0"",""8320""
","
","3230.4000000059605","<div class='center'><p><img src='run_exp/static/images/tutorial/prac_best_pirate.png'  height='500'></p></div>","51","","","","","","","","","","","","","","","","","","","","","","",""
"","html-keyboard-response","71","404637","0.0-47.0-0.0","""event"",""trial"",""time""
""fullscreenenter"",""0"",""8320""
","
","
","""event"",""trial"",""time""
""fullscreenenter"",""0"",""8320""
","
","1580.5999999940395","<div class='center'><p>That's incorrect! Red beard was the best.</p><p><b>[Press the space bar to continue]</b></p></div>","32","","","","","","","","","","","","","","","","","","","","","","",""
"","html-keyboard-response","72","408202","0.0-47.0-1.0","""event"",""trial"",""time""
""fullscreenenter"",""0"",""8320""
","
","
","""event"",""trial"",""time""
""fullscreenenter"",""0"",""8320""
","
","3563.2000000178814","<div class='center'><p><img src='run_exp/static/images/tutorial/prac_source.png'  height='500'></p></div>","50","","","","","","","","","","","","","","","","","","","","","","",""
"","html-keyboard-response","73","409334","0.0-48.0-0.0","""event"",""trial"",""time""
""fullscreenenter"",""0"",""8320""
","
","
","""event"",""trial"",""time""
""fullscreenenter"",""0"",""8320""
","
","1129.699999988079","<div class='center'><p>That's correct! You saw this ship on the cavern island.</p><p><b>[Press the space bar to continue]</b></p></div>","32","","","","","","","","","","","","","","","","","","","","","","",""
"","quiz_beginning","74","420489","0.0-48.0-1.0","""event"",""trial"",""time""
""fullscreenenter"",""0"",""8320""
","
","
","""event"",""trial"",""time""
""fullscreenenter"",""0"",""8320""
","
","null","run_exp/static/audio/clip_16_quiz_intro.m4a","null","","","","","<div class='center'><p>Good job on the practice game! Now, you will be asked some true or false questions to make sure you really understand the rules of the game.</p><p> Press <b>'1'</b> on the keyboard for true and press <b>'2'</b> for false.</p></div>","","","","","","","","","","","","","","","","","",""
"","audio-keyboard-response","75","423502","0.0-48.0-2.0","""event"",""trial"",""time""
""fullscreenenter"",""0"",""8320""
","
","
","""event"",""trial"",""time""
""fullscreenenter"",""0"",""8320""
","
","3009.0999999940395","run_exp/static/audio/clip_17_q1.m4a","49","","","","","","","","","","","","","","","","","","","","","","",""
"","correct","76","425865","0.0-49.0-0.0","""event"",""trial"",""time""
""fullscreenenter"",""0"",""8320""
","
","
","""event"",""trial"",""time""
""fullscreenenter"",""0"",""8320""
","
","null","run_exp/static/audio/clip_18_correct.m4a","null","","","","","<div class='center'><p>That's correct!</p></div>","","","","","","","","","","","","","","","","","",""
"","html-keyboard-response","77","426668","0.0-49.0-1.0","""event"",""trial"",""time""
""fullscreenenter"",""0"",""8320""
","
","
","""event"",""trial"",""time""
""fullscreenenter"",""0"",""8320""
","
","801.5999999940395","<div class='center'><p>That's correct!</p><p><b>[Press the space bar to continue]</b></p></div>","32","","","","","","","","","","","","","","","","","","","","","","",""
"","audio-keyboard-response","78","434059","0.0-49.0-2.0","""event"",""trial"",""time""
""fullscreenenter"",""0"",""8320""
","
","
","""event"",""trial"",""time""
""fullscreenenter"",""0"",""8320""
","
","7389.0999999940395","run_exp/static/audio/clip_20_q2.m4a","50","","","","","","","","","","","","","","","","","","","","","","",""
"","correct","79","436425","0.0-50.0-0.0","""event"",""trial"",""time""
""fullscreenenter"",""0"",""8320""
","
","
","""event"",""trial"",""time""
""fullscreenenter"",""0"",""8320""
","
","null","run_exp/static/audio/clip_18_correct.m4a","null","","","","","<div class='center'><p>That's correct!</p></div>","","","","","","","","","","","","","","","","","",""
"","html-keyboard-response","80","437036","0.0-50.0-1.0","""event"",""trial"",""time""
""fullscreenenter"",""0"",""8320""
","
","
","""event"",""trial"",""time""
""fullscreenenter"",""0"",""8320""
","
","610.3000000119209","<div class='center'><p>That's correct!</p><p><b>[Press the space bar to continue]</b></p></div>","32","","","","","","","","","","","","","","","","","","","","","","",""
"","audio-keyboard-response","81","442518","0.0-50.0-2.0","""event"",""trial"",""time""
""fullscreenenter"",""0"",""8320""
","
","
","""event"",""trial"",""time""
""fullscreenenter"",""0"",""8320""
","
","5480.700000017881","run_exp/static/audio/clip_22_q3.m4a","50","","","","","","","","","","","","","","","","","","","","","","",""
"","correct","82","444873","0.0-51.0-0.0","""event"",""trial"",""time""
""fullscreenenter"",""0"",""8320""
","
","
","""event"",""trial"",""time""
""fullscreenenter"",""0"",""8320""
","
","null","run_exp/static/audio/clip_18_correct.m4a","null","","","","","<div class='center'><p>That's correct!</p></div>","","","","","","","","","","","","","","","","","",""
"","html-keyboard-response","83","445168","0.0-51.0-1.0","""event"",""trial"",""time""
""fullscreenenter"",""0"",""8320""
","
","
","""event"",""trial"",""time""
""fullscreenenter"",""0"",""8320""
","
","293.40000000596046","<div class='center'><p>That's correct!</p><p><b>[Press the space bar to continue]</b></p></div>","32","","","","","","","","","","","","","","","","","","","","","","",""
"","audio-keyboard-response","84","447687","0.0-51.0-2.0","""event"",""trial"",""time""
""fullscreenenter"",""0"",""8320""
","
","
","""event"",""trial"",""time""
""fullscreenenter"",""0"",""8320""
","
","2518.2000000178814","run_exp/static/audio/clip_24_q4.m4a","49","","","","","","","","","","","","","","","","","","","","","","",""
"","correct","85","450079","0.0-52.0-0.0","""event"",""trial"",""time""
""fullscreenenter"",""0"",""8320""
","
","
","""event"",""trial"",""time""
""fullscreenenter"",""0"",""8320""
","
","null","run_exp/static/audio/clip_18_correct.m4a","null","","","","","<div class='center'><p>That's correct!</p></div>","","","","","","","","","","","","","","","","","",""
"","html-keyboard-response","86","450709","0.0-52.0-1.0","""event"",""trial"",""time""
""fullscreenenter"",""0"",""8320""
","
","
","""event"",""trial"",""time""
""fullscreenenter"",""0"",""8320""
","
","628.2999999821186","<div class='center'><p>That's correct!</p><p><b>[Press the space bar to continue]</b></p></div>","32","","","","","","","","","","","","","","","","","","","","","","",""
"","q_all_corr","87","459188","0.0-53.0-0.0","""event"",""trial"",""time""
""fullscreenenter"",""0"",""8320""
","
","
","""event"",""trial"",""time""
""fullscreenenter"",""0"",""8320""
","
","null","run_exp/static/audio/clip_27_quiz_all_correct.m4a","null","","","","","<div class='center'><p>Good job! You’re now ready to move on to the real game! Remember this game will be difficult but don't get discouraged and try your best!</p></div>","","","","","","","","","","","","","","","","","",""
"","html-keyboard-response","88","459520","0.0-53.0-1.0","""event"",""trial"",""time""
""fullscreenenter"",""0"",""8320""
","
","
","""event"",""trial"",""time""
""fullscreenenter"",""0"",""8320""
","
","328.69999998807907","<div class='center'><p>Good job! You’re now ready to move on to the real game! Remember this game will be difficult but don't get discouraged and try your best!</p><p><b>[Press the space bar to continue]</b></p></div>","32","","","","","","","","","","","","","","","","","","","","","","",""
"","do_welcome","89","463531","0.0-54.0-0.0","""event"",""trial"",""time""
""fullscreenenter"",""0"",""8320""
","
","
","""event"",""trial"",""time""
""fullscreenenter"",""0"",""8320""
","
","null","","","","","","","","null","","","","","","","","","","","","","","","","",""
"","do_trial","90","468895","0.0-55.0-0.0","""event"",""trial"",""time""
""fullscreenenter"",""0"",""8320""
","
","
","""event"",""trial"",""time""
""fullscreenenter"",""0"",""8320""
","
","812.8000000119209","","","","","","","","50","0,0,0","0","mountain","0","probe-134","0.6","0.3","0.1","0","","","","","","","",""
"","html-keyboard-response","91","469902","0.0-55.0-1.0","""event"",""trial"",""time""
""fullscreenenter"",""0"",""8320""
","
","
","""event"",""trial"",""time""
""fullscreenenter"",""0"",""8320""
","
","null","<p></p>","null","","","","","","","","","","","","","","","","","","","","","","",""
"","do_trial","92","475639","0.0-56.0-0.0","""event"",""trial"",""time""
""fullscreenenter"",""0"",""8320""
","
","
","""event"",""trial"",""time""
""fullscreenenter"",""0"",""8320""
","
","1186.5999999940395","","","","","","","","51","0,0,0","0","mountain","1","probe-155","0.6354771951378124","0.14570686692591628","0.1702234293989067","0","","","","","","","",""
"","html-keyboard-response","93","476647","0.0-56.0-1.0","""event"",""trial"",""time""
""fullscreenenter"",""0"",""8320""
","
","
","""event"",""trial"",""time""
""fullscreenenter"",""0"",""8320""
","
","null","<p></p>","null","","","","","","","","","","","","","","","","","","","","","","",""
"","do_trial","94","481490","0.0-57.0-0.0","""event"",""trial"",""time""
""fullscreenenter"",""0"",""8320""
","
","
","""event"",""trial"",""time""
""fullscreenenter"",""0"",""8320""
","
","299.10000002384186","","","","","","","","51","1,0,0","0","mountain","2","probe-93","0.562030242844402","0.16606920089835417","0.06552818834016759","0","","","","","","","",""
"","html-keyboard-response","95","482498","0.0-57.0-1.0","""event"",""trial"",""time""
""fullscreenenter"",""0"",""8320""
","
","
","""event"",""trial"",""time""
""fullscreenenter"",""0"",""8320""
","
","null","<p></p>","null","","","","","","","","","","","","","","","","","","","","","","",""
"","do_trial","96","487130","0.0-58.0-0.0","""event"",""trial"",""time""
""fullscreenenter"",""0"",""8320""
","
","
","""event"",""trial"",""time""
""fullscreenenter"",""0"",""8320""
","
","87.7000000178814","","","","","","","","49","1,0,0","0","mountain","3","probe-79","0.5803537793706889","0.15993873331403344","0.07984555835899619","1","","","","","","","",""
"","html-keyboard-response","97","488134","0.0-58.0-1.0","""event"",""trial"",""time""
""fullscreenenter"",""0"",""8320""
","
","
","""event"",""trial"",""time""
""fullscreenenter"",""0"",""8320""
","
","null","<p></p>","null","","","","","","","","","","","","","","","","","","","","","","",""
"","do_trial","98","493119","0.0-59.0-0.0","""event"",""trial"",""time""
""fullscreenenter"",""0"",""8320""
","
","
","""event"",""trial"",""time""
""fullscreenenter"",""0"",""8320""
","
","441","","","","","","","","49","1,0,0","0","mountain","4","probe-36","0.6446880337071926","0.05920672768638454","0.1610600059259296","1","","","","","","","",""
"","html-keyboard-response","99","494126","0.0-59.0-1.0","""event"",""trial"",""time""
""fullscreenenter"",""0"",""8320""
","
","
","""event"",""trial"",""time""
""fullscreenenter"",""0"",""8320""
","
","null","<p></p>","null","","","","","","","","","","","","","","","","","","","","","","",""
"","do_trial","100","499160","0.0-60.0-0.0","""event"",""trial"",""time""
""fullscreenenter"",""0"",""8320""
","
","
","""event"",""trial"",""time""
""fullscreenenter"",""0"",""8320""
","
","490.40000000596046","","","","","","","","49","0,1,0","0","mountain","5","probe-175","0.5860053006082215","0.27786104036054815","0.09808129443100454","0","","","","","","","",""
"","html-keyboard-response","101","500167","0.0-60.0-1.0","""event"",""trial"",""time""
""fullscreenenter"",""0"",""8320""
","
","
","""event"",""trial"",""time""
""fullscreenenter"",""0"",""8320""
","
","null","<p></p>","null","","","","","","","","","","","","","","","","","","","","","","",""
"","do_trial","102","504754","0.0-61.0-0.0","""event"",""trial"",""time""
""fullscreenenter"",""0"",""8320""
","
","
","""event"",""trial"",""time""
""fullscreenenter"",""0"",""8320""
","
","43.599999994039536","","","","","","","","51","1,1,0","0","mountain","6","probe-147","0.6445239107309533","0.42417318584937447","0.31485707191748996","0","","","","","","","",""
"","html-keyboard-response","103","505758","0.0-61.0-1.0","""event"",""trial"",""time""
""fullscreenenter"",""0"",""8320""
","
","
","""event"",""trial"",""time""
""fullscreenenter"",""0"",""8320""
","
","null","<p></p>","null","","","","","","","","","","","","","","","","","","","","","","",""
"","do_trial","104","510333","0.0-62.0-0.0","""event"",""trial"",""time""
""fullscreenenter"",""0"",""8320""
","
","
","""event"",""trial"",""time""
""fullscreenenter"",""0"",""8320""
","
","28.30000001192093","","","","","","","","50","1,0,0","0","mountain","7","probe-178","0.5618099624350467","0.27207473590438147","0.32976064108119835","0","","","","","","","",""
"","html-keyboard-response","105","511338","0.0-62.0-1.0","""event"",""trial"",""time""
""fullscreenenter"",""0"",""8320""
","
","
","""event"",""trial"",""time""
""fullscreenenter"",""0"",""8320""
","
","null","<p></p>","null","","","","","","","","","","","","","","","","","","","","","","",""
"","do_trial","106","516223","0.0-63.0-0.0","""event"",""trial"",""time""
""fullscreenenter"",""0"",""8320""
","
","
","""event"",""trial"",""time""
""fullscreenenter"",""0"",""8320""
","
","342.59999999403954","","","","","","","","50","1,0,1","0","mountain","8","probe-23","0.5703624190455822","0.21541356724806793","0.32517972821589625","0","","","","","","","",""
"","html-keyboard-response","107","517227","0.0-63.0-1.0","""event"",""trial"",""time""
""fullscreenenter"",""0"",""8320""
","
","
","""event"",""trial"",""time""
""fullscreenenter"",""0"",""8320""
","
","null","<p></p>","null","","","","","","","","","","","","","","","","","","","","","","",""
"","do_trial","108","521964","0.0-64.0-0.0","""event"",""trial"",""time""
""fullscreenenter"",""0"",""8320""
","
","
","""event"",""trial"",""time""
""fullscreenenter"",""0"",""8320""
","
","192","","","","","","","","49","0,0,1","0","mountain","9","probe-202","0.6201525807233843","0.2992784697681357","0.35140729980314306","0","","","","","","","",""
"","html-keyboard-response","109","522970","0.0-64.0-1.0","""event"",""trial"",""time""
""fullscreenenter"",""0"",""8320""
","
","
","""event"",""trial"",""time""
""fullscreenenter"",""0"",""8320""
","
","null","<p></p>","null","","","","","","","","","","","","","","","","","","","","","","",""
"","do_trial","110","527632","0.0-65.0-0.0","""event"",""trial"",""time""
""fullscreenenter"",""0"",""8320""
","
","
","""event"",""trial"",""time""
""fullscreenenter"",""0"",""8320""
","
","118","","","","","","","","49","0,0,0","0","mountain","10","probe-56","0.5355343062620689","0.31919735428406426","0.1635102465715008","0","","","","","","","",""
"","html-keyboard-response","111","528639","0.0-65.0-1.0","""event"",""trial"",""time""
""fullscreenenter"",""0"",""8320""
","
","
","""event"",""trial"",""time""
""fullscreenenter"",""0"",""8320""
","
","null","<p></p>","null","","","","","","","","","","","","","","","","","","","","","","",""
"","do_trial","112","533399","0.0-66.0-0.0","""event"",""trial"",""time""
""fullscreenenter"",""0"",""8320""
","
","
","""event"",""trial"",""time""
""fullscreenenter"",""0"",""8320""
","
","212.59999999403954","","","","","","","","51","1,0,0","0","mountain","11","probe-195","0.5913630970592391","0.21697421707316727","0.1170749521636027","0","","","","","","","",""
"","html-keyboard-response","113","534402","0.0-66.0-1.0","""event"",""trial"",""time""
""fullscreenenter"",""0"",""8320""
","
","
","""event"",""trial"",""time""
""fullscreenenter"",""0"",""8320""
","
","null","<p></p>","null","","","","","","","","","","","","","","","","","","","","","","",""
"","do_trial","114","540364","0.0-67.0-0.0","""event"",""trial"",""time""
""fullscreenenter"",""0"",""8320""
","
","
","""event"",""trial"",""time""
""fullscreenenter"",""0"",""8320""
","
","1415.5","","","","","","","","50","0,1,0","0","mountain","12","probe-27","0.5771683626139464","0.29726890562320113","0.06120645604850802","1","","","","","","","",""
"","html-keyboard-response","115","541371","0.0-67.0-1.0","""event"",""trial"",""time""
""fullscreenenter"",""0"",""8320""
","
","
","""event"",""trial"",""time""
""fullscreenenter"",""0"",""8320""
","
","null","<p></p>","null","","","","","","","","","","","","","","","","","","","","","","",""
"","do_trial","116","546381","0.0-68.0-0.0","""event"",""trial"",""time""
""fullscreenenter"",""0"",""8320""
","
","
","""event"",""trial"",""time""
""fullscreenenter"",""0"",""8320""
","
","462.7000000178814","","","","","","","","50","0,1,0","0","mountain","13","probe-50","0.5529925237324349","0.5196279728202573","0.06761525720168945","1","","","","","","","",""
"","html-keyboard-response","117","547388","0.0-68.0-1.0","""event"",""trial"",""time""
""fullscreenenter"",""0"",""8320""
","
","
","""event"",""trial"",""time""
""fullscreenenter"",""0"",""8320""
","
","null","<p></p>","null","","","","","","","","","","","","","","","","","","","","","","",""
"","do_trial","118","552043","0.0-69.0-0.0","""event"",""trial"",""time""
""fullscreenenter"",""0"",""8320""
","
","
","""event"",""trial"",""time""
""fullscreenenter"",""0"",""8320""
","
","109.69999998807907","","","","","","","","51","1,0,1","0","mountain","14","probe-192","0.6396406085156945","0.4302038535505752","0.2404203584353143","1","","","","","","","",""
"","html-keyboard-response","119","553049","0.0-69.0-1.0","""event"",""trial"",""time""
""fullscreenenter"",""0"",""8320""
","
","
","""event"",""trial"",""time""
""fullscreenenter"",""0"",""8320""
","
","null","<p></p>","null","","","","","","","","","","","","","","","","","","","","","","",""
"","do_trial","120","557986","0.0-70.0-0.0","""event"",""trial"",""time""
""fullscreenenter"",""0"",""8320""
","
","
","""event"",""trial"",""time""
""fullscreenenter"",""0"",""8320""
","
","391.5","","","","","","","","51","1,0,0","0","mountain","15","probe-43","0.5942980212132245","0.44053021375463874","0.06030235156382917","0","","","","","","","",""
"","html-keyboard-response","121","558991","0.0-70.0-1.0","""event"",""trial"",""time""
""fullscreenenter"",""0"",""8320""
","
","
","""event"",""trial"",""time""
""fullscreenenter"",""0"",""8320""
","
","null","<p></p>","null","","","","","","","","","","","","","","","","","","","","","","",""
"","do_trial","122","563857","0.0-71.0-0.0","""event"",""trial"",""time""
""fullscreenenter"",""0"",""8320""
","
","
","""event"",""trial"",""time""
""fullscreenenter"",""0"",""8320""
","
","323.30000001192093","","","","","","","","49","1,0,0","0","mountain","16","probe-15","0.629260778479247","0.46842281132007585","0.08846531894315451","1","","","","","","","",""
"","html-keyboard-response","123","564864","0.0-71.0-1.0","""event"",""trial"",""time""
""fullscreenenter"",""0"",""8320""
","
","
","""event"",""trial"",""time""
""fullscreenenter"",""0"",""8320""
","
","null","<p></p>","null","","","","","","","","","","","","","","","","","","","","","","",""
"","do_trial","124","570056","0.0-72.0-0.0","""event"",""trial"",""time""
""fullscreenenter"",""0"",""8320""
","
","
","""event"",""trial"",""time""
""fullscreenenter"",""0"",""8320""
","
","650.3000000119209","","","","","","","","49","1,0,0","0","mountain","17","probe-02","0.6711313501207166","0.3749621623986172","0.20765302266305083","1","","","","","","","",""
"","html-keyboard-response","125","571064","0.0-72.0-1.0","""event"",""trial"",""time""
""fullscreenenter"",""0"",""8320""
","
","
","""event"",""trial"",""time""
""fullscreenenter"",""0"",""8320""
","
","null","<p></p>","null","","","","","","","","","","","","","","","","","","","","","","",""
"","do_trial","126","575983","0.0-73.0-0.0","""event"",""trial"",""time""
""fullscreenenter"",""0"",""8320""
","
","
","""event"",""trial"",""time""
""fullscreenenter"",""0"",""8320""
","
","375","","","","","","","","50","1,1,0","0","mountain","18","probe-74","0.5147018785807981","0.2661309867102005","0.20576602255165316","1","","","","","","","",""
"","html-keyboard-response","127","576992","0.0-73.0-1.0","""event"",""trial"",""time""
""fullscreenenter"",""0"",""8320""
","
","
","""event"",""trial"",""time""
""fullscreenenter"",""0"",""8320""
","
","null","<p></p>","null","","","","","","","","","","","","","","","","","","","","","","",""
"","do_trial","128","581610","0.0-74.0-0.0","""event"",""trial"",""time""
""fullscreenenter"",""0"",""8320""
","
","
","""event"",""trial"",""time""
""fullscreenenter"",""0"",""8320""
","
","75.5","","","","","","","","49","0,0,0","0","mountain","19","probe-214","0.6999922181355407","0.23283268298264362","0.11569699755291442","0","","","","","","","",""
"","html-keyboard-response","129","582617","0.0-74.0-1.0","""event"",""trial"",""time""
""fullscreenenter"",""0"",""8320""
","
","
","""event"",""trial"",""time""
""fullscreenenter"",""0"",""8320""
","
","null","<p></p>","null","","","","","","","","","","","","","","","","","","","","","","",""
"","do_trial","130","587438","0.0-75.0-0.0","""event"",""trial"",""time""
""fullscreenenter"",""0"",""8320""
","
","
","""event"",""trial"",""time""
""fullscreenenter"",""0"",""8320""
","
","274.59999999403954","","","","","","","","50","1,0,0","0","mountain","20","probe-08","0.6562176004592971","0.30893294766331797","0.06845067022161681","0","","","","","","","",""
"","html-keyboard-response","131","588443","0.0-75.0-1.0","""event"",""trial"",""time""
""fullscreenenter"",""0"",""8320""
","
","
","""event"",""trial"",""time""
""fullscreenenter"",""0"",""8320""
","
","null","<p></p>","null","","","","","","","","","","","","","","","","","","","","","","",""
"","do_trial","132","593331","0.0-76.0-0.0","""event"",""trial"",""time""
""fullscreenenter"",""0"",""8320""
","
","
","""event"",""trial"",""time""
""fullscreenenter"",""0"",""8320""
","
","339.7999999821186","","","","","","","","49","1,0,0","0","mountain","21","probe-44","0.5969489627503601","0.2120247289262612","0.13239905198854826","1","","","","","","","",""
"","html-keyboard-response","133","594338","0.0-76.0-1.0","""event"",""trial"",""time""
""fullscreenenter"",""0"",""8320""
","
","
","""event"",""trial"",""time""
""fullscreenenter"",""0"",""8320""
","
","null","<p></p>","null","","","","","","","","","","","","","","","","","","","","","","",""
"","do_trial","134","599852","0.0-77.0-0.0","""event"",""trial"",""time""
""fullscreenenter"",""0"",""8320""
","
","
","""event"",""trial"",""time""
""fullscreenenter"",""0"",""8320""
","
","968.9000000059605","","","","","","","","51","1,1,0","0","mountain","22","probe-215","0.6880729693289561","0.2896223170298891","0.2540178833135972","0","","","","","","","",""
"","html-keyboard-response","135","600857","0.0-77.0-1.0","""event"",""trial"",""time""
""fullscreenenter"",""0"",""8320""
","
","
","""event"",""trial"",""time""
""fullscreenenter"",""0"",""8320""
","
","null","<p></p>","null","","","","","","","","","","","","","","","","","","","","","","",""
"","do_trial","136","605719","0.0-78.0-0.0","""event"",""trial"",""time""
""fullscreenenter"",""0"",""8320""
","
","
","""event"",""trial"",""time""
""fullscreenenter"",""0"",""8320""
","
","316.80000001192093","","","","","","","","50","0,0,0","0","mountain","23","probe-35","0.6638947867573142","0.16095097226375074","0.28659199804376445","0","","","","","","","",""
"","html-keyboard-response","137","606726","0.0-78.0-1.0","""event"",""trial"",""time""
""fullscreenenter"",""0"",""8320""
","
","
","""event"",""trial"",""time""
""fullscreenenter"",""0"",""8320""
","
","null","<p></p>","null","","","","","","","","","","","","","","","","","","","","","","",""
"","do_trial","138","611601","0.0-79.0-0.0","""event"",""trial"",""time""
""fullscreenenter"",""0"",""8320""
","
","
","""event"",""trial"",""time""
""fullscreenenter"",""0"",""8320""
","
","327.59999999403954","","","","","","","","49","1,1,0","0","mountain","24","probe-173","0.7778112291945748","0.23550910012315732","0.18471436683381126","1","","","","","","","",""
"","html-keyboard-response","139","612608","0.0-79.0-1.0","""event"",""trial"",""time""
""fullscreenenter"",""0"",""8320""
","
","
","""event"",""trial"",""time""
""fullscreenenter"",""0"",""8320""
","
","null","<p></p>","null","","","","","","","","","","","","","","","","","","","","","","",""
"","do_trial","140","617999","0.0-80.0-0.0","""event"",""trial"",""time""
""fullscreenenter"",""0"",""8320""
","
","
","""event"",""trial"",""time""
""fullscreenenter"",""0"",""8320""
","
","846.6999999880791","","","","","","","","49","1,1,1","0","mountain","25","probe-131","0.5911100244874445","0.13644373337031165","0.15785588974961698","1","","","","","","","",""
"","html-keyboard-response","141","619003","0.0-80.0-1.0","""event"",""trial"",""time""
""fullscreenenter"",""0"",""8320""
","
","
","""event"",""trial"",""time""
""fullscreenenter"",""0"",""8320""
","
","null","<p></p>","null","","","","","","","","","","","","","","","","","","","","","","",""
"","do_trial","142","624432","0.0-81.0-0.0","""event"",""trial"",""time""
""fullscreenenter"",""0"",""8320""
","
","
","""event"",""trial"",""time""
""fullscreenenter"",""0"",""8320""
","
","882.5","","","","","","","","50","0,0,1","0","mountain","26","probe-16","0.6323173887519261","0.13875304114173662","0.1367598266439835","0","","","","","","","",""
"","html-keyboard-response","143","625436","0.0-81.0-1.0","""event"",""trial"",""time""
""fullscreenenter"",""0"",""8320""
","
","
","""event"",""trial"",""time""
""fullscreenenter"",""0"",""8320""
","
","null","<p></p>","null","","","","","","","","","","","","","","","","","","","","","","",""
"","do_trial","144","630426","0.0-82.0-0.0","""event"",""trial"",""time""
""fullscreenenter"",""0"",""8320""
","
","
","""event"",""trial"",""time""
""fullscreenenter"",""0"",""8320""
","
","445.59999999403954","","","","","","","","51","1,0,1","0","mountain","27","probe-226","0.7192080860723897","0.2844392302288493","0.0819717749162886","1","","","","","","","",""
"","html-keyboard-response","145","631431","0.0-82.0-1.0","""event"",""trial"",""time""
""fullscreenenter"",""0"",""8320""
","
","
","""event"",""trial"",""time""
""fullscreenenter"",""0"",""8320""
","
","null","<p></p>","null","","","","","","","","","","","","","","","","","","","","","","",""
"","do_trial","146","636272","0.0-83.0-0.0","""event"",""trial"",""time""
""fullscreenenter"",""0"",""8320""
","
","
","""event"",""trial"",""time""
""fullscreenenter"",""0"",""8320""
","
","297.40000000596046","","","","","","","","49","0,0,0","0","mountain","28","probe-76","0.690583778171903","0.335486696486943","0.1544098085463873","0","","","","","","","",""
"","html-keyboard-response","147","637280","0.0-83.0-1.0","""event"",""trial"",""time""
""fullscreenenter"",""0"",""8320""
","
","
","""event"",""trial"",""time""
""fullscreenenter"",""0"",""8320""
","
","null","<p></p>","null","","","","","","","","","","","","","","","","","","","","","","",""
"","do_trial","148","642082","0.0-84.0-0.0","""event"",""trial"",""time""
""fullscreenenter"",""0"",""8320""
","
","
","""event"",""trial"",""time""
""fullscreenenter"",""0"",""8320""
","
","255.2999999821186","","","","","","","","51","0,0,0","0","mountain","29","probe-113","0.6447699380863713","0.3236145146837589","0.1227112065967949","0","","","","","","","",""
"","html-keyboard-response","149","643090","0.0-84.0-1.0","""event"",""trial"",""time""
""fullscreenenter"",""0"",""8320""
","
","
","""event"",""trial"",""time""
""fullscreenenter"",""0"",""8320""
","
","null","<p></p>","null","","","","","","","","","","","","","","","","","","","","","","",""
"","do_bye","150","644598","0.0-85.0-0.0","""event"",""trial"",""time""
""fullscreenenter"",""0"",""8320""
","
","
","""event"",""trial"",""time""
""fullscreenenter"",""0"",""8320""
","
","null","","","","","","","","null","","","","","","","","","","","","","","","","",""
"","break","151","648354","0.0-85.0-1.0","""event"",""trial"",""time""
""fullscreenenter"",""0"",""8320""
","
","
","""event"",""trial"",""time""
""fullscreenenter"",""0"",""8320""
","
","3753.300000011921","<div class='center'><p>Time to take a quick break! You have 2 minutes to rest, but you can move on sooner if you'd like.</p><p> Press the <b>space bar</b> to continue.</p></div>","32","","","","","","","","","","","","","","","","","","","","","","",""
"","do_travel","152","657363","0.0-86.0-0.0","""event"",""trial"",""time""
""fullscreenenter"",""0"",""8320""
","
","
","""event"",""trial"",""time""
""fullscreenenter"",""0"",""8320""
","
","null","","","","","","","","null","","","","","","","","","","","","","","","","",""
"","do_welcome","153","661375","0.0-86.0-1.0","""event"",""trial"",""time""
""fullscreenenter"",""0"",""8320""
","
","
","""event"",""trial"",""time""
""fullscreenenter"",""0"",""8320""
","
","null","","","","","","","","null","","","","","","","","","","","","","","","","",""
"","do_trial","154","665934","0.0-87.0-0.0","""event"",""trial"",""time""
""fullscreenenter"",""0"",""8320""
","
","
","""event"",""trial"",""time""
""fullscreenenter"",""0"",""8320""
","
","19.599999994039536","","","","","","","","50","1,0,0","1","forest","30","probe-59","1","0.40857328728054293","0.06342825057428648","0","","","","","","","",""
"","html-keyboard-response","155","666939","0.0-87.0-1.0","""event"",""trial"",""time""
""fullscreenenter"",""0"",""8320""
","
","
","""event"",""trial"",""time""
""fullscreenenter"",""0"",""8320""
","
","null","<p></p>","null","","","","","","","","","","","","","","","","","","","","","","",""
"","do_trial","156","671936","0.0-88.0-0.0","""event"",""trial"",""time""
""fullscreenenter"",""0"",""8320""
","
","
","""event"",""trial"",""time""
""fullscreenenter"",""0"",""8320""
","
","450.7000000178814","","","","","","","","49","1,0,0","1","forest","31","probe-89","1","0.36972741907228945","0.17470906086879576","1","","","","","","","",""
"","html-keyboard-response","157","672941","0.0-88.0-1.0","""event"",""trial"",""time""
""fullscreenenter"",""0"",""8320""
","
","
","""event"",""trial"",""time""
""fullscreenenter"",""0"",""8320""
","
","null","<p></p>","null","","","","","","","","","","","","","","","","","","","","","","",""
"","do_trial","158","677843","0.0-89.0-0.0","""event"",""trial"",""time""
""fullscreenenter"",""0"",""8320""
","
","
","""event"",""trial"",""time""
""fullscreenenter"",""0"",""8320""
","
","357.80000001192093","","","","","","","","49","1,1,0","1","forest","32","probe-109","1","0.4445136157862292","0.1467039088408836","1","","","","","","","",""
"","html-keyboard-response","159","678850","0.0-89.0-1.0","""event"",""trial"",""time""
""fullscreenenter"",""0"",""8320""
","
","
","""event"",""trial"",""time""
""fullscreenenter"",""0"",""8320""
","
","null","<p></p>","null","","","","","","","","","","","","","","","","","","","","","","",""
"","do_trial","160","683793","0.0-90.0-0.0","""event"",""trial"",""time""
""fullscreenenter"",""0"",""8320""
","
","
","""event"",""trial"",""time""
""fullscreenenter"",""0"",""8320""
","
","399.5","","","","","","","","49","1,0,0","1","forest","33","probe-198","0.8744351751694577","0.33833077947791024","0.18757380688142872","1","","","","","","","",""
"","html-keyboard-response","161","684799","0.0-90.0-1.0","""event"",""trial"",""time""
""fullscreenenter"",""0"",""8320""
","
","
","""event"",""trial"",""time""
""fullscreenenter"",""0"",""8320""
","
","null","<p></p>","null","","","","","","","","","","","","","","","","","","","","","","",""
"","do_trial","162","689681","0.0-91.0-0.0","""event"",""trial"",""time""
""fullscreenenter"",""0"",""8320""
","
","
","""event"",""trial"",""time""
""fullscreenenter"",""0"",""8320""
","
","337.10000002384186","","","","","","","","49","1,0,0","1","forest","34","probe-97","0.8949186512058784","0.29499140678060437","0.23273146957355245","1","","","","","","","",""
"","html-keyboard-response","163","690685","0.0-91.0-1.0","""event"",""trial"",""time""
""fullscreenenter"",""0"",""8320""
","
","
","""event"",""trial"",""time""
""fullscreenenter"",""0"",""8320""
","
","null","<p></p>","null","","","","","","","","","","","","","","","","","","","","","","",""
"","do_trial","164","695247","0.0-92.0-0.0","""event"",""trial"",""time""
""fullscreenenter"",""0"",""8320""
","
","
","""event"",""trial"",""time""
""fullscreenenter"",""0"",""8320""
","
","13.599999994039536","","","","","","","","49","1,0,0","1","forest","35","probe-129","0.7695221551023318","0.35562139767667533","0.2075596773612204","1","","","","","","","",""
"","html-keyboard-response","165","696254","0.0-92.0-1.0","""event"",""trial"",""time""
""fullscreenenter"",""0"",""8320""
","
","
","""event"",""trial"",""time""
""fullscreenenter"",""0"",""8320""
","
","null","<p></p>","null","","","","","","","","","","","","","","","","","","","","","","",""
"","do_trial","166","700797","0.0-93.0-0.0","""event"",""trial"",""time""
""fullscreenenter"",""0"",""8320""
","
","
","""event"",""trial"",""time""
""fullscreenenter"",""0"",""8320""
","
","0.09999999403953552","","","","","","","","49","1,0,1","1","forest","36","probe-150","0.6695513564147575","0.23231526147011175","0.25793586887098835","1","","","","","","","",""
"","html-keyboard-response","167","701803","0.0-93.0-1.0","""event"",""trial"",""time""
""fullscreenenter"",""0"",""8320""
","
","
","""event"",""trial"",""time""
""fullscreenenter"",""0"",""8320""
","
","null","<p></p>","null","","","","","","","","","","","","","","","","","","","","","","",""
"","do_trial","168","706347","0.0-94.0-0.0","""event"",""trial"",""time""
""fullscreenenter"",""0"",""8320""
","
","
","""event"",""trial"",""time""
""fullscreenenter"",""0"",""8320""
","
","0.09999999403953552","","","","","","","","49","0,0,0","1","forest","37","probe-65","0.45067302048346836","0.16819918627115066","0.20264910259010194","0","","","","","","","",""
"","html-keyboard-response","169","707351","0.0-94.0-1.0","""event"",""trial"",""time""
""fullscreenenter"",""0"",""8320""
","
","
","""event"",""trial"",""time""
""fullscreenenter"",""0"",""8320""
","
","null","<p></p>","null","","","","","","","","","","","","","","","","","","","","","","",""
"","do_trial","170","712597","0.0-95.0-0.0","""event"",""trial"",""time""
""fullscreenenter"",""0"",""8320""
","
","
","""event"",""trial"",""time""
""fullscreenenter"",""0"",""8320""
","
","701.4000000059605","","","","","","","","49","0,0,0","1","forest","38","probe-200","0.522580165214456","0.05675961646285071","0.17491494613603187","0","","","","","","","",""
"","html-keyboard-response","171","713604","0.0-95.0-1.0","""event"",""trial"",""time""
""fullscreenenter"",""0"",""8320""
","
","
","""event"",""trial"",""time""
""fullscreenenter"",""0"",""8320""
","
","null","<p></p>","null","","","","","","","","","","","","","","","","","","","","","","",""
"","do_trial","172","718386","0.0-96.0-0.0","""event"",""trial"",""time""
""fullscreenenter"",""0"",""8320""
","
","
","""event"",""trial"",""time""
""fullscreenenter"",""0"",""8320""
","
","237.80000001192093","","","","","","","","49","1,0,0","1","forest","39","probe-10","0.5726138208373409","0.23796344473755723","0.1754614800837591","1","","","","","","","",""
"","html-keyboard-response","173","719389","0.0-96.0-1.0","""event"",""trial"",""time""
""fullscreenenter"",""0"",""8320""
","
","
","""event"",""trial"",""time""
""fullscreenenter"",""0"",""8320""
","
","null","<p></p>","null","","","","","","","","","","","","","","","","","","","","","","",""
"","do_trial","174","724152","0.0-97.0-0.0","""event"",""trial"",""time""
""fullscreenenter"",""0"",""8320""
","
","
","""event"",""trial"",""time""
""fullscreenenter"",""0"",""8320""
","
","219.5","","","","","","","","49","1,0,0","1","forest","40","probe-187","0.5431137863196183","0.2589058520049585","0.3135384070445179","1","","","","","","","",""
"","html-keyboard-response","175","725156","0.0-97.0-1.0","""event"",""trial"",""time""
""fullscreenenter"",""0"",""8320""
","
","
","""event"",""trial"",""time""
""fullscreenenter"",""0"",""8320""
","
","null","<p></p>","null","","","","","","","","","","","","","","","","","","","","","","",""
"","do_trial","176","729817","0.0-98.0-0.0","""event"",""trial"",""time""
""fullscreenenter"",""0"",""8320""
","
","
","""event"",""trial"",""time""
""fullscreenenter"",""0"",""8320""
","
","115.39999997615814","","","","","","","","49","1,0,0","1","forest","41","probe-64","0.5203746527967528","0.16202587259186857","0.3080681863003125","1","","","","","","","",""
"","html-keyboard-response","177","730824","0.0-98.0-1.0","""event"",""trial"",""time""
""fullscreenenter"",""0"",""8320""
","
","
","""event"",""trial"",""time""
""fullscreenenter"",""0"",""8320""
","
","null","<p></p>","null","","","","","","","","","","","","","","","","","","","","","","",""
"","do_trial","178","735397","0.0-99.0-0.0","""event"",""trial"",""time""
""fullscreenenter"",""0"",""8320""
","
","
","""event"",""trial"",""time""
""fullscreenenter"",""0"",""8320""
","
","27.099999994039536","","","","","","","","49","0,0,0","1","forest","42","probe-71","0.5040717691277815","0.13537526797634777","0.31996153224574353","0","","","","","","","",""
"","html-keyboard-response","179","736401","0.0-99.0-1.0","""event"",""trial"",""time""
""fullscreenenter"",""0"",""8320""
","
","
","""event"",""trial"",""time""
""fullscreenenter"",""0"",""8320""
","
","null","<p></p>","null","","","","","","","","","","","","","","","","","","","","","","",""
"","do_trial","180","741391","0.0-100.0-0.0","""event"",""trial"",""time""
""fullscreenenter"",""0"",""8320""
","
","
","""event"",""trial"",""time""
""fullscreenenter"",""0"",""8320""
","
","450.40000000596046","","","","","","","","49","0,1,0","1","forest","43","probe-90","0.3973054823104407","0.25486091320210025","0.4392945135091339","0","","","","","","","",""
"","html-keyboard-response","181","742400","0.0-100.0-1.0","""event"",""trial"",""time""
""fullscreenenter"",""0"",""8320""
","
","
","""event"",""trial"",""time""
""fullscreenenter"",""0"",""8320""
","
","null","<p></p>","null","","","","","","","","","","","","","","","","","","","","","","",""
"","do_trial","182","747331","0.0-101.0-0.0","""event"",""trial"",""time""
""fullscreenenter"",""0"",""8320""
","
","
","""event"",""trial"",""time""
""fullscreenenter"",""0"",""8320""
","
","385.09999999403954","","","","","","","","49","0,0,0","1","forest","44","probe-72","0.3013023810273587","0.08871268157265251","0.6213283568339302","0","","","","","","","",""
"","html-keyboard-response","183","748338","0.0-101.0-1.0","""event"",""trial"",""time""
""fullscreenenter"",""0"",""8320""
","
","
","""event"",""trial"",""time""
""fullscreenenter"",""0"",""8320""
","
","null","<p></p>","null","","","","","","","","","","","","","","","","","","","","","","",""
"","do_trial","184","752884","0.0-102.0-0.0","""event"",""trial"",""time""
""fullscreenenter"",""0"",""8320""
","
","
","""event"",""trial"",""time""
""fullscreenenter"",""0"",""8320""
","
","0.09999999403953552","","","","","","","","49","0,0,1","1","forest","45","probe-183","0.24265699335274898","0.19947084082789254","0.6824876929475424","0","","","","","","","",""
"","html-keyboard-response","185","753888","0.0-102.0-1.0","""event"",""trial"",""time""
""fullscreenenter"",""0"",""8320""
","
","
","""event"",""trial"",""time""
""fullscreenenter"",""0"",""8320""
","
","null","<p></p>","null","","","","","","","","","","","","","","","","","","","","","","",""
"","do_trial","186","758770","0.0-103.0-0.0","""event"",""trial"",""time""
""fullscreenenter"",""0"",""8320""
","
","
","""event"",""trial"",""time""
""fullscreenenter"",""0"",""8320""
","
","336.59999999403954","","","","","","","","49","1,0,1","1","forest","46","probe-191","0.186054321548961","0.09039147321343868","0.6539347326422726","1","","","","","","","",""
"","html-keyboard-response","187","759773","0.0-103.0-1.0","""event"",""trial"",""time""
""fullscreenenter"",""0"",""8320""
","
","
","""event"",""trial"",""time""
""fullscreenenter"",""0"",""8320""
","
","null","<p></p>","null","","","","","","","","","","","","","","","","","","","","","","",""
"","do_trial","188","764519","0.0-104.0-0.0","""event"",""trial"",""time""
""fullscreenenter"",""0"",""8320""
","
","
","""event"",""trial"",""time""
""fullscreenenter"",""0"",""8320""
","
","200.30000001192093","","","","","","","","49","1,1,0","1","forest","47","probe-87","0.10804834381176882","0.12033471226967764","0.5783510417258568","1","","","","","","","",""
"","html-keyboard-response","189","765524","0.0-104.0-1.0","""event"",""trial"",""time""
""fullscreenenter"",""0"",""8320""
","
","
","""event"",""trial"",""time""
""fullscreenenter"",""0"",""8320""
","
","null","<p></p>","null","","","","","","","","","","","","","","","","","","","","","","",""
"","do_trial","190","770206","0.0-105.0-0.0","""event"",""trial"",""time""
""fullscreenenter"",""0"",""8320""
","
","
","""event"",""trial"",""time""
""fullscreenenter"",""0"",""8320""
","
","136.7000000178814","","","","","","","","49","0,1,1","1","forest","48","probe-225","0.1783984815748738","0.14661053865426396","0.5997541274900412","0","","","","","","","",""
"","html-keyboard-response","191","771214","0.0-105.0-1.0","""event"",""trial"",""time""
""fullscreenenter"",""0"",""8320""
","
","
","""event"",""trial"",""time""
""fullscreenenter"",""0"",""8320""
","
","null","<p></p>","null","","","","","","","","","","","","","","","","","","","","","","",""
"","do_trial","192","776182","0.0-106.0-0.0","""event"",""trial"",""time""
""fullscreenenter"",""0"",""8320""
","
","
","""event"",""trial"",""time""
""fullscreenenter"",""0"",""8320""
","
","422.5","","","","","","","","49","0,0,1","1","forest","49","probe-120","0.16198309582428094","0.22147298319677527","0.7711326045674071","0","","","","","","","",""
"","html-keyboard-response","193","777186","0.0-106.0-1.0","""event"",""trial"",""time""
""fullscreenenter"",""0"",""8320""
","
","
","""event"",""trial"",""time""
""fullscreenenter"",""0"",""8320""
","
","null","<p></p>","null","","","","","","","","","","","","","","","","","","","","","","",""
"","do_trial","194","782131","0.0-107.0-0.0","""event"",""trial"",""time""
""fullscreenenter"",""0"",""8320""
","
","
","""event"",""trial"",""time""
""fullscreenenter"",""0"",""8320""
","
","396.19999998807907","","","","","","","","49","0,0,0","1","forest","50","probe-47","0.12382789997722532","0.07940322377699756","0.6457664797613077","0","","","","","","","",""
"","html-keyboard-response","195","783134","0.0-107.0-1.0","""event"",""trial"",""time""
""fullscreenenter"",""0"",""8320""
","
","
","""event"",""trial"",""time""
""fullscreenenter"",""0"",""8320""
","
","null","<p></p>","null","","","","","","","","","","","","","","","","","","","","","","",""
"","do_trial","196","788021","0.0-108.0-0.0","""event"",""trial"",""time""
""fullscreenenter"",""0"",""8320""
","
","
","""event"",""trial"",""time""
""fullscreenenter"",""0"",""8320""
","
","342.59999999403954","","","","","","","","49","0,1,1","1","forest","51","probe-149","0.08726931462925805","0.18574051944688208","0.6603192154457574","0","","","","","","","",""
"","html-keyboard-response","197","789027","0.0-108.0-1.0","""event"",""trial"",""time""
""fullscreenenter"",""0"",""8320""
","
","
","""event"",""trial"",""time""
""fullscreenenter"",""0"",""8320""
","
","null","<p></p>","null","","","","","","","","","","","","","","","","","","","","","","",""
"","do_trial","198","795051","0.0-109.0-0.0","""event"",""trial"",""time""
""fullscreenenter"",""0"",""8320""
","
","
","""event"",""trial"",""time""
""fullscreenenter"",""0"",""8320""
","
","1481.7000000178814","","","","","","","","49","0,1,1","1","forest","52","probe-135","0.282876639569064","0.31349747112572857","0.6839424874079179","0","","","","","","","",""
"","html-keyboard-response","199","796059","0.0-109.0-1.0","""event"",""trial"",""time""
""fullscreenenter"",""0"",""8320""
","
","
","""event"",""trial"",""time""
""fullscreenenter"",""0"",""8320""
","
","null","<p></p>","null","","","","","","","","","","","","","","","","","","","","","","",""
"","do_trial","200","801314","0.0-110.0-0.0","""event"",""trial"",""time""
""fullscreenenter"",""0"",""8320""
","
","
","""event"",""trial"",""time""
""fullscreenenter"",""0"",""8320""
","
","709.5","","","","","","","","49","0,0,1","1","forest","53","probe-85","0.41910974245113713","0.1144594486096709","0.5461038360724294","0","","","","","","","",""
"","html-keyboard-response","201","802321","0.0-110.0-1.0","""event"",""trial"",""time""
""fullscreenenter"",""0"",""8320""
","
","
","""event"",""trial"",""time""
""fullscreenenter"",""0"",""8320""
","
","null","<p></p>","null","","","","","","","","","","","","","","","","","","","","","","",""
"","do_trial","202","807140","0.0-111.0-0.0","""event"",""trial"",""time""
""fullscreenenter"",""0"",""8320""
","
","
","""event"",""trial"",""time""
""fullscreenenter"",""0"",""8320""
","
","274.2999999821186","","","","","","","","49","0,0,1","1","forest","54","probe-114","0.49795767252185186","0.23169785657789352","0.39873243044389917","0","","","","","","","",""
"","html-keyboard-response","203","808148","0.0-111.0-1.0","""event"",""trial"",""time""
""fullscreenenter"",""0"",""8320""
","
","
","""event"",""trial"",""time""
""fullscreenenter"",""0"",""8320""
","
","null","<p></p>","null","","","","","","","","","","","","","","","","","","","","","","",""
"","do_trial","204","813169","0.0-112.0-0.0","""event"",""trial"",""time""
""fullscreenenter"",""0"",""8320""
","
","
","""event"",""trial"",""time""
""fullscreenenter"",""0"",""8320""
","
","475.09999999403954","","","","","","","","49","1,0,0","1","forest","55","probe-211","0.4496132691227709","0.18971394006164535","0.3764420736997252","1","","","","","","","",""
"","html-keyboard-response","205","814179","0.0-112.0-1.0","""event"",""trial"",""time""
""fullscreenenter"",""0"",""8320""
","
","
","""event"",""trial"",""time""
""fullscreenenter"",""0"",""8320""
","
","null","<p></p>","null","","","","","","","","","","","","","","","","","","","","","","",""
"","do_trial","206","819052","0.0-113.0-0.0","""event"",""trial"",""time""
""fullscreenenter"",""0"",""8320""
","
","
","""event"",""trial"",""time""
""fullscreenenter"",""0"",""8320""
","
","331.80000001192093","","","","","","","","49","1,0,0","1","forest","56","probe-124","0.5168951391661585","0.055861384747920496","0.523295795586443","1","","","","","","","",""
"","html-keyboard-response","207","820057","0.0-113.0-1.0","""event"",""trial"",""time""
""fullscreenenter"",""0"",""8320""
","
","
","""event"",""trial"",""time""
""fullscreenenter"",""0"",""8320""
","
","null","<p></p>","null","","","","","","","","","","","","","","","","","","","","","","",""
"","do_trial","208","824865","0.0-114.0-0.0","""event"",""trial"",""time""
""fullscreenenter"",""0"",""8320""
","
","
","""event"",""trial"",""time""
""fullscreenenter"",""0"",""8320""
","
","265","","","","","","","","49","0,0,0","1","forest","57","probe-201","0.5168729775149127","0.1375464778020678","0.5138669568216087","0","","","","","","","",""
"","html-keyboard-response","209","825873","0.0-114.0-1.0","""event"",""trial"",""time""
""fullscreenenter"",""0"",""8320""
","
","
","""event"",""trial"",""time""
""fullscreenenter"",""0"",""8320""
","
","null","<p></p>","null","","","","","","","","","","","","","","","","","","","","","","",""
"","do_trial","210","830800","0.0-115.0-0.0","""event"",""trial"",""time""
""fullscreenenter"",""0"",""8320""
","
","
","""event"",""trial"",""time""
""fullscreenenter"",""0"",""8320""
","
","380.09999999403954","","","","","","","","49","0,0,1","1","forest","58","probe-161","0.4567509742109207","0.18403668786712135","0.6094043119911481","0","","","","","","","",""
"","html-keyboard-response","211","831805","0.0-115.0-1.0","""event"",""trial"",""time""
""fullscreenenter"",""0"",""8320""
","
","
","""event"",""trial"",""time""
""fullscreenenter"",""0"",""8320""
","
","null","<p></p>","null","","","","","","","","","","","","","","","","","","","","","","",""
"","do_trial","212","836924","0.0-116.0-0.0","""event"",""trial"",""time""
""fullscreenenter"",""0"",""8320""
","
","
","""event"",""trial"",""time""
""fullscreenenter"",""0"",""8320""
","
","575.5","","","","","","","","49","1,0,0","1","forest","59","probe-220","0.5032339881636777","0.34349338112560146","0.6078756786203655","1","","","","","","","",""
"","html-keyboard-response","213","837933","0.0-116.0-1.0","""event"",""trial"",""time""
""fullscreenenter"",""0"",""8320""
","
","
","""event"",""trial"",""time""
""fullscreenenter"",""0"",""8320""
","
","null","<p></p>","null","","","","","","","","","","","","","","","","","","","","","","",""
"","do_trial","214","842672","0.0-117.0-0.0","""event"",""trial"",""time""
""fullscreenenter"",""0"",""8320""
","
","
","""event"",""trial"",""time""
""fullscreenenter"",""0"",""8320""
","
","196.80000001192093","","","","","","","","49","0,1,1","1","forest","60","probe-139","0.4146192343972627","0.39851831040328","0.45738570827948216","0","","","","","","","",""
"","html-keyboard-response","215","843677","0.0-117.0-1.0","""event"",""trial"",""time""
""fullscreenenter"",""0"",""8320""
","
","
","""event"",""trial"",""time""
""fullscreenenter"",""0"",""8320""
","
","null","<p></p>","null","","","","","","","","","","","","","","","","","","","","","","",""
"","do_trial","216","848687","0.0-118.0-0.0","""event"",""trial"",""time""
""fullscreenenter"",""0"",""8320""
","
","
","""event"",""trial"",""time""
""fullscreenenter"",""0"",""8320""
","
","463.59999999403954","","","","","","","","49","1,0,0","1","forest","61","probe-34","0.4822249701736379","0.2171510501995665","0.5506171344877836","1","","","","","","","",""
"","html-keyboard-response","217","849691","0.0-118.0-1.0","""event"",""trial"",""time""
""fullscreenenter"",""0"",""8320""
","
","
","""event"",""trial"",""time""
""fullscreenenter"",""0"",""8320""
","
","null","<p></p>","null","","","","","","","","","","","","","","","","","","","","","","",""
"","do_trial","218","854730","0.0-119.0-0.0","""event"",""trial"",""time""
""fullscreenenter"",""0"",""8320""
","
","
","""event"",""trial"",""time""
""fullscreenenter"",""0"",""8320""
","
","494.59999999403954","","","","","","","","49","0,0,0","1","forest","62","probe-103","0.46370578543320534","0.1322203192982353","0.5486345936401847","0","","","","","","","",""
"","html-keyboard-response","219","855738","0.0-119.0-1.0","""event"",""trial"",""time""
""fullscreenenter"",""0"",""8320""
","
","
","""event"",""trial"",""time""
""fullscreenenter"",""0"",""8320""
","
","null","<p></p>","null","","","","","","","","","","","","","","","","","","","","","","",""
"","do_trial","220","860564","0.0-120.0-0.0","""event"",""trial"",""time""
""fullscreenenter"",""0"",""8320""
","
","
","""event"",""trial"",""time""
""fullscreenenter"",""0"",""8320""
","
","282.30000001192093","","","","","","","","49","0,0,0","1","forest","63","probe-119","0.4345293277283658","0.12193606472712348","0.5119933852132588","0","","","","","","","",""
"","html-keyboard-response","221","861569","0.0-120.0-1.0","""event"",""trial"",""time""
""fullscreenenter"",""0"",""8320""
","
","
","""event"",""trial"",""time""
""fullscreenenter"",""0"",""8320""
","
","null","<p></p>","null","","","","","","","","","","","","","","","","","","","","","","",""
"","do_trial","222","866406","0.0-121.0-0.0","""event"",""trial"",""time""
""fullscreenenter"",""0"",""8320""
","
","
","""event"",""trial"",""time""
""fullscreenenter"",""0"",""8320""
","
","292.80000001192093","","","","","","","","49","1,0,0","1","forest","64","probe-209","0.5181699095012036","0.06806685036963256","0.5278652605923568","1","","","","","","","",""
"","html-keyboard-response","223","867414","0.0-121.0-1.0","""event"",""trial"",""time""
""fullscreenenter"",""0"",""8320""
","
","
","""event"",""trial"",""time""
""fullscreenenter"",""0"",""8320""
","
","null","<p></p>","null","","","","","","","","","","","","","","","","","","","","","","",""
"","do_trial","224","873351","0.0-122.0-0.0","""event"",""trial"",""time""
""fullscreenenter"",""0"",""8320""
","
","
","""event"",""trial"",""time""
""fullscreenenter"",""0"",""8320""
","
","1395.5","","","","","","","","49","0,0,1","1","forest","65","probe-04","0.38160038776925753","0.13514219761682428","0.6043597186715994","0","","","","","","","",""
"","html-keyboard-response","225","874357","0.0-122.0-1.0","""event"",""trial"",""time""
""fullscreenenter"",""0"",""8320""
","
","
","""event"",""trial"",""time""
""fullscreenenter"",""0"",""8320""
","
","null","<p></p>","null","","","","","","","","","","","","","","","","","","","","","","",""
"","do_trial","226","879706","0.0-123.0-0.0","""event"",""trial"",""time""
""fullscreenenter"",""0"",""8320""
","
","
","""event"",""trial"",""time""
""fullscreenenter"",""0"",""8320""
","
","805.6999999880791","","","","","","","","49","1,1,1","1","forest","66","probe-17","0.4624405410529846","0.2638494337527228","0.4772604114568118","1","","","","","","","",""
"","html-keyboard-response","227","880715","0.0-123.0-1.0","""event"",""trial"",""time""
""fullscreenenter"",""0"",""8320""
","
","
","""event"",""trial"",""time""
""fullscreenenter"",""0"",""8320""
","
","null","<p></p>","null","","","","","","","","","","","","","","","","","","","","","","",""
"","do_trial","228","886739","0.0-124.0-0.0","""event"",""trial"",""time""
""fullscreenenter"",""0"",""8320""
","
","
","""event"",""trial"",""time""
""fullscreenenter"",""0"",""8320""
","
","1481.8999999761581","","","","","","","","49","1,0,0","1","forest","67","probe-11","0.37085602473843066","0.19718037843719383","0.5676639597774618","1","","","","","","","",""
"","html-keyboard-response","229","887747","0.0-124.0-1.0","""event"",""trial"",""time""
""fullscreenenter"",""0"",""8320""
","
","
","""event"",""trial"",""time""
""fullscreenenter"",""0"",""8320""
","
","null","<p></p>","null","","","","","","","","","","","","","","","","","","","","","","",""
"","do_trial","230","892659","0.0-125.0-0.0","""event"",""trial"",""time""
""fullscreenenter"",""0"",""8320""
","
","
","""event"",""trial"",""time""
""fullscreenenter"",""0"",""8320""
","
","365.69999998807907","","","","","","","","49","0,0,1","1","forest","68","probe-171","0.34344053801788166","0.14666205813519478","0.5473499616111841","0","","","","","","","",""
"","html-keyboard-response","231","893665","0.0-125.0-1.0","""event"",""trial"",""time""
""fullscreenenter"",""0"",""8320""
","
","
","""event"",""trial"",""time""
""fullscreenenter"",""0"",""8320""
","
","null","<p></p>","null","","","","","","","","","","","","","","","","","","","","","","",""
"","do_trial","232","898839","0.0-126.0-0.0","""event"",""trial"",""time""
""fullscreenenter"",""0"",""8320""
","
","
","""event"",""trial"",""time""
""fullscreenenter"",""0"",""8320""
","
","628","","","","","","","","49","0,0,1","1","forest","69","probe-30","0.3202589806278769","0.16775300219722014","0.5273346961747576","0","","","","","","","",""
"","html-keyboard-response","233","899847","0.0-126.0-1.0","""event"",""trial"",""time""
""fullscreenenter"",""0"",""8320""
","
","
","""event"",""trial"",""time""
""fullscreenenter"",""0"",""8320""
","
","null","<p></p>","null","","","","","","","","","","","","","","","","","","","","","","",""
"","do_bye","234","901358","0.0-127.0-0.0","""event"",""trial"",""time""
""fullscreenenter"",""0"",""8320""
","
","
","""event"",""trial"",""time""
""fullscreenenter"",""0"",""8320""
","
","null","","","","","","","","null","","","","","","","","","","","","","","","","",""
"","break","235","902498","0.0-127.0-1.0","""event"",""trial"",""time""
""fullscreenenter"",""0"",""8320""
","
","
","""event"",""trial"",""time""
""fullscreenenter"",""0"",""8320""
","
","1138.6000000238419","<div class='center'><p>Time to take a quick break! You have 2 minutes to rest, but you can move on sooner if you'd like.</p><p> Press the <b>space bar</b> to continue.</p></div>","32","","","","","","","","","","","","","","","","","","","","","","",""
"","do_travel","236","911508","0.0-128.0-0.0","""event"",""trial"",""time""
""fullscreenenter"",""0"",""8320""
","
","
","""event"",""trial"",""time""
""fullscreenenter"",""0"",""8320""
","
","null","","","","","","","","null","","","","","","","","","","","","","","","","",""
"","do_welcome","237","915521","0.0-128.0-1.0","""event"",""trial"",""time""
""fullscreenenter"",""0"",""8320""
","
","
","""event"",""trial"",""time""
""fullscreenenter"",""0"",""8320""
","
","null","","","","","","","","null","","","","","","","","","","","","","","","","",""
"","do_trial","238","921497","0.0-129.0-0.0","""event"",""trial"",""time""
""fullscreenenter"",""0"",""8320""
","
","
","""event"",""trial"",""time""
""fullscreenenter"",""0"",""8320""
","
","1435.7999999821186","","","","","","","","49","0,0,1","2","highway","70","probe-95","0.3391478172369035","0.06777900844687414","1","0","","","","","","","",""
"","html-keyboard-response","239","922507","0.0-129.0-1.0","""event"",""trial"",""time""
""fullscreenenter"",""0"",""8320""
","
","
","""event"",""trial"",""time""
""fullscreenenter"",""0"",""8320""
","
","null","<p></p>","null","","","","","","","","","","","","","","","","","","","","","","",""
"","do_trial","240","927581","0.0-130.0-0.0","""event"",""trial"",""time""
""fullscreenenter"",""0"",""8320""
","
","
","""event"",""trial"",""time""
""fullscreenenter"",""0"",""8320""
","
","526.5","","","","","","","","50","0,0,1","2","highway","71","probe-167","0.24589926110490706","0.2387895803564999","1","0","","","","","","","",""
"","html-keyboard-response","241","928585","0.0-130.0-1.0","""event"",""trial"",""time""
""fullscreenenter"",""0"",""8320""
","
","
","""event"",""trial"",""time""
""fullscreenenter"",""0"",""8320""
","
","null","<p></p>","null","","","","","","","","","","","","","","","","","","","","","","",""
"","do_trial","242","933674","0.0-131.0-0.0","""event"",""trial"",""time""
""fullscreenenter"",""0"",""8320""
","
","
","""event"",""trial"",""time""
""fullscreenenter"",""0"",""8320""
","
","543.1999999880791","","","","","","","","51","0,0,1","2","highway","72","probe-63","0.21134707243175122","0.07547956053380973","0.7261051671664077","1","","","","","","","",""
"","html-keyboard-response","243","934682","0.0-131.0-1.0","""event"",""trial"",""time""
""fullscreenenter"",""0"",""8320""
","
","
","""event"",""trial"",""time""
""fullscreenenter"",""0"",""8320""
","
","null","<p></p>","null","","","","","","","","","","","","","","","","","","","","","","",""
"","do_trial","244","939505","0.0-132.0-0.0","""event"",""trial"",""time""
""fullscreenenter"",""0"",""8320""
","
","
","""event"",""trial"",""time""
""fullscreenenter"",""0"",""8320""
","
","278.90000000596046","","","","","","","","51","1,0,1","2","highway","73","probe-230","0.32970370378550534","0.1389193384810846","0.8037009699148593","1","","","","","","","",""
"","html-keyboard-response","245","940510","0.0-132.0-1.0","""event"",""trial"",""time""
""fullscreenenter"",""0"",""8320""
","
","
","""event"",""trial"",""time""
""fullscreenenter"",""0"",""8320""
","
","null","<p></p>","null","","","","","","","","","","","","","","","","","","","","","","",""
"","do_trial","246","945589","0.0-133.0-0.0","""event"",""trial"",""time""
""fullscreenenter"",""0"",""8320""
","
","
","""event"",""trial"",""time""
""fullscreenenter"",""0"",""8320""
","
","530.6999999880791","","","","","","","","51","0,0,1","2","highway","74","probe-106","0.4404701331825141","0.09396198062786294","0.7252813730772114","1","","","","","","","",""
"","html-keyboard-response","247","946597","0.0-133.0-1.0","""event"",""trial"",""time""
""fullscreenenter"",""0"",""8320""
","
","
","""event"",""trial"",""time""
""fullscreenenter"",""0"",""8320""
","
","null","<p></p>","null","","","","","","","","","","","","","","","","","","","","","","",""
"","do_trial","248","951492","0.0-134.0-0.0","""event"",""trial"",""time""
""fullscreenenter"",""0"",""8320""
","
","
","""event"",""trial"",""time""
""fullscreenenter"",""0"",""8320""
","
","351.5","","","","","","","","51","1,0,1","2","highway","75","probe-130","0.3106614883036247","0.17238286970841912","0.777998387706468","1","","","","","","","",""
"","html-keyboard-response","249","952500","0.0-134.0-1.0","""event"",""trial"",""time""
""fullscreenenter"",""0"",""8320""
","
","
","""event"",""trial"",""time""
""fullscreenenter"",""0"",""8320""
","
","null","<p></p>","null","","","","","","","","","","","","","","","","","","","","","","",""
"","do_trial","250","957533","0.0-135.0-0.0","""event"",""trial"",""time""
""fullscreenenter"",""0"",""8320""
","
","
","""event"",""trial"",""time""
""fullscreenenter"",""0"",""8320""
","
","487.19999998807907","","","","","","","","51","1,0,0","2","highway","76","probe-142","0.3529538869872795","0.21721887998174402","0.6799990593564015","0","","","","","","","",""
"","html-keyboard-response","251","958540","0.0-135.0-1.0","""event"",""trial"",""time""
""fullscreenenter"",""0"",""8320""
","
","
","""event"",""trial"",""time""
""fullscreenenter"",""0"",""8320""
","
","null","<p></p>","null","","","","","","","","","","","","","","","","","","","","","","",""
"","do_trial","252","963424","0.0-136.0-0.0","""event"",""trial"",""time""
""fullscreenenter"",""0"",""8320""
","
","
","""event"",""trial"",""time""
""fullscreenenter"",""0"",""8320""
","
","341.80000001192093","","","","","","","","51","0,0,1","2","highway","77","probe-83","0.2783154375000485","0.14076009093646352","0.6184301142226382","1","","","","","","","",""
"","html-keyboard-response","253","964432","0.0-136.0-1.0","""event"",""trial"",""time""
""fullscreenenter"",""0"",""8320""
","
","
","""event"",""trial"",""time""
""fullscreenenter"",""0"",""8320""
","
","null","<p></p>","null","","","","","","","","","","","","","","","","","","","","","","",""
"","do_trial","254","969592","0.0-137.0-0.0","""event"",""trial"",""time""
""fullscreenenter"",""0"",""8320""
","
","
","""event"",""trial"",""time""
""fullscreenenter"",""0"",""8320""
","
","617.2000000178814","","","","","","","","51","0,0,1","2","highway","78","probe-193","0.5454863959986544","0.15420502720556115","0.4698942109515072","1","","","","","","","",""
"","html-keyboard-response","255","970599","0.0-137.0-1.0","""event"",""trial"",""time""
""fullscreenenter"",""0"",""8320""
","
","
","""event"",""trial"",""time""
""fullscreenenter"",""0"",""8320""
","
","null","<p></p>","null","","","","","","","","","","","","","","","","","","","","","","",""
"","do_trial","256","975505","0.0-138.0-0.0","""event"",""trial"",""time""
""fullscreenenter"",""0"",""8320""
","
","
","""event"",""trial"",""time""
""fullscreenenter"",""0"",""8320""
","
","363.2999999821186","","","","","","","","51","0,0,1","2","highway","79","probe-229","0.31795667736293937","0.0635210865000755","0.522939797711644","1","","","","","","","",""
"","html-keyboard-response","257","976513","0.0-138.0-1.0","""event"",""trial"",""time""
""fullscreenenter"",""0"",""8320""
","
","
","""event"",""trial"",""time""
""fullscreenenter"",""0"",""8320""
","
","null","<p></p>","null","","","","","","","","","","","","","","","","","","","","","","",""
"","do_trial","258","981499","0.0-139.0-0.0","""event"",""trial"",""time""
""fullscreenenter"",""0"",""8320""
","
","
","""event"",""trial"",""time""
""fullscreenenter"",""0"",""8320""
","
","442.80000001192093","","","","","","","","51","1,0,0","2","highway","80","probe-22","0.39707849824712216","0.1043996962833463","0.4705692988499308","0","","","","","","","",""
"","html-keyboard-response","259","982506","0.0-139.0-1.0","""event"",""trial"",""time""
""fullscreenenter"",""0"",""8320""
","
","
","""event"",""trial"",""time""
""fullscreenenter"",""0"",""8320""
","
","null","<p></p>","null","","","","","","","","","","","","","","","","","","","","","","",""
"","do_trial","260","987343","0.0-140.0-0.0","""event"",""trial"",""time""
""fullscreenenter"",""0"",""8320""
","
","
","""event"",""trial"",""time""
""fullscreenenter"",""0"",""8320""
","
","292","","","","","","","","51","1,0,0","2","highway","81","probe-125","0.3708297651690842","0.12943385822151626","0.40986715310662614","0","","","","","","","",""
"","html-keyboard-response","261","988348","0.0-140.0-1.0","""event"",""trial"",""time""
""fullscreenenter"",""0"",""8320""
","
","
","""event"",""trial"",""time""
""fullscreenenter"",""0"",""8320""
","
