"success","trial_type","trial_index","time_elapsed","internal_node_id","rt","stimulus","key_press","subject_id","response","choice_outcomes","context_n","context_img_id","trial_n","probe_img_id","pR_red","pR_white","pR_black","outcome","is_valid","image_to_show","probed_trial","probed_context","correct","context_id"
"true","fullscreen","0","2612","0.0-0.0","","","","","","","","","","","","","","","","","","","",""
"","pavlovia","1","2618","0.0-1.0","","","","","","","","","","","","","","","","","","","",""
"","html-keyboard-response","2","10899","0.0-2.0","8278.89999999106","<div class='center'><p>Welcome! This experiment will last ~1 hour. In this experiment, you are the head captain of a pirate ship traveling around the world to different places. You will complete several different tasks during this experiment. Here is an overview of these tasks:</p><br><p>1. Tutorial and quiz</p><p>2. Pick a pirate game in 6 different places</p><p>3. Pick a pirate game and memory game</p><p>4. Final questions and payment</p><br><p>If you complete the entire experiment, you will receive $15 and a possible bonus payment.</p><p><b>[Press the space bar to begin the tutorial]</b></p></div>","32","60fcf49be5dd0924d4eba91d","","","","","","","","","","","","","","","",""
"","html-keyboard-response","3","14412","0.0-3.0","3510.7999999970198","<div class='center'><p>You are the head captain of a pirate ship.</p><p> Your pirates rob other ships as they leave the marketplace port.</p> These ships have just sold all their goods at the marketplace, so they have lots and lots of gold on them.</p><p><img src='run_exp/static/images/ship_center.png' height='400'></p><p><b>[Press the space bar to continue]</b></p></div>","32","","","","","","","","","","","","","","","","",""
"","html-keyboard-response","4","24459","0.0-4.0","10045.29999999702","<div class='center'><p>As the head captain, you do not have to rob any ships yourself.</p><p>You get to choose which pirate you want to rob the next ship. </p><p>If they are successful at robbing the ship, then you will get gold coins.</p><p> If they are not successful, then you will get no gold coins.</p><p> The more coins you collect, the more bonus money you will win. So, choose your pirate wisely.</p><p><img src='run_exp/static/images/goal.png' height='400'></p><p><b>[Press the space bar to continue]</b></p><div>","32","","","","","","","","","","","","","","","","",""
"","html-keyboard-response","5","33094","0.0-5.0","8633.5","<div class='center'><p>Even the most skilled pirate will not be able to rob EVERY ship.</p><p> Some ships will have very strong defenses against attacks.</p><p> For example, blue beard, here,  is very good at robbing ships.</p><p> You can press the <b>‘1’</b> button on the keyboard to choose him.</p><p> Try choosing him 10 times to see how often he is successful at robbing ships. </p><p><img src='run_exp/static/images/blue.png' height='500'></p></div>","49","","","","","","","","","","","","","","","","",""
"","html-keyboard-response","6","34597","0.0-6.0","null","<br><br><br><br><p><img src='run_exp/static/images/blue_win.png' height='500'></p>","null","","","","","","","","","","","","","","","","",""
"","html-keyboard-response","7","35453","0.0-7.0","855.0999999940395","<br><br><br><br><p><img src='run_exp/static/images/blue.png' height='500'></p>","49","","","","","","","","","","","","","","","","",""
"","html-keyboard-response","8","36959","0.0-8.0","null","<br><br><br><br><p><img src='run_exp/static/images/blue_win.png' height='500'></p>","null","","","","","","","","","","","","","","","","",""
"","html-keyboard-response","9","37252","0.0-9.0","291.09999999403954","<br><br><br><br><p><img src='run_exp/static/images/blue.png' height='500'></p>","49","","","","","","","","","","","","","","","","",""
"","html-keyboard-response","10","38754","0.0-10.0","null","<br><br><br><br><p><img src='run_exp/static/images/blue_win.png' height='500'></p>","null","","","","","","","","","","","","","","","","",""
"","html-keyboard-response","11","39004","0.0-11.0","248.8999999910593","<br><br><br><br><p><img src='run_exp/static/images/blue.png' height='500'></p>","49","","","","","","","","","","","","","","","","",""
"","html-keyboard-response","12","40507","0.0-12.0","null","<br><br><br><br><p><img src='run_exp/static/images/blue_no_win.png' height='500'></p>","null","","","","","","","","","","","","","","","","",""
"","html-keyboard-response","13","41845","0.0-13.0","1337","<br><br><br><br><p><img src='run_exp/static/images/blue.png' height='500'></p>","49","","","","","","","","","","","","","","","","",""
"","html-keyboard-response","14","43350","0.0-14.0","null","<br><br><br><br><p><img src='run_exp/static/images/blue_win.png' height='500'></p>","null","","","","","","","","","","","","","","","","",""
"","html-keyboard-response","15","43836","0.0-15.0","485.09999999403954","<br><br><br><br><p><img src='run_exp/static/images/blue.png' height='500'></p>","49","","","","","","","","","","","","","","","","",""
"","html-keyboard-response","16","45340","0.0-16.0","null","<br><br><br><br><p><img src='run_exp/static/images/blue_win.png' height='500'></p>","null","","","","","","","","","","","","","","","","",""
"","html-keyboard-response","17","45692","0.0-17.0","351.69999998807907","<br><br><br><br><p><img src='run_exp/static/images/blue.png' height='500'></p>","49","","","","","","","","","","","","","","","","",""
"","html-keyboard-response","18","47194","0.0-18.0","null","<br><br><br><br><p><img src='run_exp/static/images/blue_win.png' height='500'></p>","null","","","","","","","","","","","","","","","","",""
"","html-keyboard-response","19","47741","0.0-19.0","546.6000000089407","<br><br><br><br><p><img src='run_exp/static/images/blue.png' height='500'></p>","49","","","","","","","","","","","","","","","","",""
"","html-keyboard-response","20","49247","0.0-20.0","null","<br><br><br><br><p><img src='run_exp/static/images/blue_no_win.png' height='500'></p>","null","","","","","","","","","","","","","","","","",""
"","html-keyboard-response","21","49839","0.0-21.0","591","<br><br><br><br><p><img src='run_exp/static/images/blue.png' height='500'></p>","49","","","","","","","","","","","","","","","","",""
"","html-keyboard-response","22","51340","0.0-22.0","null","<br><br><br><br><p><img src='run_exp/static/images/blue_win.png' height='500'></p>","null","","","","","","","","","","","","","","","","",""
"","html-keyboard-response","23","51691","0.0-23.0","349.5","<br><br><br><br><p><img src='run_exp/static/images/blue.png' height='500'></p>","49","","","","","","","","","","","","","","","","",""
"","html-keyboard-response","24","53192","0.0-24.0","null","<br><br><br><br><p><img src='run_exp/static/images/blue_win.png' height='500'></p>","null","","","","","","","","","","","","","","","","",""
"","html-keyboard-response","25","56169","0.0-25.0","2976.7000000029802","<div class='center'><p> See, he was successful at robbing the ships most of the time but not every time. </p><p><b>[Press the space bar to continue]</b></p></div>","32","","","","","","","","","","","","","","","","",""
"","html-keyboard-response","26","64750","0.0-26.0","8578.90000000596","<div class='center'><p>In the game, you will get to choose which of three pirates you want to rob the next ship. <p>Press the <b>‘1’</b> button on your keyboard to pick the pirate with the red beard.</p><p> Press <b>‘2’</b> to pick the pirate with the white beard.</p><p> Press <b>‘3’</b> to pick the pirate with the black beard.</p><p>Try picking a pirate now!</p><p><img src='run_exp/static/images/all_pirates.png' height='500'></p></div>","49","","","","","","","","","","","","","","","","",""
"","html-keyboard-response","27","66509","0.0-27.0-0.0","1756.3999999910593","<div class='center'><p>This pirate was successful at robbing the ship!</p><p><img src='run_exp/static/images/red_win.png' height='500'></p><p><b>[Press the space bar to continue]</b></p></div>","32","","","","","","","","","","","","","","","","",""
"","html-keyboard-response","28","67552","0.0-27.0-1.0","1041.9000000059605","<div class='center'><p>Now try choosing another</p><p><img src='run_exp/static/images/all_pirates.png' height='500'></p></div>","50","","","","","","","","","","","","","","","","",""
"","html-keyboard-response","29","68487","0.0-28.0-0.0","933.5999999940395","<div class='center'><p>This pirate was not successful at robbing the ship!</p><p><img src='run_exp/static/images/white_no_win.png' height='500'></p><p><b>[Press the space bar to continue]</b></p></div>","32","","","","","","","","","","","","","","","","",""
"","html-keyboard-response","30","73229","0.0-29.0-0.0","4740.899999991059","<div class='center'><p>You’ll stop at these 6 places on your journey.</p><p><img src='run_exp/static/images/all_contexts.png' height='500'></p><p><b>[Press the space bar to continue]</b></p></div>","32","","","","","","","","","","","","","","","","",""
"","html-keyboard-response","31","76537","0.0-29.0-1.0","3307.5","<div class='center'><p>How good a pirate is at robbing ships will depend on the current place.</p><p> Some pirates will have been to the place before, and will have more experience robbing ships there.</p><p>So, they will be more successful at stealing gold and bringing it back to you.</p><p><b>[Press the space bar to continue]</b></p></div>","32","","","","","","","","","","","","","","","","",""
"","html-keyboard-response","32","84453","0.0-29.0-2.0","7914.9000000059605","<div class='center'><p>How successful a pirate is at robbing ships can also change in a place.<p> Ships may hear about the pirates coming and will improve their defenses. This may make it more difficult to rob them.</p><p> Ships may also grow lazy and lower their defenses. This may make it easier to rob them.</p><br><p>Things are always changing on the high seas! So, try your best to pay attention!</p><p><img src='run_exp/static/images/contingency.png' height='500'></p><p><b>[Press the space bar to continue]</b></p></div>","32","","","","","","","","","","","","","","","","",""
"","html-keyboard-response","33","103588","0.0-29.0-3.0","19133.59999999404","<div class='center'><p>Once you choose a pirate to rob a ship, you’ll be shown the ship they are robbing.</p><p>The ship will have a picture of the item they sold at the marketplace.</p><p> Try your best to remember the ship and where you saw the ship.</p><p> You’ll have to remember this for later, and remembering this correctly will help you win more bonus money!</p><p>You can remember the ship by remembering the item they sold at the marketplace</p><p>A helpful strategy is to try to come up with a story of the chosen pirate and ship’s item interacting with the scene.</p><p> For example, a ship might have sold travel mugs and you could imagine red beard walking through the city with a travel mug. </p><p>Or imagine an apple falling from a tree into white beard's hands in the forest.</p><p><img src='run_exp/static/images/example_probe.png' height='500'></p><p><b>[Press the space bar to continue]</b></p></div>","32","","","","","","","","","","","","","","","","",""
"","html-keyboard-response","34","108225","0.0-29.0-4.0","4635","<div class='center'><p>If you don’t make your choice fast enough, you’ll have to wait a few seconds before you can make another one. </p><p>You can’t win more gold. You just have to sit and wait.</p><p><img src='run_exp/static/images/hurry_up.png' height='500'></p><p><b>[Press the space bar to continue]</b></p></div>","32","","","","","","","","","","","","","","","","",""
"","html-keyboard-response","35","122903","0.0-29.0-5.0","14677.40000000596","<div class='center'><p>Again, you have two important things to do: </p><b><p> 1. Pick the pirate who you think will be most successful at robbing the next ship.</p></b><b><p> 2. Remember where a pirate robbed a ship.</p> </b><p>Both are important in determining how much bonus money you’ll win.</p><br><p>Let’s try a practice game. The game will start by showing you the pirates. First pick a pirate using the <b> 1, 2, 3 </b> buttons on your keyboard. When you are shown a ship, try to remember the place you’re in by making up a story.</p><p> You only have 3 seconds to pick a pirate, so please make a choice quickly! If you are too slow, you’ll have to wait a bit during the time out.</p><p> Don’t feel rushed, but please do try to make a choice every time.</p><p>How good a pirate is at robbing a ship will change depending on the place they are in and how good the defenses are of the ship.</p> <p>This is just a practice game, so you’re not playing for money. </p><p>You’ll receive a bag which may or may not contain gold coins.</p><p> In the real game, though, you’ll be able to see whether or not you received the gold coins.</p><p> Good luck, remember press <b>'1'</b> to choose red beard, <b>'2'</b> to choose white beard, and <b>'3'</b> to choose black beard</p><p><b>[Press the space bar to begin the practice game]</b></p></div>","32","","","","","","","","","","","","","","","","",""
"","do_trial_prac","36","128487","0.0-29.0-6.0","1073.7999999970198","","","","50","","","","","","","","","","","","","","",""
"","do_trial_prac","37","134915","0.0-29.0-7.0","1916.2999999970198","","","","51","","","","","","","","","","","","","","",""
"","do_trial_prac","38","140072","0.0-29.0-8.0","644.6000000089407","","","","49","","","","","","","","","","","","","","",""
"","do_trial_prac","39","145850","0.0-29.0-9.0","1266.5","","","","50","","","","","","","","","","","","","","",""
"","do_trial_prac","40","151131","0.0-29.0-10.0","770.0999999940395","","","","51","","","","","","","","","","","","","","",""
"","html-keyboard-response","41","153438","0.0-29.0-11.0","2305.5","<div class='center'><p>Great job on the practice game!</p><p> Now, you will be asked you some true or false questions to make sure you really understand the rules of the game.</p><p> Press <b>'1'</b> on the keyboard for true and press <b>'2'</b> for false.</p><p><b>[Press the space bar to begin the quiz]</b></p></div>","32","","","","","","","","","","","","","","","","",""
"","html-keyboard-response","42","157134","0.0-29.0-12.0","3693.7999999970198","<div class='center'><p>You win bonus money by making choices as fast as possible.</p><p>Press 1 for true and press  2 for false.</p></div>","50","","","","","","","","","","","","","","","","",""
"","html-keyboard-response","43","158035","0.0-30.0-0.0","900.1000000089407","<br><br><br><br><p>That's correct!</p> <p><b>[press the space bar to continue with the quiz]</b></p>","32","","","","","","","","","","","","","","","","",""
"","html-keyboard-response","44","163374","0.0-30.0-1.0","5338.100000008941","<div class='center'><p>You press the <b>‘3’</b> button on the keyboard to choose the red bearded pirate? </p><p>Press 1 for true and press  2 for false.</p></div>","50","","","","","","","","","","","","","","","","",""
"","html-keyboard-response","45","164234","0.0-31.0-0.0","858.7999999970198","<br><br><br><br><p>That's correct!</p> <p><b>[press the space bar to continue with the quiz]</b></p>","32","","","","","","","","","","","","","","","","",""
"","html-keyboard-response","46","169475","0.0-31.0-1.0","5240.0999999940395","<div class='center'><p>A pirate will always be equally successful at robbing ships in each place</p><p>Press 1 for true and press  2 for false.</p></div>","50","","","","","","","","","","","","","","","","",""
"","html-keyboard-response","47","170159","0.0-32.0-0.0","683.0999999940395","<br><br><br><br><p>That's correct!</p> <p><b>[press the space bar to continue with the quiz]</b></p>","32","","","","","","","","","","","","","","","","",""
"","html-keyboard-response","48","171659","0.0-32.0-1.0","1499.2999999970198","<div class='center'><p>You should remember the place where a pirate robbed a ship.</p><p>Press 1 for true and press  2 for false.</p></div>","49","","","","","","","","","","","","","","","","",""
"","html-keyboard-response","49","172107","0.0-33.0-0.0","436.1000000089407","<br><br><br><br><p>That's correct!</p> <p><b>[press the space bar to continue with the quiz]</b></p>","32","","","","","","","","","","","","","","","","",""
"","html-keyboard-response","50","173252","0.0-34.0-0.0","1143.7999999970198","<br><br><br><br><p>Good job! You’re now ready to move on to the real game!</p> <p><br>[press the space bar to begin!]</br></p>","32","","","","","","","","","","","","","","","","",""
"","do_welcome","51","174762","0.0-35.0-0.0","null","","","","null","","","","","","","","","","","","","","",""
"","do_trial","52","181402","0.0-36.0-0.0","1093.9000000059605","","","","50","1,1,0","0","city","0","probe-109","1","0.4","0.1","1","","","","","",""
"","do_trial","53","187780","0.0-37.0-0.0","833.5","","","","51","1,1,0","0","city","1","probe-115","1","0.43776229593614446","0.09534405288689145","0","","","","","",""
"","do_trial","54","193951","0.0-38.0-0.0","620.4000000059605","","","","49","1,1,1","0","city","2","probe-101","1","0.418242202593171","0.11222266769902083","1","","","","","",""
"","do_trial","55","200769","0.0-39.0-0.0","1273.199999988079","","","","50","1,1,0","0","city","3","probe-19","1","0.3387153650436738","0.2023752930136267","1","","","","","",""
"","do_trial","56","207280","0.0-40.0-0.0","961.7999999970198","","","","50","1,1,0","0","city","4","probe-50","0.819872599349999","0.3604606104418233","0.0571786769067166","1","","","","","",""
"","do_trial","57","213390","0.0-41.0-0.0","566.0999999940395","","","","50","1,0,0","0","city","5","probe-71","0.6949047659142975","0.27679601194898773","0.06272114230278135","0","","","","","",""
"","do_trial","58","219717","0.0-42.0-0.0","777.5","","","","51","1,0,0","0","city","6","probe-61","0.708719911706632","0.38386678765046683","0.1513116782367178","0","","","","","",""
"","do_trial","59","225653","0.0-43.0-0.0","388.59999999403954","","","","49","1,0,0","0","city","7","probe-188","0.6485590379630075","0.24938007109218988","0.12897050184346176","1","","","","","",""
"","do_trial","60","231848","0.0-44.0-0.0","646.7000000029802","","","","49","1,0,0","0","city","8","probe-37","0.6190061356979643","0.33222455652939376","0.10530679571164642","1","","","","","",""
"","do_trial","61","237752","0.0-45.0-0.0","359.80000001192093","","","","49","1,1,1","0","city","9","probe-68","0.7939634048735286","0.4619774639606752","0.08696274453548464","1","","","","","",""
"","do_trial","62","245243","0.0-46.0-0.0","1943.3999999910593","","","","50","0,0,0","0","city","10","probe-60","0.5201919638866422","0.21637267157509266","0.33207187962757545","0","","","","","",""
"","do_trial","63","251862","0.0-47.0-0.0","1071","","","","49","0,0,1","0","city","11","probe-145","0.45606015494614527","0.09256465263935992","0.6207499710971582","0","","","","","",""
"","do_trial","64","258015","0.0-48.0-0.0","606.2000000029802","","","","51","0,0,1","0","city","12","probe-82","0.31463996518929166","0.17683653645162384","0.5996366555473437","1","","","","","",""
"","do_trial","65","263999","0.0-49.0-0.0","439.6000000089407","","","","51","1,0,1","0","city","13","probe-132","0.21686944004138517","0.15669211760063326","0.6445433807739107","1","","","","","",""
"","do_trial","66","270492","0.0-50.0-0.0","946.7999999970198","","","","51","0,0,1","0","city","14","probe-223","0.31710927207919676","0.17075121659899242","0.5911707174753091","1","","","","","",""
"","do_trial","67","276464","0.0-51.0-0.0","428.40000000596046","","","","51","0,0,0","0","city","15","probe-130","0.27223628698119046","0.05806115949196263","0.5588559704201449","0","","","","","",""
"","do_trial","68","282486","0.0-52.0-0.0","472.8999999910593","","","","50","1,0,1","0","city","16","probe-155","0.2853368505281625","0.10119830538961906","0.6088388939853601","0","","","","","",""
"","do_trial","69","288470","0.0-53.0-0.0","435.69999998807907","","","","49","0,1,1","0","city","17","probe-07","0.33790483011811134","0.18873685992938158","0.7237702758191121","0","","","","","",""
"","do_trial","70","294404","0.0-54.0-0.0","388.20000000298023","","","","51","0,0,1","0","city","18","probe-86","0.42637541695800624","0.2330486507859154","0.6817811419275048","1","","","","","",""
"","do_trial","71","301096","0.0-55.0-0.0","1147.4000000059605","","","","51","1,0,1","0","city","19","probe-95","0.43007697784440396","0.1902474582225744","0.6968770184925087","1","","","","","",""
"","do_trial","72","307122","0.0-56.0-0.0","477.70000000298023","","","","51","0,0,1","0","city","20","probe-144","0.5554164371626586","0.1599678824178358","0.7302322966822695","1","","","","","",""
"","do_trial","73","313001","0.0-57.0-0.0","335.59999999403954","","","","51","0,0,0","0","city","21","probe-105","0.452387102159751","0.12884472646777442","0.7889139277331307","0","","","","","",""
"","do_trial","74","318984","0.0-58.0-0.0","437.6000000089407","","","","51","0,0,0","0","city","22","probe-172","0.42787652949802785","0.1637364462817452","0.7466250821773689","0","","","","","",""
"","do_trial","75","325176","0.0-59.0-0.0","642.7000000029802","","","","50","1,0,1","0","city","23","probe-183","0.405647211942189","0.08816337663814162","0.7285334769461107","0","","","","","",""
"","do_trial","76","331159","0.0-60.0-0.0","435","","","","50","0,0,1","0","city","24","probe-162","0.2756524570116852","0.06612397268232081","0.8920541572317515","0","","","","","",""
"","do_trial","77","336984","0.0-61.0-0.0","280.59999999403954","","","","49","0,0,1","0","city","25","probe-240","0.13261628554341318","0.10179455208633964","0.8733573470465319","0","","","","","",""
"","do_trial","78","342887","0.0-62.0-0.0","356.20000000298023","","","","49","0,0,1","0","city","26","probe-35","0.23462853526236135","0.13172691485893934","0.8143839876574711","0","","","","","",""
"","do_trial","79","348799","0.0-63.0-0.0","368.40000000596046","","","","51","0,0,1","0","city","27","probe-237","0.3108729265053344","0.1978485869464146","0.7212683339647146","1","","","","","",""
"","do_trial","80","354739","0.0-64.0-0.0","393.70000000298023","","","","51","0,0,1","0","city","28","probe-06","0.2699185626385772","0.11412242072677099","0.6632889347973352","1","","","","","",""
"","do_trial","81","360623","0.0-65.0-0.0","339.5","","","","51","1,0,1","0","city","29","probe-234","0.2718596878449044","0.05540059982122475","0.7407302934539147","1","","","","","",""
"","do_trial","82","367401","0.0-66.0-0.0","1230.3999999910593","","","","51","1,0,1","0","city","30","probe-96","0.3731003050163186","0.16850840461642988","0.8396679567254431","1","","","","","",""
"","do_trial","83","373495","0.0-67.0-0.0","546.8999999910593","","","","51","0,0,1","0","city","31","probe-143","0.2864487003138189","0.07254396564502617","0.7223146902203291","1","","","","","",""
"","do_trial","84","379368","0.0-68.0-0.0","326.3999999910593","","","","51","0,0,1","0","city","32","probe-181","0.18970495103938","0.134441503503588","0.6884730798607254","1","","","","","",""
"","do_trial","85","385660","0.0-69.0-0.0","744.3999999910593","","","","51","0,0,1","0","city","33","probe-190","0.31879497804576834","0.15047177403789314","0.7934977220710658","1","","","","","",""
"","do_trial","86","391793","0.0-70.0-0.0","583.1000000089407","","","","51","1,0,1","0","city","34","probe-20","0.286494973429813","0.17090961194076415","0.8180795089665456","1","","","","","",""
"","do_trial","87","397616","0.0-71.0-0.0","277.59999999403954","","","","51","0,1,1","0","city","35","probe-29","0.2576008533185051","0.08669658351645158","0.7390935818846681","1","","","","","",""
"","do_trial","88","403647","0.0-72.0-0.0","485.59999999403954","","","","51","1,0,1","0","city","36","probe-148","0.2619595334044213","0.1319756142150966","0.6668610132171588","1","","","","","",""
"","do_trial","89","409674","0.0-73.0-0.0","478.30000001192093","","","","51","0,0,1","0","city","37","probe-01","0.39445797462744864","0.12934948861090528","0.7553360063293234","1","","","","","",""
"","do_trial","90","415536","0.0-74.0-0.0","314","","","","51","1,0,1","0","city","38","probe-197","0.41344887199279423","0.2008765204326526","0.8298322115748566","1","","","","","",""
"","do_trial","91","421374","0.0-75.0-0.0","290.79999999701977","","","","51","0,0,1","0","city","39","probe-94","0.4878627581650072","0.15524917980561997","0.8407262373042121","1","","","","","",""
"","do_bye","92","422885","0.0-76.0-0.0","null","","","","null","","","","","","","","","","","","","","",""
"","do_travel","93","428890","0.0-77.0-0.0","null","","","","null","","","","","","","","","","","","","","",""
"","do_welcome","94","430397","0.0-77.0-1.0","null","","","","null","","","","","","","","","","","","","","",""
"","do_trial","95","436786","0.0-78.0-0.0","844","","","","49","0,0,1","1","countryside","40","probe-97","0.45664998062054735","0.2860570352279067","1","0","","","","","",""
"","do_trial","96","442602","0.0-79.0-0.0","266.5","","","","50","0,0,1","1","countryside","41","probe-225","0.4208524411272617","0.2970539275194157","1","0","","","","","",""
"","do_trial","97","448475","0.0-80.0-0.0","327.40000000596046","","","","51","1,0,1","1","countryside","42","probe-180","0.46724036012576164","0.1729326880560767","1","1","","","","","",""
"","do_trial","98","454448","0.0-81.0-0.0","425.29999999701977","","","","51","1,1,1","1","countryside","43","probe-213","0.3944736264368505","0.28555016267182504","1","1","","","","","",""
"","do_trial","99","460333","0.0-82.0-0.0","336.3999999910593","","","","51","0,0,1","1","countryside","44","probe-171","0.3936898490949299","0.19537843000373858","0.8982963954729043","1","","","","","",""
"","do_trial","100","466254","0.0-83.0-0.0","372.20000000298023","","","","51","1,0,1","1","countryside","45","probe-216","0.46676906372874727","0.137304133092827","0.9093483365597079","1","","","","","",""
"","do_trial","101","472232","0.0-84.0-0.0","429","","","","51","0,0,1","1","countryside","46","probe-75","0.5598251263902626","0.07539456573657069","0.8858804315499785","1","","","","","",""
"","do_trial","102","478158","0.0-85.0-0.0","379.70000000298023","","","","51","1,0,1","1","countryside","47","probe-195","0.5289346655911501","0.1169651118303786","0.8321850468621054","1","","","","","",""
"","do_trial","103","484068","0.0-86.0-0.0","362.5","","","","51","1,0,1","1","countryside","48","probe-12","0.4816245376843075","0.11271787440152219","0.7654280388851307","1","","","","","",""
"","do_trial","104","489918","0.0-87.0-0.0","300.59999999403954","","","","51","0,0,1","1","countryside","49","probe-90","0.3815369447298322","0.056756106203147375","0.848257624881713","1","","","","","",""
"","do_trial","105","495769","0.0-88.0-0.0","304.40000000596046","","","","51","1,0,1","1","countryside","50","probe-167","0.3021399633835384","0.4318240771875545","0.6249070308717385","1","","","","","",""
"","do_trial","106","501676","0.0-89.0-0.0","362.59999999403954","","","","51","1,1,1","1","countryside","51","probe-173","0.1879936947473352","0.5143143461637153","0.574202800638728","1","","","","","",""
"","do_trial","107","507579","0.0-90.0-0.0","355.20000000298023","","","","51","0,0,0","1","countryside","52","probe-48","0.07975094904777286","0.4482531930015614","0.4495275249636892","0","","","","","",""
"","do_trial","108","513998","0.0-91.0-0.0","874.3999999910593","","","","50","1,0,1","1","countryside","53","probe-54","0.08244425073326143","0.5656091516948708","0.4847759993106157","0","","","","","",""
"","do_trial","109","520239","0.0-92.0-0.0","695.7999999970198","","","","49","0,0,1","1","countryside","54","probe-43","0.10335866186854381","0.605848465784459","0.4242615593565134","0","","","","","",""
"","do_trial","110","526084","0.0-93.0-0.0","297","","","","51","0,0,1","1","countryside","55","probe-210","0.09810541198026596","0.7925231845270075","0.5398348642313229","1","","","","","",""
"","do_trial","111","531960","0.0-94.0-0.0","329.1000000089407","","","","51","0,0,0","1","countryside","56","probe-163","0.08074305996418624","0.7113203926284113","0.5910141224777297","0","","","","","",""
"","do_trial","112","537801","0.0-95.0-0.0","294.79999999701977","","","","51","0,1,1","1","countryside","57","probe-76","0.23591750394153407","0.6656742641504597","0.4476324790457211","1","","","","","",""
"","do_trial","113","543708","0.0-96.0-0.0","360.90000000596046","","","","51","0,1,1","1","countryside","58","probe-137","0.10621479449366313","0.6569445706256934","0.3733775676703842","1","","","","","",""
"","do_trial","114","550090","0.0-97.0-0.0","834.1000000089407","","","","51","0,0,0","1","countryside","59","probe-62","0.08566097978722527","0.6939787332029191","0.3719057516381752","0","","","","","",""
"","do_trial","115","555906","0.0-98.0-0.0","272.29999999701977","","","","51","0,0,1","1","countryside","60","probe-13","0.10530556982777647","0.6282087591467856","0.437106485236933","1","","","","","",""
"","do_trial","116","561787","0.0-99.0-0.0","332.69999998807907","","","","51","0,0,0","1","countryside","61","probe-36","0.0828226250742999","0.7760723636203105","0.5045648668816376","0","","","","","",""
"","do_trial","117","567563","0.0-100.0-0.0","227.1000000089407","","","","51","0,0,0","1","countryside","62","probe-65","0.11207088917296931","0.8005265889971811","0.4623250202657996","0","","","","","",""
"","do_trial","118","573382","0.0-101.0-0.0","273.90000000596046","","","","50","0,1,1","1","countryside","63","probe-22","0.07322530128097857","0.8207025402947794","0.5249313604650514","1","","","","","",""
"","do_trial","119","579188","0.0-102.0-0.0","257.5","","","","50","0,0,0","1","countryside","64","probe-150","0.08201498665766233","0.7447534729154234","0.41552604375958035","0","","","","","",""
"","do_trial","120","585012","0.0-103.0-0.0","278.79999999701977","","","","50","0,1,1","1","countryside","65","probe-123","0.14142834225468817","0.7568003786280055","0.39933298070133405","1","","","","","",""
"","do_trial","121","590834","0.0-104.0-0.0","274.59999999403954","","","","50","0,1,1","1","countryside","66","probe-67","0.06889416640875083","0.8257306887002198","0.3896378386783199","1","","","","","",""
"","do_trial","122","596676","0.0-105.0-0.0","295.8999999910593","","","","50","0,1,0","1","countryside","67","probe-222","0.11376252531641118","0.8102156450642611","0.3293287060466609","1","","","","","",""
"","do_trial","123","602627","0.0-106.0-0.0","403.1000000089407","","","","50","0,1,0","1","countryside","68","probe-179","0.05482197404659304","0.7174011558606005","0.33141633833285555","1","","","","","",""
"","do_trial","124","608614","0.0-107.0-0.0","443.20000000298023","","","","50","0,0,0","1","countryside","69","probe-200","0.2020349499903419","0.7605639869751317","0.3536008389227289","0","","","","","",""
"","do_trial","125","614565","0.0-108.0-0.0","401.20000000298023","","","","50","0,1,0","1","countryside","70","probe-166","0.17649214221988893","0.7513852207665503","0.4196259297734033","1","","","","","",""
"","do_trial","126","620502","0.0-109.0-0.0","389.20000000298023","","","","50","0,1,0","1","countryside","71","probe-81","0.28738415787066446","0.7545092744763808","0.3332612162811227","1","","","","","",""
"","do_trial","127","626523","0.0-110.0-0.0","475.29999999701977","","","","50","0,1,1","1","countryside","72","probe-58","0.2737886635073919","0.7148897161302091","0.31916492103502875","1","","","","","",""
"","do_trial","128","632385","0.0-111.0-0.0","317.5","","","","50","0,1,0","1","countryside","73","probe-193","0.09400459684138708","0.5365940881271196","0.2283339338650302","1","","","","","",""
"","do_trial","129","638500","0.0-112.0-0.0","569.5999999940395","","","","50","0,1,0","1","countryside","74","probe-217","0.05687849391157109","0.6831817439179851","0.2404039191029013","1","","","","","",""
"","do_trial","130","644503","0.0-113.0-0.0","458.79999999701977","","","","50","0,1,0","1","countryside","75","probe-125","0.059191799314170644","0.7628851018025583","0.1382984153536569","1","","","","","",""
"","do_trial","131","650341","0.0-114.0-0.0","290.29999999701977","","","","50","0,1,0","1","countryside","76","probe-56","0.054620638569605716","0.7547560656700789","0.18060869439746982","1","","","","","",""
"","do_trial","132","656304","0.0-115.0-0.0","417.70000000298023","","","","50","0,1,0","1","countryside","77","probe-164","0.18097124142110702","0.8250074146702457","0.2217905212660238","1","","","","","",""
"","do_trial","133","664191","0.0-116.0-0.0","2338.2000000029802","","","","50","1,0,1","1","countryside","78","probe-170","0.27224328889610766","0.6004733299232629","0.2908889890808278","0","","","","","",""
"","do_trial","134","670207","0.0-117.0-0.0","468.09999999403954","","","","50","0,0,0","1","countryside","79","probe-92","0.30138104100765883","0.7396169463326965","0.41481980943269636","0","","","","","",""
"","do_bye","135","671715","0.0-118.0-0.0","null","","","","null","","","","","","","","","","","","","","",""
"","do_travel","136","677719","0.0-119.0-0.0","null","","","","null","","","","","","","","","","","","","","",""
"","do_welcome","137","679228","0.0-119.0-1.0","null","","","","null","","","","","","","","","","","","","","",""
"","do_trial","138","686277","0.0-120.0-0.0","1500.0999999940395","","","","51","0,1,1","2","forest","80","probe-140","0.21937540006138384","1","0.5554739521973303","1","","","","","",""
"","do_trial","139","692120","0.0-121.0-0.0","294.30000001192093","","","","51","1,1,1","2","forest","81","probe-168","0.27745820694239304","1","0.5184339315924673","1","","","","","",""
"","do_trial","140","697995","0.0-122.0-0.0","326.40000000596046","","","","51","0,1,1","2","forest","82","probe-177","0.14873113624694795","1","0.4037407794336984","1","","","","","",""
"","do_trial","141","703869","0.0-123.0-0.0","330","","","","51","0,1,1","2","forest","83","probe-194","0.11689514852216756","1","0.48230119672907384","1","","","","","",""
"","do_trial","142","709793","0.0-124.0-0.0","379.09999999403954","","","","51","0,1,1","2","forest","84","probe-178","0.3382016799016476","0.9282145423813873","0.4232936578175358","1","","","","","",""
"","do_trial","143","715936","0.0-125.0-0.0","598.5","","","","51","0,1,1","2","forest","85","probe-238","0.2107385480157647","0.9019647710357053","0.40399697803955903","1","","","","","",""
"","do_trial","144","721794","0.0-126.0-0.0","313.59999999403954","","","","51","0,1,0","2","forest","86","probe-84","0.07768926373514749","0.785478850068175","0.4263768475236568","0","","","","","",""
"","do_trial","145","727567","0.0-127.0-0.0","227.6000000089407","","","","51","0,1,0","2","forest","87","probe-45","0.13720523897402287","0.8328195984982889","0.41925031990766004","0","","","","","",""
"","do_trial","146","733445","0.0-128.0-0.0","328.29999999701977","","","","50","0,1,1","2","forest","88","probe-108","0.26704227679733167","0.8148747377305714","0.3975169798632339","1","","","","","",""
"","do_trial","147","739328","0.0-129.0-0.0","335.79999999701977","","","","50","0,0,0","2","forest","89","probe-128","0.07565096858655956","0.6481542310407418","0.3519181493609569","0","","","","","",""
"","do_trial","148","745189","0.0-130.0-0.0","311.70000000298023","","","","50","0,0,0","2","forest","90","probe-34","0.0846025491725632","0.44873795798685623","0.48735991878006313","0","","","","","",""
"","do_trial","149","751524","0.0-131.0-0.0","790.6000000089407","","","","50","0,0,1","2","forest","91","probe-98","0.1509021705970883","0.4617162811685897","0.6606982031449593","0","","","","","",""
"","do_trial","150","757339","0.0-132.0-0.0","265.90000000596046","","","","49","0,0,1","2","forest","92","probe-87","0.05761672897371135","0.4237382824139471","0.6888430908738897","0","","","","","",""
"","do_trial","151","763066","0.0-133.0-0.0","178.20000000298023","","","","49","0,1,1","2","forest","93","probe-100","0.08893872622757515","0.47203406392913383","0.7671730161479241","0","","","","","",""
"","do_trial","152","768973","0.0-134.0-0.0","358.5","","","","51","0,1,1","2","forest","94","probe-224","0.09431569905537691","0.42138453032648315","0.7999319991856134","1","","","","","",""
"","do_trial","153","774804","0.0-135.0-0.0","281.09999999403954","","","","51","0,1,1","2","forest","95","probe-214","0.19055083187094812","0.3432131300726985","0.8399802708983768","1","","","","","",""
"","do_trial","154","780579","0.0-136.0-0.0","227.5","","","","51","0,0,1","2","forest","96","probe-93","0.2586564984037686","0.3472771647026692","0.7672356360232133","1","","","","","",""
"","do_trial","155","786196","0.0-137.0-0.0","72.8999999910593","","","","51","1,0,0","2","forest","97","probe-182","0.25970941656243146","0.42948498801501717","0.704205212708308","0","","","","","",""
"","do_trial","156","792194","0.0-138.0-0.0","449.59999999403954","","","","51","1,1,1","2","forest","98","probe-199","0.22946350433796042","0.5337951844081288","0.7499240135916067","1","","","","","",""
"","do_trial","157","799815","0.0-139.0-0.0","2075.6000000089407","","","","51","1,1,1","2","forest","99","probe-79","0.26143825000700516","0.521802607215292","0.832502002033891","1","","","","","",""
"","do_trial","158","805918","0.0-140.0-0.0","555.4000000059605","","","","51","0,1,1","2","forest","100","probe-202","0.19861229272657266","0.47273575504361837","0.7341161396700219","1","","","","","",""
"","do_trial","159","811840","0.0-141.0-0.0","378.5","","","","51","0,0,0","2","forest","101","probe-134","0.13461693308091602","0.4411177217913367","0.6979180278001498","0","","","","","",""
"","do_trial","160","817880","0.0-142.0-0.0","490","","","","51","0,0,1","2","forest","102","probe-129","0.08445119573637502","0.43642724378744","0.7375462599493166","1","","","","","",""
"","do_trial","161","825114","0.0-143.0-0.0","1689.0999999940395","","","","51","0,1,1","2","forest","103","probe-64","0.15015690044975613","0.5809675182840742","0.6777538770986328","1","","","","","",""
"","do_trial","162","830973","0.0-144.0-0.0","312.79999999701977","","","","51","0,1,0","2","forest","104","probe-25","0.16545568840950461","0.5444518335997021","0.7094361751695588","0","","","","","",""
"","do_trial","163","837486","0.0-145.0-0.0","966","","","","51","1,1,1","2","forest","105","probe-239","0.12359363132139202","0.5038703140799263","0.7303275097015243","1","","","","","",""
"","do_trial","164","845894","0.0-146.0-0.0","2858.0999999940395","","","","51","0,0,1","2","forest","106","probe-107","0.11701976440883506","0.29988447623152786","0.797673529231468","1","","","","","",""
"","do_trial","165","851685","0.0-147.0-0.0","242","","","","51","0,0,1","2","forest","107","probe-205","0.09970803026663047","0.4192604192108288","0.8049143790371103","1","","","","","",""
"","do_trial","166","857951","0.0-148.0-0.0","719.5","","","","51","0,1,1","2","forest","108","probe-104","0.05850692872302154","0.2908738455266299","0.7161964797439674","1","","","","","",""
"","do_trial","167","863823","0.0-149.0-0.0","327.09999999403954","","","","51","0,0,1","2","forest","109","probe-191","0.1405460987613051","0.4434196871019725","0.7658492881888742","1","","","","","",""
"","do_trial","168","869726","0.0-150.0-0.0","354.29999999701977","","","","51","0,1,1","2","forest","110","probe-49","0.26592713972690685","0.2988113067917654","0.8176253720403034","1","","","","","",""
"","do_trial","169","875624","0.0-151.0-0.0","352.29999999701977","","","","51","0,1,0","2","forest","111","probe-231","0.18724129919657637","0.3121037996127059","0.8705107579785607","0","","","","","",""
"","do_trial","170","882560","0.0-152.0-0.0","1382.6000000089407","","","","51","0,0,1","2","forest","112","probe-215","0.13442998511156184","0.5341267164591069","0.8657913153994248","1","","","","","",""
"","do_trial","171","890692","0.0-153.0-0.0","2571.2999999970198","","","","51","1,0,0","2","forest","113","probe-174","0.1735730094367237","0.36808611562082855","0.7329242389591925","0","","","","","",""
"","do_trial","172","898686","0.0-154.0-0.0","2438.9000000059605","","","","51","0,0,1","2","forest","114","probe-228","0.16932953372439322","0.3795866176058291","0.6893504711828269","1","","","","","",""
"","do_trial","173","904838","0.0-155.0-0.0","599.2000000029802","","","","51","0,1,1","2","forest","115","probe-206","0.12582564796735668","0.2577099737803413","0.694725696153257","1","","","","","",""
"","do_trial","174","911054","0.0-156.0-0.0","669.8999999910593","","","","51","0,1,1","2","forest","116","probe-83","0.10463348980623051","0.4370423133671567","0.7515962045355066","1","","","","","",""
"","do_trial","175","917194","0.0-157.0-0.0","593.2999999970198","","","","51","0,0,1","2","forest","117","probe-229","0.20552502698065794","0.31407284223124676","0.7696009263090342","1","","","","","",""
"","do_trial","176","923252","0.0-158.0-0.0","510.19999998807907","","","","51","0,0,0","2","forest","118","probe-230","0.11593839268551652","0.2524165648257907","0.8237551436466474","0","","","","","",""
"","do_trial","177","929078","0.0-159.0-0.0","278.1000000089407","","","","51","0,0,1","2","forest","119","probe-208","0.18478401530277352","0.4400461078080926","0.9005774285306919","1","","","","","",""
"","do_bye","178","930588","0.0-160.0-0.0","null","","","","null","","","","","","","","","","","","","","",""
"","do_travel","179","936594","0.0-161.0-0.0","null","","","","null","","","","","","","","","","","","","","",""
"","do_welcome","180","938105","0.0-161.0-1.0","null","","","","null","","","","","","","","","","","","","","",""
"","do_trial","181","945401","0.0-162.0-0.0","1749.3999999910593","","","","51","0,0,1","3","mountain","120","probe-78","0.12703827959526373","0.46753673650680055","1","1","","","","","",""
"","do_trial","182","951829","0.0-163.0-0.0","878.3999999910593","","","","51","0,0,1","3","mountain","121","probe-32","0.16966874642936539","0.5080322699434191","1","1","","","","","",""
"","do_trial","183","958299","0.0-164.0-0.0","922.0999999940395","","","","51","0,0,1","3","mountain","122","probe-08","0.09124410372865478","0.3186626813377114","1","1","","","","","",""
"","do_trial","184","965070","0.0-165.0-0.0","1230","","","","51","0,0,1","3","mountain","123","probe-207","0.12043287095447747","0.3622037312528761","1","1","","","","","",""
"","do_trial","185","971313","0.0-166.0-0.0","698.2000000029802","","","","51","0,0,1","3","mountain","124","probe-226","0.19908677586556253","0.24251087836175242","0.9016642615308692","1","","","","","",""
"","do_trial","186","977230","0.0-167.0-0.0","371.09999999403954","","","","51","0,1,1","3","mountain","125","probe-21","0.2946059397655452","0.29128606636239734","0.8018013309772455","1","","","","","",""
"","do_trial","187","983243","0.0-168.0-0.0","465.09999999403954","","","","51","0,0,1","3","mountain","126","probe-38","0.3858550204003703","0.39105861832799016","0.7720775316182231","1","","","","","",""
"","do_trial","188","989508","0.0-169.0-0.0","717.5","","","","51","0,1,1","3","mountain","127","probe-159","0.24202565929755296","0.5029776283413755","0.7955230134647348","1","","","","","",""
"","do_trial","189","995499","0.0-170.0-0.0","442.59999999403954","","","","51","1,0,1","3","mountain","128","probe-11","0.16648209755413004","0.5832821537195725","0.7862118415866043","1","","","","","",""
"","do_trial","190","1002314","0.0-171.0-0.0","1265.7000000029802","","","","51","0,1,1","3","mountain","129","probe-91","0.12354914204891698","0.5047288181414294","0.8852093424428376","1","","","","","",""
"","do_trial","191","1008973","0.0-172.0-0.0","1110.2000000029802","","","","51","0,0,0","3","mountain","130","probe-04","0.18615005817828806","0.6408200648467403","0.5790047231715799","0","","","","","",""
"","do_trial","192","1014911","0.0-173.0-0.0","389.20000000298023","","","","51","1,0,0","3","mountain","131","probe-142","0.2504219565231129","0.6090816848279966","0.28886413949958945","0","","","","","",""
"","do_trial","193","1020827","0.0-174.0-0.0","367.5","","","","50","0,0,0","3","mountain","132","probe-221","0.2498152243228394","0.643799661487735","0.1161065377961185","0","","","","","",""
"","do_trial","194","1026682","0.0-175.0-0.0","308.09999999403954","","","","49","1,1,0","3","mountain","133","probe-111","0.24227693809222847","0.7524213836509679","0.1532067262880244","1","","","","","",""
"","do_trial","195","1032663","0.0-176.0-0.0","435.70000000298023","","","","49","0,0,0","3","mountain","134","probe-218","0.4670165052198367","0.7543123303626784","0.17562194167843106","0","","","","","",""
"","do_trial","196","1038532","0.0-177.0-0.0","318.5","","","","49","1,1,0","3","mountain","135","probe-157","0.3775613997569402","0.8331142102621351","0.0676627042036807","1","","","","","",""
"","do_trial","197","1044452","0.0-178.0-0.0","372.69999998807907","","","","49","0,0,0","3","mountain","136","probe-69","0.3194660320422934","0.8617872160943775","0.12786457346069954","0","","","","","",""
"","do_trial","198","1050550","0.0-179.0-0.0","551.6999999880791","","","","51","0,0,0","3","mountain","137","probe-138","0.3934526185432155","0.8349660141431164","0.13313146576732796","0","","","","","",""
"","do_trial","199","1056412","0.0-180.0-0.0","313.59999999403954","","","","51","1,1,0","3","mountain","138","probe-151","0.3132279215209803","0.9006307898888135","0.08288379635146534","0","","","","","",""
"","do_trial","200","1062347","0.0-181.0-0.0","388.59999999403954","","","","49","0,1,0","3","mountain","139","probe-212","0.24761254863057638","0.8785646146802476","0.13435300669306358","0","","","","","",""
"","do_trial","201","1068254","0.0-182.0-0.0","361.8999999910593","","","","50","1,0,1","3","mountain","140","probe-66","0.24875011422725438","0.7236206095271339","0.224418667353345","0","","","","","",""
"","do_trial","202","1074124","0.0-183.0-0.0","321.5","","","","49","0,1,1","3","mountain","141","probe-196","0.3412777441718828","0.6833552994727546","0.2769042963725501","0","","","","","",""
"","do_trial","203","1079931","0.0-184.0-0.0","261.5","","","","49","0,0,0","3","mountain","142","probe-70","0.2567031725669339","0.6691727816871667","0.21318365559645108","0","","","","","",""
"","do_trial","204","1085792","0.0-185.0-0.0","317","","","","49","1,1,1","3","mountain","143","probe-154","0.37050976263555024","0.7569349429879324","0.12366564575652486","1","","","","","",""
"","do_trial","205","1091581","0.0-186.0-0.0","245.80000001192093","","","","49","1,1,1","3","mountain","144","probe-147","0.5136199268065136","0.8100925186060305","0.2231065204319907","1","","","","","",""
"","do_trial","206","1097459","0.0-187.0-0.0","331.59999999403954","","","","49","0,0,0","3","mountain","145","probe-57","0.40961612345586706","0.7950965429042741","0.05311004677838549","0","","","","","",""
"","do_trial","207","1103540","0.0-188.0-0.0","531.2999999970198","","","","49","0,1,0","3","mountain","146","probe-169","0.4500689726645431","0.7174908394898075","0.26164792238281537","0","","","","","",""
"","do_trial","208","1109498","0.0-189.0-0.0","413.20000000298023","","","","49","1,0,1","3","mountain","147","probe-227","0.3920666927836827","0.7860839072823421","0.2732218455239097","1","","","","","",""
"","do_trial","209","1115525","0.0-190.0-0.0","479","","","","49","1,0,0","3","mountain","148","probe-141","0.43459157698651657","0.7426933125942489","0.0582145121225439","1","","","","","",""
"","do_trial","210","1121660","0.0-191.0-0.0","590.7000000029802","","","","49","0,1,0","3","mountain","149","probe-119","0.4172951567757028","0.8003935012931576","0.10859060106830519","0","","","","","",""
"","do_trial","211","1128033","0.0-192.0-0.0","828.7999999970198","","","","49","0,1,0","3","mountain","150","probe-103","0.17597345323429475","0.7585202034188682","0.21403188789851552","0","","","","","",""
"","do_trial","212","1134315","0.0-193.0-0.0","738.0999999940395","","","","51","0,0,1","3","mountain","151","probe-59","0.33255972012644885","0.7294405055206431","0.347687513834436","1","","","","","",""
"","do_trial","213","1140448","0.0-194.0-0.0","586.6000000089407","","","","51","0,1,0","3","mountain","152","probe-114","0.33908787937020374","0.656876325159286","0.08568084685506783","0","","","","","",""
"","do_trial","214","1147426","0.0-195.0-0.0","1428.0999999940395","","","","51","0,1,0","3","mountain","153","probe-88","0.2905712818195176","0.768760996328859","0.08759517295247182","0","","","","","",""
"","do_trial","215","1154350","0.0-196.0-0.0","1380.2000000029802","","","","49","0,1,0","3","mountain","154","probe-24","0.2013756205669148","0.7442427447200681","0.0657502588659591","0","","","","","",""
"","do_trial","216","1160495","0.0-197.0-0.0","596.2000000029802","","","","51","0,0,0","3","mountain","155","probe-235","0.31792923834559267","0.7791774620234775","0.18992076098666189","0","","","","","",""
"","do_trial","217","1166872","0.0-198.0-0.0","830.5999999940395","","","","50","0,1,0","3","mountain","156","probe-18","0.4400587976735256","0.7788617211743689","0.4636002275676726","1","","","","","",""
"","do_trial","218","1173940","0.0-199.0-0.0","1515.1000000089407","","","","50","1,1,0","3","mountain","157","probe-187","0.488997619425077","0.7680806408097925","0.3117284331843834","1","","","","","",""
"","do_trial","219","1180267","0.0-200.0-0.0","782.0999999940395","","","","50","0,1,0","3","mountain","158","probe-233","0.4403937180016608","0.7165730556052359","0.2885720632815746","1","","","","","",""
"","do_trial","220","1186787","0.0-201.0-0.0","972.4000000059605","","","","50","0,1,0","3","mountain","159","probe-102","0.49474446424224894","0.7321192315422773","0.24768437190416698","1","","","","","",""
"","do_bye","221","1188297","0.0-202.0-0.0","null","","","","null","","","","","","","","","","","","","","",""
"","do_travel","222","1194305","0.0-203.0-0.0","null","","","","null","","","","","","","","","","","","","","",""
"","do_welcome","223","1195811","0.0-203.0-1.0","null","","","","null","","","","","","","","","","","","","","",""
"","do_trial","224","1203409","0.0-204.0-0.0","2054.800000011921","","","","51","0,1,0","4","coast","160","probe-189","0.5586388608467583","1","0.2171289349393498","0","","","","","",""
"","do_trial","225","1210728","0.0-205.0-0.0","1774.7000000029802","","","","50","1,1,0","4","coast","161","probe-27","0.5791517950383606","1","0.06397204936264475","1","","","","","",""
"","do_trial","226","1217073","0.0-206.0-0.0","799.2000000029802","","","","50","0,1,0","4","coast","162","probe-113","0.5008638044990241","1","0.15222645452693478","1","","","","","",""
"","do_trial","227","1224020","0.0-207.0-0.0","1399.2999999970198","","","","50","1,1,0","4","coast","163","probe-153","0.36090516703538944","1","0.22403593015052578","1","","","","","",""
"","do_trial","228","1230382","0.0-208.0-0.0","810.5999999940395","","","","50","0,1,0","4","coast","164","probe-204","0.23492254592991543","0.9402557506794684","0.14932819288055768","1","","","","","",""
"","do_trial","229","1236740","0.0-209.0-0.0","809","","","","50","1,1,0","4","coast","165","probe-165","0.2548883538873823","0.8771249604212519","0.05710283078836069","1","","","","","",""
"","do_trial","230","1242694","0.0-210.0-0.0","405","","","","50","0,1,0","4","coast","166","probe-118","0.47859910360025537","0.9130488792893683","0.1236211601764735","1","","","","","",""
"","do_trial","231","1249794","0.0-211.0-0.0","1553.4000000059605","","","","50","1,1,0","4","coast","167","probe-117","0.4516706749637327","0.7192830504183279","0.05751714846727886","1","","","","","",""
"","do_trial","232","1257184","0.0-212.0-0.0","1843.2000000029802","","","","50","0,1,0","4","coast","168","probe-26","0.31773051427533766","0.8415107126296844","0.05340447272528561","1","","","","","",""
"","do_trial","233","1263378","0.0-213.0-0.0","643.2999999970198","","","","50","1,1,0","4","coast","169","probe-126","0.4244715565079002","0.8872340520268704","0.05003708554073459","1","","","","","",""
"","do_trial","234","1270107","0.0-214.0-0.0","1183.4000000059605","","","","50","1,1,0","4","coast","170","probe-16","0.6185522355900046","0.6888301438661258","0.050340541983260455","1","","","","","",""
"","do_trial","235","1275933","0.0-215.0-0.0","282","","","","50","1,1,0","4","coast","171","probe-80","0.6018301489847371","0.47126558906603544","0.08736419086373409","1","","","","","",""
"","do_trial","236","1281856","0.0-216.0-0.0","379.5","","","","50","1,0,0","4","coast","172","probe-161","0.8102823468588348","0.41910152855027427","0.15385789428158236","0","","","","","",""
"","do_trial","237","1287707","0.0-217.0-0.0","302.70000000298023","","","","50","1,0,0","4","coast","173","probe-28","0.9077024112188055","0.35620916881228576","0.24985743184555012","0","","","","","",""
"","do_trial","238","1293813","0.0-218.0-0.0","559.0999999940395","","","","50","1,0,0","4","coast","174","probe-186","0.8009441308546491","0.31599819472724444","0.0745566309127684","0","","","","","",""
"","do_trial","239","1299803","0.0-219.0-0.0","446.09999999403954","","","","50","1,1,0","4","coast","175","probe-220","0.8082573154482445","0.37637262557182843","0.062079204913270986","1","","","","","",""
"","do_trial","240","1305642","0.0-220.0-0.0","289.80000001192093","","","","50","1,1,0","4","coast","176","probe-136","0.8206967499083381","0.44441522776965103","0.06400525462785969","1","","","","","",""
"","do_trial","241","1311660","0.0-221.0-0.0","468.90000000596046","","","","50","0,1,0","4","coast","177","probe-46","0.8972796693380021","0.3953112928047092","0.08329004740499917","1","","","","","",""
"","do_trial","242","1317540","0.0-222.0-0.0","332","","","","50","1,0,0","4","coast","178","probe-23","0.8897469122085019","0.35367042502011214","0.0820412785474262","0","","","","","",""
"","do_trial","243","1323858","0.0-223.0-0.0","768.1999999880791","","","","50","0,1,0","4","coast","179","probe-158","0.922771626012581","0.36809489907094367","0.07782217915513712","1","","","","","",""
"","do_trial","244","1331002","0.0-224.0-0.0","1595.7999999970198","","","","50","1,1,0","4","coast","180","probe-139","0.914368169360718","0.3396460367369402","0.05757358652252568","1","","","","","",""
"","do_trial","245","1337001","0.0-225.0-0.0","454.30000001192093","","","","50","1,1,0","4","coast","181","probe-14","0.791000925634991","0.40377792194365325","0.07145428236994762","1","","","","","",""
"","do_trial","246","1343074","0.0-226.0-0.0","530","","","","50","1,1,0","4","coast","182","probe-131","0.6498657312802526","0.42840454298632763","0.07386640580664806","1","","","","","",""
"","do_trial","247","1348910","0.0-227.0-0.0","288.80000001192093","","","","50","1,1,0","4","coast","183","probe-232","0.7511085493429336","0.3218765497763228","0.19387882264226564","1","","","","","",""
"","do_trial","248","1354882","0.0-228.0-0.0","424.59999999403954","","","","50","1,0,0","4","coast","184","probe-152","0.7657520917638121","0.36492604900606057","0.10263662955977948","0","","","","","",""
"","do_trial","249","1360815","0.0-229.0-0.0","385.1000000089407","","","","50","1,0,0","4","coast","185","probe-112","0.8195024658106346","0.443830650361055","0.05180556136544339","0","","","","","",""
"","do_trial","250","1366733","0.0-230.0-0.0","372.69999998807907","","","","50","0,0,0","4","coast","186","probe-40","0.746103056650721","0.29432922399452993","0.14233317512315177","0","","","","","",""
"","do_trial","251","1373866","0.0-231.0-0.0","1581.4000000059605","","","","50","1,0,0","4","coast","187","probe-55","0.7920905203866322","0.25199246693007543","0.19876681987782058","0","","","","","",""
"","do_trial","252","1380491","0.0-232.0-0.0","1080.1000000089407","","","","50","1,0,0","4","coast","188","probe-33","0.8551985597661824","0.21088469864752094","0.20817997236691338","0","","","","","",""
"","do_trial","253","1386679","0.0-233.0-0.0","644.6000000089407","","","","49","1,0,0","4","coast","189","probe-106","0.9337284052416283","0.2495673021775298","0.19414696817182414","1","","","","","",""
"","do_trial","254","1392727","0.0-234.0-0.0","498.59999999403954","","","","49","1,0,0","4","coast","190","probe-44","0.8917188177336288","0.23863812688328515","0.25030126132624037","1","","","","","",""
"","do_trial","255","1398849","0.0-235.0-0.0","579.0999999940395","","","","49","1,0,1","4","coast","191","probe-192","0.8607810863854828","0.2676758881168708","0.13111848761027353","1","","","","","",""
"","do_trial","256","1404736","0.0-236.0-0.0","338.3999999910593","","","","49","1,0,0","4","coast","192","probe-175","0.8420068686750528","0.33139684787830087","0.07355566013906444","1","","","","","",""
"","do_trial","257","1410784","0.0-237.0-0.0","null","","","","null","1,0,0","4","coast","193","probe-185","0.7331667345263372","0.4588353520732542","0.1364214056423694","","","","","","",""
"","do_trial","258","1416889","0.0-238.0-0.0","559.6999999880791","","","","49","1,1,0","4","coast","194","probe-184","0.8718856782797344","0.4244860744909949","0.15381353918783217","1","","","","","",""
"","do_trial","259","1423161","0.0-239.0-0.0","726.6999999880791","","","","49","1,1,0","4","coast","195","probe-74","0.7406620031084482","0.46076604197486803","0.17827815233374494","1","","","","","",""
"","do_trial","260","1429186","0.0-240.0-0.0","476.40000000596046","","","","49","1,0,0","4","coast","196","probe-236","0.8241404903078758","0.34720758620115505","0.1385373548840789","1","","","","","",""
"","do_trial","261","1435439","0.0-241.0-0.0","703.5","","","","49","1,1,0","4","coast","197","probe-156","0.8324806011474724","0.4523668049977082","0.1412521819152848","1","","","","","",""
"","do_trial","262","1441496","0.0-242.0-0.0","511.90000000596046","","","","49","1,0,1","4","coast","198","probe-52","0.8891548397824234","0.5344292031573618","0.2193346235107321","1","","","","","",""
"","do_trial","263","1447409","0.0-243.0-0.0","366.5","","","","49","1,0,1","4","coast","199","probe-160","0.7205998226648106","0.46090408004071953","0.08880022932486387","1","","","","","",""
"","do_bye","264","1448918","0.0-244.0-0.0","null","","","","null","","","","","","","","","","","","","","",""
"","do_travel","265","1454925","0.0-245.0-0.0","null","","","","null","","","","","","","","","","","","","","",""
"","do_welcome","266","1456433","0.0-245.0-1.0","null","","","","null","","","","","","","","","","","","","","",""
"","do_trial","267","1463298","0.0-246.0-0.0","1318.5","","","","50","1,1,0","5","highway","200","probe-99","1","0.48758742859725046","0.1295029381276338","1","","","","","",""
"","do_trial","268","1469258","0.0-247.0-0.0","410.79999999701977","","","","50","1,0,0","5","highway","201","probe-05","1","0.4954710356455268","0.09507476999966809","0","","","","","",""
"","do_trial","269","1475098","0.0-248.0-0.0","290.5","","","","50","1,1,0","5","highway","202","probe-203","1","0.5042409147206532","0.054480444076503876","1","","","","","",""
"","do_trial","270","1480961","0.0-249.0-0.0","315.90000000596046","","","","50","1,0,0","5","highway","203","probe-53","1","0.39367281381920954","0.14828096832836102","0","","","","","",""
"","do_trial","271","1486846","0.0-250.0-0.0","339.59999999403954","","","","50","1,0,0","5","highway","204","probe-39","0.8952891282863218","0.41091085018923695","0.08107721357145353","0","","","","","",""
"","do_trial","272","1492628","0.0-251.0-0.0","237.20000000298023","","","","49","1,0,0","5","highway","205","probe-135","0.9334677857235006","0.44938615339543986","0.1282071266226171","1","","","","","",""
"","do_trial","273","1498557","0.0-252.0-0.0","385.1000000089407","","","","49","1,0,0","5","highway","206","probe-133","0.7345557788603456","0.3956640864360363","0.11402814374346638","1","","","","","",""
"","do_trial","274","1504522","0.0-253.0-0.0","416.59999999403954","","","","49","0,0,0","5","highway","207","probe-41","0.6589467869534581","0.4040052469099891","0.10046887962228412","0","","","","","",""
"","do_trial","275","1510393","0.0-254.0-0.0","326.79999999701977","","","","49","0,0,0","5","highway","208","probe-72","0.6481277155199336","0.45692173179991075","0.2075311402082677","0","","","","","",""
"","do_trial","276","1516267","0.0-255.0-0.0","328.5","","","","49","0,0,0","5","highway","209","probe-30","0.5620008121201108","0.35919689609295213","0.2527779916005623","0","","","","","",""
"","do_trial","277","1521892","0.0-256.0-0.0","75.30000001192093","","","","51","0,1,1","5","highway","210","probe-15","0.3694004475864007","0.6886334404653625","0.3451385238293632","1","","","","","",""
"","do_trial","278","1527935","0.0-257.0-0.0","484.5","","","","51","0,1,0","5","highway","211","probe-201","0.27787724207645814","0.6670893033816536","0.23730629509808435","0","","","","","",""
"","do_trial","279","1533856","0.0-258.0-0.0","375.70000000298023","","","","51","0,1,0","5","highway","212","probe-31","0.09191023985955797","0.609847719816846","0.3290368504147113","0","","","","","",""
"","do_trial","280","1539819","0.0-259.0-0.0","416.90000000596046","","","","50","0,0,0","5","highway","213","probe-124","0.10637390378859429","0.6791500052732244","0.4388608028119972","0","","","","","",""
"","do_trial","281","1546214","0.0-260.0-0.0","847.5","","","","50","1,1,0","5","highway","214","probe-116","0.23074528637328415","0.7280446070370491","0.25691657936330997","1","","","","","",""
"","do_trial","282","1552103","0.0-261.0-0.0","340.29999999701977","","","","50","0,0,1","5","highway","215","probe-09","0.19902974082416067","0.7763502222110872","0.5462624269705242","0","","","","","",""
"","do_trial","283","1559002","0.0-262.0-0.0","1353.4000000059605","","","","50","0,0,0","5","highway","216","probe-10","0.2173440053130709","0.7788560217635699","0.4093869229795163","0","","","","","",""
"","do_trial","284","1565567","0.0-263.0-0.0","1020.1000000089407","","","","50","0,0,0","5","highway","217","probe-146","0.15553255635437116","0.737946568088084","0.27148328689672097","0","","","","","",""
"","do_trial","285","1571408","0.0-264.0-0.0","296.79999999701977","","","","49","0,1,1","5","highway","218","probe-122","0.0941685253422087","0.8131279400644661","0.27255510451339043","0","","","","","",""
"","do_trial","286","1577403","0.0-265.0-0.0","447.20000000298023","","","","51","0,0,0","5","highway","219","probe-73","0.10399752683028464","0.7405429760701222","0.2665219596706781","0","","","","","",""
"","do_trial","287","1583381","0.0-266.0-0.0","434.79999999701977","","","","49","0,1,0","5","highway","220","probe-42","0.0677324076263929","0.7722638994460251","0.3478153609443735","0","","","","","",""
"","do_trial","288","1589204","0.0-267.0-0.0","274.09999999403954","","","","50","0,1,0","5","highway","221","probe-03","0.09505946571792916","0.8750526487901781","0.3494124384979867","1","","","","","",""
"","do_trial","289","1595277","0.0-268.0-0.0","529","","","","50","0,1,0","5","highway","222","probe-198","0.13241956482206346","0.8132507941324714","0.4070255712096084","1","","","","","",""
"","do_trial","290","1603242","0.0-269.0-0.0","2420.2999999970198","","","","50","0,1,0","5","highway","223","probe-47","0.17467915152716537","0.7503303360822107","0.43756322090228106","1","","","","","",""
"","do_trial","291","1609844","0.0-270.0-0.0","1051.2000000029802","","","","50","0,1,0","5","highway","224","probe-211","0.1251341006510184","0.780726542524914","0.40525311042908274","1","","","","","",""
"","do_trial","292","1617223","0.0-271.0-0.0","1832.5","","","","50","0,1,0","5","highway","225","probe-02","0.06919083302980329","0.8793077539166171","0.38620639467415474","1","","","","","",""
"","do_trial","293","1623253","0.0-272.0-0.0","481.40000000596046","","","","50","0,1,1","5","highway","226","probe-176","0.18292034739550375","0.7889160169374074","0.31133801039682324","1","","","","","",""
"","do_trial","294","1629685","0.0-273.0-0.0","885","","","","50","0,1,0","5","highway","227","probe-85","0.19397869740362894","0.7696792268297883","0.36748274321706903","1","","","","","",""
"","do_trial","295","1635644","0.0-274.0-0.0","409.79999999701977","","","","50","1,1,0","5","highway","228","probe-17","0.10858969997049922","0.9285362378160532","0.2942057767080399","1","","","","","",""
"","do_trial","296","1641605","0.0-275.0-0.0","415.09999999403954","","","","50","0,1,1","5","highway","229","probe-63","0.09141597268087663","0.943462836356449","0.3577562671725233","1","","","","","",""
"","do_trial","297","1648001","0.0-276.0-0.0","846.7000000029802","","","","50","0,1,0","5","highway","230","probe-120","0.16037483800685695","0.8814970361426204","0.5501504389758927","1","","","","","",""
"","do_trial","298","1653998","0.0-277.0-0.0","448.8999999910593","","","","50","1,1,0","5","highway","231","probe-149","0.23094768669263793","0.7329185833364475","0.521602535176667","1","","","","","",""
"","do_trial","299","1660068","0.0-278.0-0.0","525.8000000119209","","","","50","0,1,0","5","highway","232","probe-89","0.31770225251559914","0.8188762239425573","0.3431971676569379","1","","","","","",""
"","do_trial","300","1666680","0.0-279.0-0.0","1066","","","","50","0,1,0","5","highway","233","probe-110","0.20648068861356186","0.8807275695451854","0.539669108484528","1","","","","","",""
"","do_trial","301","1672785","0.0-280.0-0.0","558.2000000029802","","","","50","0,1,1","5","highway","234","probe-219","0.13205135299397264","0.94608848237672","0.44878835395630035","1","","","","","",""
"","do_trial","302","1678822","0.0-281.0-0.0","491.6000000089407","","","","50","0,1,1","5","highway","235","probe-121","0.12918494956233012","0.9455429764907061","0.38876036142026804","1","","","","","",""
"","do_trial","303","1684740","0.0-282.0-0.0","369.29999999701977","","","","50","0,1,1","5","highway","236","probe-127","0.09528583637905291","0.9438812530041958","0.3808227008272086","1","","","","","",""
"","do_trial","304","1690810","0.0-283.0-0.0","521.8999999910593","","","","50","0,1,0","5","highway","237","probe-77","0.0833945499018106","0.7928338855311505","0.4987223528715747","1","","","","","",""
"","do_trial","305","1696713","0.0-284.0-0.0","353.5","","","","50","0,1,0","5","highway","238","probe-51","0.15244989737280334","0.7248904935469201","0.34794422226914984","1","","","","","",""
"","do_trial","306","1703131","0.0-285.0-0.0","869.0999999940395","","","","50","0,0,0","5","highway","239","probe-209","0.19260243866020843","0.6382844754502947","0.412714982565672","0","","","","","",""
"","do_bye","307","1704642","0.0-286.0-0.0","null","","","","null","","","","","","","","","","","","","","",""
"","html-keyboard-response","308","1711969","0.0-286.0-1.0","7325.5999999940395","<div class='center'><p>You may take a break now!</p><p> Stretch for a little bit. Get a glass of water.</p><p> You have two minutes to rest. Then, the game will automatically move on.</p><p>If you’d like to get started on the second half of the experiment sooner, then press the <b>space bar</b></p></div>","32","","","","","","","","","","","","","","","","",""
"","html-keyboard-response","309","1759532","0.0-286.0-2.0","47560.59999999404","<div class='center'><p>You’ve arrived at the final destination of your journey! Unfortunately, it’s very foggy out, so you won’t be able to see it in the distance like in previous places you've visited.</p><p>You’ll still be deciding which pirates you want to rob ships. However, because of the fog you also won’t be able to see the ship in the distance. </p><p><b>[Press the space bar to continue]</b></p></div>","32","","","","","","","","","","","","","","","","",""
"","html-keyboard-response","310","1771028","0.0-286.0-3.0","11494.10000000894","<div class='center'><p> Sometimes you’ll be asked if you’ve seen a ship before (see the example below). You will use the 5, 6, 7, 8 buttons on your keyboard to respond. </p><p> If you definitely did not see the ship, pick the the big red thumbs down by pressing <b>5</b>.</p><p> If you don’t think you saw it but aren’t sure, then pick the small red thumbs down by pressing <b>6</b>.</p><p> If you think you might have seen it, then pick the small green thumbs up by pressing <b>7</b>.</p><p> If you definitely did see this ship before, then pick the big thumb green thumbs up by pressing <b>8</b>.</p><p> If you recall correctly, then you’ll get a gold coin!</p><p><b>[Press the space bar to begin the next phase of the experiment]</b></p><p><img src='run_exp/static/images/example_recog_trial.png' height='500'></p></div>","32","","","","","","","","","","","","","","","","",""
"","do_welcome","311","1772535","0.0-286.0-4.0","null","","","","null","","","","","","","","","","","","","","",""
"","do_trial","312","1777885","0.0-287.0-0.0","1805.4000000059605","","","","51","1,1,0","6","blank","240","null","0.10046500845111184","1","0.3378069184263094","0","","","","","",""
"","do_recog","313","1782668","0.0-288.0-0.0","3271.5","","","","56","","","","241","probe-99","","","","","1","[object Object]","200","5","1",""
"","do_trial","314","1788717","0.0-289.0-0.0","null","","","","null","1,1,0","6","blank","242","null","0.211422857699168","0.9127098621122699","0.3990255457078857","","","","","","",""
"","do_recog","315","1792724","0.0-290.0-0.0","2496.7000000029802","","","","53","","","","243","probe-243","","","","","0","[object Object]","null","null","1",""
"","do_trial","316","1797852","0.0-291.0-0.0","1582.7000000029802","","","","49","0,0,1","6","blank","244","null","0.11255886991117091","0.6818634283577373","0.4545329958723475","0","","","","","",""
"","do_recog","317","1801199","0.0-292.0-0.0","1839.3999999910593","","","","56","","","","245","probe-140","","","","","1","[object Object]","80","2","1",""
"","do_trial","318","1805454","0.0-293.0-0.0","705.4000000059605","","","","50","0,1,0","6","blank","246","null","0.0822188089976421","0.8087507585156142","0.33976729356270297","1","","","","","",""
"","do_recog","319","1809013","0.0-294.0-0.0","2047","","","","53","","","","247","probe-257","","","","","0","[object Object]","null","null","1",""
"","do_trial","320","1813223","0.0-295.0-0.0","666.2999999970198","","","","50","1,1,0","6","blank","248","null","0.14286316008447356","0.9266995249139544","0.33753123687614583","1","","","","","",""
"","do_recog","321","1816377","0.0-296.0-0.0","1645.2000000029802","","","","53","","","","249","probe-05","","","","","1","[object Object]","201","5","0",""
"","do_trial","322","1822589","0.0-297.0-0.0","2667.2000000029802","","","","49","0,1,0","6","blank","250","null","0.13524311248186763","0.7610809615109646","0.275298854594561","0","","","","","",""
"","do_trial","323","1826749","0.0-298.0-0.0","614.7999999970198","","","","51","0,1,0","6","blank","251","null","0.08633330177197858","0.8449696897532216","0.08095599404424934","0","","","","","",""
"","do_recog","324","1830581","0.0-299.0-0.0","2319.2000000029802","","","","56","","","","252","probe-207","","","","","1","[object Object]","123","3","1",""
"","do_trial","325","1836759","0.0-300.0-0.0","2627.7000000029802","","","","50","0,1,0","6","blank","253","null","0.06307299769208678","0.6921505609592511","0.3149412541644213","1","","","","","",""
"","do_recog","326","1840621","0.0-301.0-0.0","2348.8999999910593","","","","54","","","","254","probe-21","","","","","1","[object Object]","125","3","0",""
"","do_trial","327","1845465","0.0-302.0-0.0","1295.7999999970198","","","","49","0,1,0","6","blank","255","null","0.2989225308281094","0.6919498875745157","0.3296844566432987","0","","","","","",""
"","do_trial","328","1849509","0.0-303.0-0.0","497.8999999910593","","","","50","0,1,1","6","blank","256","null","0.07988796186262992","0.7396248551503481","0.3961704863450073","1","","","","","",""
"","do_trial","329","1853789","0.0-304.0-0.0","731.4000000059605","","","","50","0,0,1","6","blank","257","null","0.32173281975295775","0.5594711499543555","0.3147761542198315","0","","","","","",""
"","do_trial","330","1857680","0.0-305.0-0.0","343","","","","50","1,0,0","6","blank","258","null","0.5374395731131","0.4242217914661317","0.4200623557639051","0","","","","","",""
"","do_trial","331","1861538","0.0-306.0-0.0","312.59999999403954","","","","51","1,0,1","6","blank","259","null","0.737883600009301","0.287034163615442","0.5063750380313791","1","","","","","",""
"","do_recog","332","1865375","0.0-307.0-0.0","2327.5999999940395","","","","56","","","","260","probe-189","","","","","1","[object Object]","160","4","1",""
"","do_trial","333","1870195","0.0-308.0-0.0","1271.7999999970198","","","","50","1,0,0","6","blank","261","null","0.7409511260399605","0.13411649609940213","0.47900809424880336","0","","","","","",""
"","do_recog","334","1873075","0.0-309.0-0.0","1368.7000000029802","","","","56","","","","262","probe-180","","","","","1","[object Object]","42","1","1",""
"","do_trial","335","1877200","0.0-310.0-0.0","576.2999999970198","","","","51","1,0,1","6","blank","263","null","0.6230240011268137","0.1357681341470349","0.4515822063224112","1","","","","","",""
"","do_trial","336","1882321","0.0-311.0-0.0","1572","","","","51","1,0,1","6","blank","264","null","0.8128602089827015","0.12312753840274025","0.5073874775784888","1","","","","","",""
"","do_trial","337","1887591","0.0-312.0-0.0","1725.5","","","","51","1,0,0","6","blank","265","null","0.914111600714116","0.08295937290231159","0.4263460470820761","0","","","","","",""
"","do_trial","338","1892553","0.0-313.0-0.0","1414.2000000029802","","","","51","1,0,0","6","blank","266","null","0.8503560457497534","0.16170030235871238","0.3977385593931548","0","","","","","",""
"","do_trial","339","1896799","0.0-314.0-0.0","698.3999999910593","","","","51","0,0,0","6","blank","267","null","0.7975333854032646","0.10855712384143976","0.3936857258145037","0","","","","","",""
"","do_trial","340","1900917","0.0-315.0-0.0","571.5999999940395","","","","50","1,0,0","6","blank","268","null","0.7870772549704829","0.06706725127896107","0.38944517696271763","0","","","","","",""
"","do_recog","341","1904359","0.0-316.0-0.0","1933.300000011921","","","","53","","","","269","probe-08","","","","","1","[object Object]","122","3","0",""
"","do_trial","342","1909534","0.0-317.0-0.0","1630","","","","49","1,0,1","6","blank","270","null","0.8393836214760935","0.05185862317513609","0.5029888364733651","1","","","","","",""
"","do_trial","343","1914354","0.0-318.0-0.0","1271","","","","49","1,1,1","6","blank","271","null","0.6797799788430526","0.2664791008496922","0.3619474758941849","1","","","","","",""
"","do_recog","344","1917274","0.0-319.0-0.0","1409.7999999970198","","","","56","","","","272","probe-32","","","","","1","[object Object]","121","3","1",""
"","do_trial","345","1921996","0.0-320.0-0.0","1176.2000000029802","","","","49","1,0,0","6","blank","273","null","0.7080283688455092","0.15842281383152373","0.42514834752479125","1","","","","","",""
"","do_recog","346","1925874","0.0-321.0-0.0","2364.7999999970198","","","","55","","","","274","probe-90","","","","","1","[object Object]","49","1","1",""
"","do_trial","347","1931043","0.0-322.0-0.0","1623.7000000029802","","","","49","0,0,1","6","blank","275","null","0.6587255097119546","0.15487561370865474","0.35115074643779454","0","","","","","",""
"","do_recog","348","1933859","0.0-323.0-0.0","1307.5999999940395","","","","56","","","","276","probe-178","","","","","1","[object Object]","84","2","1",""
"","do_trial","349","1938407","0.0-324.0-0.0","1001.0999999940395","","","","49","0,0,0","6","blank","277","null","0.7352774792991729","0.21693491707987725","0.4676901282290076","0","","","","","",""
"","do_recog","350","1941440","0.0-325.0-0.0","1521.5","","","","55","","","","278","probe-168","","","","","1","[object Object]","81","2","1",""
"","do_trial","351","1945383","0.0-326.0-0.0","399.09999999403954","","","","51","1,0,1","6","blank","279","null","0.727783179731067","0.10982978960144918","0.5735904519803532","1","","","","","",""
"","do_recog","352","1947957","0.0-327.0-0.0","1064.800000011921","","","","53","","","","280","probe-247","","","","","0","[object Object]","null","null","1",""
"","do_trial","353","1952082","0.0-328.0-0.0","577.7999999970198","","","","51","1,0,0","6","blank","281","null","0.7803323809713267","0.1258954365542869","0.44437798565663683","0","","","","","",""
"","do_recog","354","1955077","0.0-329.0-0.0","1484.7999999970198","","","","56","","","","282","probe-204","","","","","1","[object Object]","164","4","1",""
"","do_trial","355","1959020","0.0-330.0-0.0","394.70000000298023","","","","50","1,0,1","6","blank","283","null","0.9232979439720745","0.05344322332085061","0.3661032707109211","0","","","","","",""
"","do_recog","356","1961662","0.0-331.0-0.0","1132.5999999940395","","","","56","","","","284","probe-84","","","","","1","[object Object]","86","2","1",""
"","do_trial","357","1965513","0.0-332.0-0.0","301.5","","","","51","0,0,1","6","blank","285","null","0.8938317857564582","0.05948578668050061","0.4500132084148609","1","","","","","",""
"","do_recog","358","1969030","0.0-333.0-0.0","2004.5999999940395","","","","54","","","","286","probe-97","","","","","1","[object Object]","40","1","0",""
"","do_trial","359","1973381","0.0-334.0-0.0","799","","","","51","1,1,0","6","blank","287","null","0.9053710685830901","0.10048632036893537","0.3784514062080464","0","","","","","",""
"","do_recog","360","1976696","0.0-335.0-0.0","1803.800000011921","","","","55","","","","288","probe-133","","","","","1","[object Object]","206","5","1",""
"","do_trial","361","1980782","0.0-336.0-0.0","528.5","","","","49","1,0,1","6","blank","289","null","1","0.1970604924200676","0.44569857339974","1","","","","","",""
"","do_trial","362","1984701","0.0-337.0-0.0","371.69999998807907","","","","49","1,0,0","6","blank","290","null","0.8835110876180912","0.05256041011097864","0.31708610194822134","1","","","","","",""
"","do_trial","363","1988621","0.0-338.0-0.0","372.90000000596046","","","","49","0,1,0","6","blank","291","null","0.8699392020681408","0.3402141259345116","0.30045367012781593","0","","","","","",""
"","do_trial","364","1992532","0.0-339.0-0.0","362.40000000596046","","","","49","1,0,0","6","blank","292","null","0.9139560712056821","0.3456271777372739","0.43980593166084253","1","","","","","",""
"","do_trial","365","1996380","0.0-340.0-0.0","297.1000000089407","","","","49","1,0,1","6","blank","293","null","0.8176603931617025","0.24532120079602623","0.4360086482418086","1","","","","","",""
"","do_trial","366","2000237","0.0-341.0-0.0","310.70000000298023","","","","49","1,1,0","6","blank","294","null","0.8455508539934988","0.34372036895986874","0.49193686119994684","1","","","","","",""
"","do_trial","367","2004187","0.0-342.0-0.0","402.5","","","","49","1,0,0","6","blank","295","null","0.7988650942883407","0.172193273738883","0.448430076924607","1","","","","","",""
"","do_recog","368","2007149","0.0-343.0-0.0","1451.9000000059605","","","","56","","","","296","probe-153","","","","","1","[object Object]","163","4","1",""
"","do_trial","369","2011012","0.0-344.0-0.0","316","","","","49","0,1,0","6","blank","297","null","0.8492442879665469","0.12292299867189149","0.28310409312236007","0","","","","","",""
"","do_trial","370","2014834","0.0-345.0-0.0","275.40000000596046","","","","49","1,1,1","6","blank","298","null","0.8296269950359323","0.15274543524475953","0.383232383376358","1","","","","","",""
"","do_trial","371","2018681","0.0-346.0-0.0","302.90000000596046","","","","49","1,0,1","6","blank","299","null","0.9203912203840495","0.14280590876024843","0.5212198180244946","1","","","","","",""
"","do_recog","372","2021228","0.0-347.0-0.0","1033.7000000029802","","","","56","","","","300","probe-128","","","","","1","[object Object]","89","2","1",""
"","do_trial","373","2025093","0.0-348.0-0.0","316.70000000298023","","","","49","1,0,0","6","blank","301","null","0.8995006029402552","0.12933956547745049","0.4577373063057906","1","","","","","",""
"","do_recog","374","2027793","0.0-349.0-0.0","1185.7999999970198","","","","56","","","","302","probe-213","","","","","1","[object Object]","43","1","1",""
"","do_trial","375","2031790","0.0-350.0-0.0","450","","","","49","1,0,1","6","blank","303","null","0.9182706201223418","0.15070680680561904","0.6588052324125107","1","","","","","",""
"","do_recog","376","2034846","0.0-351.0-0.0","1542.5999999940395","","","","55","","","","304","probe-108","","","","","1","[object Object]","88","2","1",""
"","do_trial","377","2038693","0.0-352.0-0.0","301.79999999701977","","","","49","0,0,0","6","blank","305","null","0.6844191614953389","0.19600892826560715","0.7694899508246917","0","","","","","",""
"","do_recog","378","2041593","0.0-353.0-0.0","1387.199999988079","","","","56","","","","306","probe-91","","","","","1","[object Object]","129","3","1",""
"","do_trial","379","2045410","0.0-354.0-0.0","270","","","","49","1,1,1","6","blank","307","null","0.7157015579078282","0.2909886033266842","0.7899197473320416","1","","","","","",""
"","do_trial","380","2049513","0.0-355.0-0.0","555.0999999940395","","","","49","0,0,1","6","blank","308","null","0.4919898441959192","0.20448890949358606","0.7242265738131807","0","","","","","",""
"","do_recog","381","2052048","0.0-356.0-0.0","1024.2000000029802","","","","56","","","","309","probe-238","","","","","1","[object Object]","85","2","1",""
"","do_trial","382","2055850","0.0-357.0-0.0","257.59999999403954","","","","49","1,0,0","6","blank","310","null","0.4818469023711443","0.23610069511757345","0.7194559431998274","1","","","","","",""
"","do_recog","383","2058518","0.0-358.0-0.0","1158.7000000029802","","","","56","","","","311","probe-135","","","","","1","[object Object]","205","5","1",""
"","do_trial","384","2062341","0.0-359.0-0.0","276.69999998807907","","","","49","0,1,0","6","blank","312","null","0.44348531532411645","0.20244112874598016","0.7834115030212272","0","","","","","",""
"","do_recog","385","2064619","0.0-360.0-0.0","765.5","","","","56","","","","313","probe-118","","","","","1","[object Object]","166","4","1",""
"","do_trial","386","2068441","0.0-361.0-0.0","274.20000000298023","","","","49","0,0,0","6","blank","314","null","0.30767905075650454","0.3201876605880109","0.7303051236974311","0","","","","","",""
"","do_recog","387","2071439","0.0-362.0-0.0","1487.9000000059605","","","","54","","","","315","probe-249","","","","","0","[object Object]","null","null","1",""
"","do_trial","388","2075316","0.0-363.0-0.0","333","","","","49","0,0,1","6","blank","316","null","0.23127726827742479","0.22693008108845183","0.7365469579748449","0","","","","","",""
"","do_recog","389","2077811","0.0-364.0-0.0","982.5","","","","56","","","","317","probe-165","","","","","1","[object Object]","165","4","1",""
"","do_trial","390","2081615","0.0-365.0-0.0","256","","","","49","0,0,1","6","blank","318","null","0.32420162181157147","0.09484400275353976","0.8625861965789404","0","","","","","",""
"","do_trial","391","2085402","0.0-366.0-0.0","240.79999999701977","","","","50","0,0,1","6","blank","319","null","0.3803450798315282","0.06491253976864372","0.8507234467327228","0","","","","","",""
"","do_recog","392","2088102","0.0-367.0-0.0","1187.7999999970198","","","","55","","","","320","probe-12","","","","","1","[object Object]","48","1","1",""
"","do_trial","393","2091913","0.0-368.0-0.0","267.20000000298023","","","","51","0,0,0","6","blank","321","null","0.4235993961404154","0.11524806236885356","0.8143967946439747","0","","","","","",""
"","do_trial","394","2096028","0.0-369.0-0.0","565.7999999970198","","","","50","0,0,0","6","blank","322","null","0.35583859199685935","0.07618849617073745","0.8088256609809464","0","","","","","",""
"","do_trial","395","2100325","0.0-370.0-0.0","753.2000000029802","","","","51","1,0,1","6","blank","323","null","0.47808450953715315","0.05211570196333078","0.8942530306616966","1","","","","","",""
"","do_trial","396","2104216","0.0-371.0-0.0","351.40000000596046","","","","51","1,0,1","6","blank","324","null","0.3719167907154571","0.11234126190847392","0.8480405356580067","1","","","","","",""
"","do_recog","397","2106696","0.0-372.0-0.0","969.7000000029802","","","","56","","","","325","probe-113","","","","","1","[object Object]","162","4","1",""
"","do_trial","398","2110744","0.0-373.0-0.0","503.5","","","","51","0,0,1","6","blank","326","null","0.380194898704446","0.08239981358848622","0.875836218594344","1","","","","","",""
"","do_recog","399","2113595","0.0-374.0-0.0","1342.5999999940395","","","","56","","","","327","probe-255","","","","","0","[object Object]","null","null","0",""
"","do_trial","400","2118796","0.0-375.0-0.0","1657.2000000029802","","","","51","1,0,1","6","blank","328","null","0.43198422340532916","0.11979513098533623","0.8203874032296831","1","","","","","",""
"","do_recog","401","2121402","0.0-376.0-0.0","1092.9000000059605","","","","56","","","","329","probe-194","","","","","1","[object Object]","83","2","1",""
"","do_trial","402","2125820","0.0-377.0-0.0","874.8000000119209","","","","51","0,0,0","6","blank","330","null","0.3469196866609067","0.051495848793875844","0.7271099587852069","0","","","","","",""
"","do_recog","403","2128147","0.0-378.0-0.0","814.5999999940395","","","","56","","","","331","probe-159","","","","","1","[object Object]","127","3","1",""
"","do_trial","404","2132030","0.0-379.0-0.0","335.09999999403954","","","","49","0,1,0","6","blank","332","null","0.4090994038318454","0.24602054192867218","0.7475117487436869","0","","","","","",""
"","do_recog","405","2134893","0.0-380.0-0.0","1351.8999999910593","","","","55","","","","333","probe-225","","","","","1","[object Object]","41","1","1",""
"","do_trial","406","2138827","0.0-381.0-0.0","390","","","","51","0,0,1","6","blank","334","null","0.4040661456328204","0.20547325986338508","0.706096472823358","1","","","","","",""
"","do_recog","407","2141208","0.0-382.0-0.0","871.7999999970198","","","","56","","","","335","probe-75","","","","","1","[object Object]","46","1","1",""
"","do_trial","408","2145364","0.0-383.0-0.0","608.3999999910593","","","","51","1,0,1","6","blank","336","null","0.4430182675318717","0.0939923512268146","1","1","","","","","",""
"","do_trial","409","2149330","0.0-384.0-0.0","419.6000000089407","","","","51","0,0,1","6","blank","337","null","0.5547355154821397","0.05052756418714874","0.9239959832153909","1","","","","","",""
"","do_trial","410","2153245","0.0-385.0-0.0","368.70000000298023","","","","51","1,0,0","6","blank","338","null","0.5150992223896301","0.18315472451618772","0.8590596392352131","0","","","","","",""
"","do_trial","411","2157165","0.0-386.0-0.0","372.90000000596046","","","","51","1,0,1","6","blank","339","null","0.4057427162027462","0.06827639473859391","0.905986540905356","1","","","","","",""
"","do_trial","412","2161091","0.0-387.0-0.0","378.1000000089407","","","","51","0,0,1","6","blank","340","null","0.5155893378275753","0.10735690120949372","0.8812235740654407","1","","","","","",""
"","do_trial","413","2164860","0.0-388.0-0.0","225.79999999701977","","","","51","0,0,1","6","blank","341","null","0.49051787567646565","0.1784144887078345","0.8162604892852582","1","","","","","",""
"","do_recog","414","2167685","0.0-389.0-0.0","1312.2999999970198","","","","56","","","","342","probe-203","","","","","1","[object Object]","202","5","1",""
"","do_trial","415","2171591","0.0-390.0-0.0","360.20000000298023","","","","51","1,0,0","6","blank","343","null","0.46840150615572534","0.12441646740825511","0.7705442020011394","0","","","","","",""
"","do_recog","416","2174604","0.0-391.0-0.0","1500","","","","56","","","","344","probe-53","","","","","1","[object Object]","203","5","1",""
"","do_trial","417","2178463","0.0-392.0-0.0","310.29999999701977","","","","51","1,0,0","6","blank","345","null","0.5693196778778694","0.20822470687755112","0.7179380089590663","0","","","","","",""
"","do_trial","418","2182487","0.0-393.0-0.0","474.69999998807907","","","","49","0,0,1","6","blank","346","null","0.593900700101379","0.10830189563051704","0.6222276133347528","0","","","","","",""
"","do_trial","419","2186376","0.0-394.0-0.0","340.3999999910593","","","","50","1,0,1","6","blank","347","null","0.48530239456419005","0.09765000860577913","0.7158607461170057","0","","","","","",""
"","do_trial","420","2190249","0.0-395.0-0.0","327.70000000298023","","","","49","1,0,0","6","blank","348","null","0.3040221280046357","0.2965348757201442","0.5738430570009173","1","","","","","",""
"","do_trial","421","2194169","0.0-396.0-0.0","370.79999999701977","","","","49","0,1,0","6","blank","349","null","0.33861239212125727","0.6235653699416966","0.5233395171765316","0","","","","","",""
"","do_recog","422","2196439","0.0-397.0-0.0","757.1000000089407","","","","56","","","","350","probe-41","","","","","1","[object Object]","207","5","1",""
"","do_trial","423","2200284","0.0-398.0-0.0","300.29999999701977","","","","49","0,1,0","6","blank","351","null","0.27138353297421586","0.7950031307214265","0.5696257052178707","0","","","","","",""
"","do_trial","424","2204090","0.0-399.0-0.0","262.29999999701977","","","","49","0,0,0","6","blank","352","null","0.157331470005652","0.6409209296446238","0.4799542948259862","0","","","","","",""
"","do_recog","425","2207242","0.0-400.0-0.0","1639.2999999970198","","","","55","","","","353","probe-39","","","","","1","[object Object]","204","5","1",""
"","do_trial","426","2211272","0.0-401.0-0.0","480.40000000596046","","","","51","0,1,0","6","blank","354","null","0.25167703249384615","0.7683943562077202","0.47790654592854737","0","","","","","",""
"","do_trial","427","2215187","0.0-402.0-0.0","371.90000000596046","","","","51","0,1,1","6","blank","355","null","0.05455885190946111","0.8383095680606504","0.3884910167744416","1","","","","","",""
"","do_trial","428","2219231","0.0-403.0-0.0","496.59999999403954","","","","51","0,1,1","6","blank","356","null","0.14245970375747236","0.857418343553844","0.533741374389535","1","","","","","",""
"","do_trial","429","2223317","0.0-404.0-0.0","541","","","","51","0,0,1","6","blank","357","null","0.1036334248200604","0.9177976035679114","0.42275692940042925","1","","","","","",""
"","do_trial","430","2227305","0.0-405.0-0.0","437.70000000298023","","","","51","0,1,0","6","blank","358","null","0.07304475701189064","0.9298633271285459","0.24644403710206764","0","","","","","",""
"","do_recog","431","2229856","0.0-406.0-0.0","1040.300000011921","","","","56","","","","359","probe-251","","","","","0","[object Object]","null","null","0",""
"","do_trial","432","2234076","0.0-407.0-0.0","674.7000000029802","","","","49","0,1,1","6","blank","360","null","0.1784091195373582","0.8217441259631724","0.3507280627557155","0","","","","","",""
"","do_trial","433","2237985","0.0-408.0-0.0","364.29999999701977","","","","50","1,0,1","6","blank","361","null","0.2926423588249331","0.7389279770213066","0.43046892354453953","0","","","","","",""
"","do_trial","434","2241834","0.0-409.0-0.0","301.6000000089407","","","","50","1,1,0","6","blank","362","null","0.33132978250859346","0.639235078587854","0.30029532159789774","1","","","","","",""
"","do_recog","435","2244492","0.0-410.0-0.0","1149.1000000089407","","","","56","","","","363","probe-195","","","","","1","[object Object]","47","1","1",""
"","do_trial","436","2248683","0.0-411.0-0.0","642.2999999970198","","","","51","0,1,1","6","blank","364","null","0.25155965717975903","0.7322436115285058","0.43449720042181944","1","","","","","",""
"","do_recog","437","2252569","0.0-412.0-0.0","2375.5","","","","56","","","","365","probe-11","","","","","1","[object Object]","128","3","1",""
"","do_trial","438","2256760","0.0-413.0-0.0","645.1000000089407","","","","51","0,0,0","6","blank","366","null","0.13478076091993196","0.7395929372650101","0.28299105856557627","0","","","","","",""
"","do_recog","439","2260284","0.0-414.0-0.0","2010.7999999970198","","","","56","","","","367","probe-126","","","","","1","[object Object]","169","4","1",""
"","do_trial","440","2264310","0.0-415.0-0.0","476.80000001192093","","","","49","0,0,1","6","blank","368","null","0.17650473288252486","0.7412990887831985","0.4575186678044495","0","","","","","",""
"","do_recog","441","2267009","0.0-416.0-0.0","1189.6000000089407","","","","56","","","","369","probe-226","","","","","1","[object Object]","124","3","1",""
"","do_trial","442","2270912","0.0-417.0-0.0","358.90000000596046","","","","51","0,0,1","6","blank","370","null","0.07802510755111434","0.905690543456442","0.448836944978106","1","","","","","",""
"","do_trial","443","2274763","0.0-418.0-0.0","305.1000000089407","","","","51","0,1,0","6","blank","371","null","0.0999744562060408","0.9108459122191271","0.24620826118907968","0","","","","","",""
"","do_trial","444","2278632","0.0-419.0-0.0","323.40000000596046","","","","51","0,1,0","6","blank","372","null","0.05361482697407094","0.8561582178206131","0.4354425237070445","0","","","","","",""
"","do_trial","445","2282548","0.0-420.0-0.0","368.5","","","","51","0,1,0","6","blank","373","null","0.15318042354609213","0.7850125541444163","0.3119266131806469","0","","","","","",""
"","do_trial","446","2286396","0.0-421.0-0.0","299.3999999910593","","","","49","0,1,0","6","blank","374","null","0.15688434577662286","0.8297818493089787","0.16008279636669154","0","","","","","",""
"","do_trial","447","2290050","0.0-422.0-0.0","104.29999999701977","","","","49","0,1,0","6","blank","375","null","0.1506528585289439","1","0.2771808326131737","0","","","","","",""
"","do_recog","448","2292533","0.0-423.0-0.0","973.2000000029802","","","","56","","","","376","probe-117","","","","","1","[object Object]","167","4","1",""
"","do_trial","449","2296320","0.0-424.0-0.0","241.79999999701977","","","","49","0,1,0","6","blank","377","null","0.14185499774439037","0.8908186818008201","0.303663156080663","0","","","","","",""
"","do_recog","450","2298999","0.0-425.0-0.0","1164.699999988079","","","","56","","","","378","probe-26","","","","","1","[object Object]","168","4","1",""
"","do_trial","451","2302840","0.0-426.0-0.0","294.59999999403954","","","","50","0,1,0","6","blank","379","null","0.24739759596639338","0.9408382360569091","0.23202560239729197","1","","","","","",""
"","do_trial","452","2306720","0.0-427.0-0.0","335.80000001192093","","","","50","0,1,1","6","blank","380","null","0.2349909675362224","0.9201371349293976","0.2175954100451052","1","","","","","",""
"","do_trial","453","2310364","0.0-428.0-0.0","94.69999998807907","","","","50","0,1,0","6","blank","381","null","0.09588688276123537","0.9466159055452957","0.27928246574967686","1","","","","","",""
"","do_trial","454","2314059","0.0-429.0-0.0","149.69999998807907","","","","50","0,1,0","6","blank","382","null","0.09697825666073426","0.9136416775403252","0.41407924729017936","1","","","","","",""
"","do_recog","455","2317007","0.0-430.0-0.0","1439.2000000029802","","","","53","","","","383","probe-78","","","","","1","[object Object]","120","3","0",""
"","do_trial","456","2320809","0.0-431.0-0.0","256","","","","50","0,1,1","6","blank","384","null","0.07697873746021448","0.8920107750384305","0.4516149976515163","1","","","","","",""
"","do_trial","457","2324659","0.0-432.0-0.0","300","","","","50","0,1,1","6","blank","385","null","0.10257695762097326","0.8592391254849328","0.45789563988717247","1","","","","","",""
"","do_trial","458","2328346","0.0-433.0-0.0","143.29999999701977","","","","50","0,1,1","6","blank","386","null","0.11441944879292691","0.814382690632373","0.507990590113568","1","","","","","",""
"","do_trial","459","2332023","0.0-434.0-0.0","132.70000000298023","","","","50","0,1,0","6","blank","387","null","0.08182407040333241","0.728823327636188","0.5461662179549923","1","","","","","",""
"","do_recog","460","2334692","0.0-435.0-0.0","1159.7999999970198","","","","56","","","","388","probe-177","","","","","1","[object Object]","82","2","1",""
"","do_trial","461","2338450","0.0-436.0-0.0","215.29999999701977","","","","50","1,0,0","6","blank","389","null","0.4577107283403003","0.6298430851558916","0.278800140753353","0","","","","","",""
"","do_recog","462","2341103","0.0-437.0-0.0","1144.0999999940395","","","","56","","","","390","probe-171","","","","","1","[object Object]","44","1","1",""
"","do_trial","463","2344905","0.0-438.0-0.0","257.5","","","","50","0,1,0","6","blank","391","null","0.5550402266018657","0.6390524348447676","0.23219953433341864","1","","","","","",""
"","do_recog","464","2348167","0.0-439.0-0.0","1753.9000000059605","","","","56","","","","392","probe-45","","","","","1","[object Object]","87","2","1",""
"","do_trial","465","2352312","0.0-440.0-0.0","600.9000000059605","","","","50","1,1,1","6","blank","393","null","0.6796878958131357","0.6134291740529677","0.2304087382607706","1","","","","","",""
"","do_recog","466","2354802","0.0-441.0-0.0","981.8000000119209","","","","56","","","","394","probe-216","","","","","1","[object Object]","45","1","1",""
"","do_trial","467","2358920","0.0-442.0-0.0","565.7999999970198","","","","50","0,1,0","6","blank","395","null","0.7040781514292273","0.5386403525541263","0.14924219988840923","1","","","","","",""
"","do_trial","468","2362947","0.0-443.0-0.0","479.3999999910593","","","","50","1,0,0","6","blank","396","null","0.7345474764927866","0.5910664743696541","0.09928303003211196","0","","","","","",""
"","do_trial","469","2366970","0.0-444.0-0.0","478.79999999701977","","","","50","1,1,0","6","blank","397","null","0.7505752914348657","0.6522351592244978","0.06010998668065588","1","","","","","",""
"","do_trial","470","2370906","0.0-445.0-0.0","390.90000000596046","","","","50","1,1,0","6","blank","398","null","0.8059833464612948","0.6488476619914448","0.11043180783787394","1","","","","","",""
"","do_recog","471","2373580","0.0-446.0-0.0","1165","","","","56","","","","399","probe-30","","","","","1","[object Object]","209","5","1",""
"","do_trial","472","2377752","0.0-447.0-0.0","629.0999999940395","","","","50","0,0,1","6","blank","400","null","0.730862254115376","0.645565345767151","0.06924798227589544","0","","","","","",""
"","do_recog","473","2380990","0.0-448.0-0.0","1729.0999999940395","","","","56","","","","401","probe-72","","","","","1","[object Object]","208","5","1",""
"","do_trial","474","2385175","0.0-449.0-0.0","636.5999999940395","","","","50","1,0,0","6","blank","402","null","0.8143985324259617","0.49529271801958585","0.0737502246510614","0","","","","","",""
"","do_recog","475","2388551","0.0-450.0-0.0","1866.1000000089407","","","","56","","","","403","probe-27","","","","","1","[object Object]","161","4","1",""
"","do_trial","476","2392803","0.0-451.0-0.0","703.5999999940395","","","","50","0,0,0","6","blank","404","null","0.7811159786846292","0.5700446967467192","0.1288773253328273","0","","","","","",""
"","do_recog","477","2395288","0.0-452.0-0.0","976.6000000089407","","","","56","","","","405","probe-38","","","","","1","[object Object]","126","3","1",""
"","do_trial","478","2401334","0.0-453.0-0.0","null","","","","null","1,0,0","6","blank","406","null","0.7587494231533348","0.5156882723446857","0.11296300059323185","","","","","","",""
"","do_trial","479","2405323","0.0-454.0-0.0","442.29999999701977","","","","50","1,0,0","6","blank","407","null","0.647315284637329","0.3651342545454601","0.10064042889642145","0","","","","","",""
"","do_trial","480","2409297","0.0-455.0-0.0","430.19999998807907","","","","50","1,1,0","6","blank","408","null","0.685118944737601","0.4484839770021939","0.10340316991759521","1","","","","","",""
