"success","trial_type","trial_index","time_elapsed","internal_node_id","rt","stimulus","key_press","subject_id","response","choice_outcomes","context_n","context_img_id","trial_n","probe_img_id","pR_red","pR_white","pR_black","outcome","is_valid","image_to_show","probed_trial","probed_context","correct","context_id"
"true","fullscreen","0","3950","0.0-0.0","","","","","","","","","","","","","","","","","","","",""
"","pavlovia","1","3953","0.0-1.0","","","","","","","","","","","","","","","","","","","",""
"","html-keyboard-response","2","21390","0.0-2.0","18224.900000095367","<div class='center'><p>Welcome! This experiment will last ~1 hour. In this experiment, you are the head captain of a pirate ship traveling around the world to different places. You will complete several different tasks during this experiment. Here is an overview of these tasks:</p><br><p>1. Tutorial and quiz</p><p>2. Pick a pirate game in 6 different places</p><p>3. Pick a pirate game and memory game</p><p>4. Final questions and payment</p><br><p>If you complete the entire experiment, you will receive $15 and a possible bonus payment.</p><p><b>[Press the space bar to begin the tutorial]</b></p></div>","32","60fd91a262d0675da55aae6c","","","","","","","","","","","","","","","",""
"","html-keyboard-response","3","34387","0.0-3.0","12995.199999809265","<div class='center'><p>You are the head captain of a pirate ship.</p><p> Your pirates rob other ships as they leave the marketplace port.</p> These ships have just sold all their goods at the marketplace, so they have lots and lots of gold on them.</p><p><img src='run_exp/static/images/ship_center.png' height='400'></p><p><b>[Press the space bar to continue]</b></p></div>","32","","","","","","","","","","","","","","","","",""
"","html-keyboard-response","4","50936","0.0-4.0","16548.099999904633","<div class='center'><p>As the head captain, you do not have to rob any ships yourself.</p><p>You get to choose which pirate you want to rob the next ship. </p><p>If they are successful at robbing the ship, then you will get gold coins.</p><p> If they are not successful, then you will get no gold coins.</p><p> The more coins you collect, the more bonus money you will win. So, choose your pirate wisely.</p><p><img src='run_exp/static/images/goal.png' height='400'></p><p><b>[Press the space bar to continue]</b></p><div>","32","","","","","","","","","","","","","","","","",""
"","html-keyboard-response","5","64925","0.0-5.0","13987","<div class='center'><p>Even the most skilled pirate will not be able to rob EVERY ship.</p><p> Some ships will have very strong defenses against attacks.</p><p> For example, blue beard, here,  is very good at robbing ships.</p><p> You can press the <b>‘1’</b> button on the keyboard to choose him.</p><p> Try choosing him 10 times to see how often he is successful at robbing ships. </p><p><img src='run_exp/static/images/blue.png' height='500'></p></div>","49","","","","","","","","","","","","","","","","",""
"","html-keyboard-response","6","66435","0.0-6.0","null","<br><br><br><br><p><img src='run_exp/static/images/blue_win.png' height='500'></p>","null","","","","","","","","","","","","","","","","",""
"","html-keyboard-response","7","67395","0.0-7.0","959.9000000953674","<br><br><br><br><p><img src='run_exp/static/images/blue.png' height='500'></p>","49","","","","","","","","","","","","","","","","",""
"","html-keyboard-response","8","68913","0.0-8.0","null","<br><br><br><br><p><img src='run_exp/static/images/blue_win.png' height='500'></p>","null","","","","","","","","","","","","","","","","",""
"","html-keyboard-response","9","69533","0.0-9.0","619.2999997138977","<br><br><br><br><p><img src='run_exp/static/images/blue.png' height='500'></p>","49","","","","","","","","","","","","","","","","",""
"","html-keyboard-response","10","71044","0.0-10.0","null","<br><br><br><br><p><img src='run_exp/static/images/blue_win.png' height='500'></p>","null","","","","","","","","","","","","","","","","",""
"","html-keyboard-response","11","71616","0.0-11.0","570.8999996185303","<br><br><br><br><p><img src='run_exp/static/images/blue.png' height='500'></p>","49","","","","","","","","","","","","","","","","",""
"","html-keyboard-response","12","73128","0.0-12.0","null","<br><br><br><br><p><img src='run_exp/static/images/blue_no_win.png' height='500'></p>","null","","","","","","","","","","","","","","","","",""
"","html-keyboard-response","13","73416","0.0-13.0","287.59999990463257","<br><br><br><br><p><img src='run_exp/static/images/blue.png' height='500'></p>","49","","","","","","","","","","","","","","","","",""
"","html-keyboard-response","14","74932","0.0-14.0","null","<br><br><br><br><p><img src='run_exp/static/images/blue_win.png' height='500'></p>","null","","","","","","","","","","","","","","","","",""
"","html-keyboard-response","15","75169","0.0-15.0","235.09999990463257","<br><br><br><br><p><img src='run_exp/static/images/blue.png' height='500'></p>","49","","","","","","","","","","","","","","","","",""
"","html-keyboard-response","16","76685","0.0-16.0","null","<br><br><br><br><p><img src='run_exp/static/images/blue_win.png' height='500'></p>","null","","","","","","","","","","","","","","","","",""
"","html-keyboard-response","17","76914","0.0-17.0","228","<br><br><br><br><p><img src='run_exp/static/images/blue.png' height='500'></p>","49","","","","","","","","","","","","","","","","",""
"","html-keyboard-response","18","78418","0.0-18.0","null","<br><br><br><br><p><img src='run_exp/static/images/blue_win.png' height='500'></p>","null","","","","","","","","","","","","","","","","",""
"","html-keyboard-response","19","78663","0.0-19.0","244.59999990463257","<br><br><br><br><p><img src='run_exp/static/images/blue.png' height='500'></p>","49","","","","","","","","","","","","","","","","",""
"","html-keyboard-response","20","80167","0.0-20.0","null","<br><br><br><br><p><img src='run_exp/static/images/blue_no_win.png' height='500'></p>","null","","","","","","","","","","","","","","","","",""
"","html-keyboard-response","21","80409","0.0-21.0","239.90000009536743","<br><br><br><br><p><img src='run_exp/static/images/blue.png' height='500'></p>","49","","","","","","","","","","","","","","","","",""
"","html-keyboard-response","22","81921","0.0-22.0","null","<br><br><br><br><p><img src='run_exp/static/images/blue_win.png' height='500'></p>","null","","","","","","","","","","","","","","","","",""
"","html-keyboard-response","23","82166","0.0-23.0","244","<br><br><br><br><p><img src='run_exp/static/images/blue.png' height='500'></p>","49","","","","","","","","","","","","","","","","",""
"","html-keyboard-response","24","83673","0.0-24.0","null","<br><br><br><br><p><img src='run_exp/static/images/blue_win.png' height='500'></p>","null","","","","","","","","","","","","","","","","",""
"","html-keyboard-response","25","85796","0.0-25.0","2122.4000000953674","<div class='center'><p> See, he was successful at robbing the ships most of the time but not every time. </p><p><b>[Press the space bar to continue]</b></p></div>","32","","","","","","","","","","","","","","","","",""
"","html-keyboard-response","26","92991","0.0-26.0","7192.599999904633","<div class='center'><p>In the game, you will get to choose which of three pirates you want to rob the next ship. <p>Press the <b>‘1’</b> button on your keyboard to pick the pirate with the red beard.</p><p> Press <b>‘2’</b> to pick the pirate with the white beard.</p><p> Press <b>‘3’</b> to pick the pirate with the black beard.</p><p>Try picking a pirate now!</p><p><img src='run_exp/static/images/all_pirates.png' height='500'></p></div>","50","","","","","","","","","","","","","","","","",""
"","html-keyboard-response","27","95816","0.0-27.0-0.0","2823.5","<div class='center'><p>This pirate was successful at robbing the ship!</p><p><img src='run_exp/static/images/white_win.png' height='500'></p><p><b>[Press the space bar to continue]</b></p></div>","32","","","","","","","","","","","","","","","","",""
"","html-keyboard-response","28","97383","0.0-27.0-1.0","1566.1999998092651","<div class='center'><p>Now try choosing another</p><p><img src='run_exp/static/images/all_pirates.png' height='500'></p></div>","49","","","","","","","","","","","","","","","","",""
"","html-keyboard-response","29","99054","0.0-28.0-0.0","1668.5999999046326","<div class='center'><p>This pirate was not successful at robbing the ship!</p><p><img src='run_exp/static/images/red_no_win.png' height='500'></p><p><b>[Press the space bar to continue]</b></p></div>","32","","","","","","","","","","","","","","","","",""
"","html-keyboard-response","30","103523","0.0-29.0-0.0","4468.5","<div class='center'><p>You’ll stop at these 6 places on your journey.</p><p><img src='run_exp/static/images/all_contexts.png' height='500'></p><p><b>[Press the space bar to continue]</b></p></div>","32","","","","","","","","","","","","","","","","",""
"","html-keyboard-response","31","110443","0.0-29.0-1.0","6919.300000190735","<div class='center'><p>How good a pirate is at robbing ships will depend on the current place.</p><p> Some pirates will have been to the place before, and will have more experience robbing ships there.</p><p>So, they will be more successful at stealing gold and bringing it back to you.</p><p><b>[Press the space bar to continue]</b></p></div>","32","","","","","","","","","","","","","","","","",""
"","html-keyboard-response","32","120963","0.0-29.0-2.0","10518.5","<div class='center'><p>How successful a pirate is at robbing ships can also change in a place.<p> Ships may hear about the pirates coming and will improve their defenses. This may make it more difficult to rob them.</p><p> Ships may also grow lazy and lower their defenses. This may make it easier to rob them.</p><br><p>Things are always changing on the high seas! So, try your best to pay attention!</p><p><img src='run_exp/static/images/contingency.png' height='500'></p><p><b>[Press the space bar to continue]</b></p></div>","32","","","","","","","","","","","","","","","","",""
"","html-keyboard-response","33","153966","0.0-29.0-3.0","33001.2999997139","<div class='center'><p>Once you choose a pirate to rob a ship, you’ll be shown the ship they are robbing.</p><p>The ship will have a picture of the item they sold at the marketplace.</p><p> Try your best to remember the ship and where you saw the ship.</p><p> You’ll have to remember this for later, and remembering this correctly will help you win more bonus money!</p><p>You can remember the ship by remembering the item they sold at the marketplace</p><p>A helpful strategy is to try to come up with a story of the chosen pirate and ship’s item interacting with the scene.</p><p> For example, a ship might have sold travel mugs and you could imagine red beard walking through the city with a travel mug. </p><p>Or imagine an apple falling from a tree into white beard's hands in the forest.</p><p><img src='run_exp/static/images/example_probe.png' height='500'></p><p><b>[Press the space bar to continue]</b></p></div>","32","","","","","","","","","","","","","","","","",""
"","html-keyboard-response","34","160243","0.0-29.0-4.0","6274.60000038147","<div class='center'><p>If you don’t make your choice fast enough, you’ll have to wait a few seconds before you can make another one. </p><p>You can’t win more gold. You just have to sit and wait.</p><p><img src='run_exp/static/images/hurry_up.png' height='500'></p><p><b>[Press the space bar to continue]</b></p></div>","32","","","","","","","","","","","","","","","","",""
"","html-keyboard-response","35","188874","0.0-29.0-5.0","28630.099999904633","<div class='center'><p>Again, you have two important things to do: </p><b><p> 1. Pick the pirate who you think will be most successful at robbing the next ship.</p></b><b><p> 2. Remember where a pirate robbed a ship.</p> </b><p>Both are important in determining how much bonus money you’ll win.</p><br><p>Let’s try a practice game. The game will start by showing you the pirates. First pick a pirate using the <b> 1, 2, 3 </b> buttons on your keyboard. When you are shown a ship, try to remember the place you’re in by making up a story.</p><p> You only have 3 seconds to pick a pirate, so please make a choice quickly! If you are too slow, you’ll have to wait a bit during the time out.</p><p> Don’t feel rushed, but please do try to make a choice every time.</p><p>How good a pirate is at robbing a ship will change depending on the place they are in and how good the defenses are of the ship.</p> <p>This is just a practice game, so you’re not playing for money. </p><p>You’ll receive a bag which may or may not contain gold coins.</p><p> In the real game, though, you’ll be able to see whether or not you received the gold coins.</p><p> Good luck, remember press <b>'1'</b> to choose red beard, <b>'2'</b> to choose white beard, and <b>'3'</b> to choose black beard</p><p><b>[Press the space bar to begin the practice game]</b></p></div>","32","","","","","","","","","","","","","","","","",""
"","do_trial_prac","36","195018","0.0-29.0-6.0","1631","","","","50","","","","","","","","","","","","","","",""
"","do_trial_prac","37","201037","0.0-29.0-7.0","null","","","","null","","","","","","","","","","","","","","",""
"","do_trial_prac","38","206040","0.0-29.0-8.0","480.5","","","","51","","","","","","","","","","","","","","",""
"","do_trial_prac","39","211679","0.0-29.0-9.0","1133.1999998092651","","","","49","","","","","","","","","","","","","","",""
"","do_trial_prac","40","217228","0.0-29.0-10.0","1038.7999997138977","","","","50","","","","","","","","","","","","","","",""
"","html-keyboard-response","41","222007","0.0-29.0-11.0","4778.5","<div class='center'><p>Great job on the practice game!</p><p> Now, you will be asked you some true or false questions to make sure you really understand the rules of the game.</p><p> Press <b>'1'</b> on the keyboard for true and press <b>'2'</b> for false.</p><p><b>[Press the space bar to begin the quiz]</b></p></div>","32","","","","","","","","","","","","","","","","",""
"","html-keyboard-response","42","225953","0.0-29.0-12.0","3944.800000190735","<div class='center'><p>You win bonus money by making choices as fast as possible.</p><p>Press 1 for true and press  2 for false.</p></div>","50","","","","","","","","","","","","","","","","",""
"","html-keyboard-response","43","227729","0.0-30.0-0.0","1774.5","<br><br><br><br><p>That's correct!</p> <p><b>[press the space bar to continue with the quiz]</b></p>","32","","","","","","","","","","","","","","","","",""
"","html-keyboard-response","44","232128","0.0-30.0-1.0","4398","<div class='center'><p>You press the <b>‘3’</b> button on the keyboard to choose the red bearded pirate? </p><p>Press 1 for true and press  2 for false.</p></div>","50","","","","","","","","","","","","","","","","",""
"","html-keyboard-response","45","232981","0.0-31.0-0.0","852.1999998092651","<br><br><br><br><p>That's correct!</p> <p><b>[press the space bar to continue with the quiz]</b></p>","32","","","","","","","","","","","","","","","","",""
"","html-keyboard-response","46","235020","0.0-31.0-1.0","2037.7000002861023","<div class='center'><p>A pirate will always be equally successful at robbing ships in each place</p><p>Press 1 for true and press  2 for false.</p></div>","50","","","","","","","","","","","","","","","","",""
"","html-keyboard-response","47","235808","0.0-32.0-0.0","786.1999998092651","<br><br><br><br><p>That's correct!</p> <p><b>[press the space bar to continue with the quiz]</b></p>","32","","","","","","","","","","","","","","","","",""
"","html-keyboard-response","48","238083","0.0-32.0-1.0","2274.0999999046326","<div class='center'><p>You should remember the place where a pirate robbed a ship.</p><p>Press 1 for true and press  2 for false.</p></div>","49","","","","","","","","","","","","","","","","",""
"","html-keyboard-response","49","238822","0.0-33.0-0.0","716.5999999046326","<br><br><br><br><p>That's correct!</p> <p><b>[press the space bar to continue with the quiz]</b></p>","32","","","","","","","","","","","","","","","","",""
"","html-keyboard-response","50","240947","0.0-34.0-0.0","2123.0999999046326","<br><br><br><br><p>Good job! You’re now ready to move on to the real game!</p> <p><br>[press the space bar to begin!]</br></p>","32","","","","","","","","","","","","","","","","",""
"","do_welcome","51","242456","0.0-35.0-0.0","null","","","","null","","","","","","","","","","","","","","",""
"","do_trial","52","249020","0.0-36.0-0.0","1007.9000000953674","","","","49","1,1,0","0","city","0","probe-167","1","0.4","0.1","1","","","","","",""
"","do_trial","53","255688","0.0-37.0-0.0","1113.4000000953674","","","","49","1,1,0","0","city","1","probe-49","1","0.3639256704578613","0.08938681356037684","1","","","","","",""
"","do_trial","54","261936","0.0-38.0-0.0","704.0999999046326","","","","50","1,1,1","0","city","2","probe-60","1","0.2695771810012715","0.17989431958925814","1","","","","","",""
"","do_trial","55","268777","0.0-39.0-0.0","1296.9000000953674","","","","51","1,0,0","0","city","3","probe-152","1","0.275945374303537","0.16762487808419227","0","","","","","",""
"","do_trial","56","276021","0.0-40.0-0.0","1675.8000001907349","","","","50","1,0,0","0","city","4","probe-88","0.8975576078424103","0.4146114765130626","0.1324356120726783","0","","","","","",""
"","do_trial","57","281860","0.0-41.0-0.0","294.7000002861023","","","","49","1,0,0","0","city","5","probe-58","0.8754706993066351","0.35347828499920647","0.06539456219280201","1","","","","","",""
"","do_trial","58","287682","0.0-42.0-0.0","273.30000019073486","","","","49","1,0,0","0","city","6","probe-161","0.8754529271297526","0.18411919259417","0.09152479572448817","1","","","","","",""
"","do_trial","59","293804","0.0-43.0-0.0","573.0999999046326","","","","49","1,0,0","0","city","7","probe-130","0.9012577296047494","0.2371380415890338","0.11947725910346041","1","","","","","",""
"","do_trial","60","300309","0.0-44.0-0.0","948.5999999046326","","","","49","0,0,0","0","city","8","probe-214","0.9476299365202441","0.2659917714564603","0.13612995554760832","0","","","","","",""
"","do_trial","61","306373","0.0-45.0-0.0","521.6999998092651","","","","50","1,1,0","0","city","9","probe-146","0.8517772677134641","0.40189468856659477","0.20475476461922631","1","","","","","",""
"","do_trial","62","312226","0.0-46.0-0.0","303.30000019073486","","","","50","0,1,0","0","city","10","probe-13","0.6461485033123262","0.638961936746959","0.16507185162275928","1","","","","","",""
"","do_trial","63","318402","0.0-47.0-0.0","624.3000001907349","","","","50","1,1,0","0","city","11","probe-71","0.522375055841674","0.6635262007199212","0.3917874604546527","1","","","","","",""
"","do_trial","64","324356","0.0-48.0-0.0","404.80000019073486","","","","49","1,0,0","0","city","12","probe-125","0.5127109176414286","0.6097891531114715","0.25790739875599433","1","","","","","",""
"","do_trial","65","330172","0.0-49.0-0.0","259.59999990463257","","","","49","0,1,0","0","city","13","probe-32","0.5374943264664577","0.5566051571525449","0.2006868654263838","0","","","","","",""
"","do_trial","66","336026","0.0-50.0-0.0","299.3999996185303","","","","50","1,1,0","0","city","14","probe-43","0.5696043384250588","0.6393865584473504","0.06018713082252362","1","","","","","",""
"","do_trial","67","342350","0.0-51.0-0.0","773.5","","","","50","0,0,0","0","city","15","probe-168","0.6530396996957901","0.6417876525402572","0.09394172589450783","0","","","","","",""
"","do_trial","68","348209","0.0-52.0-0.0","310.6000003814697","","","","49","1,0,0","0","city","16","probe-40","0.60281964540148","0.4878950138723754","0.12427928713919513","1","","","","","",""
"","do_trial","69","354262","0.0-53.0-0.0","508.7000002861023","","","","49","0,1,0","0","city","17","probe-169","0.45882184856392566","0.5637231701168272","0.06526148077396757","0","","","","","",""
"","do_trial","70","360118","0.0-54.0-0.0","300.7000002861023","","","","50","1,0,0","0","city","18","probe-217","0.45785047968605114","0.666201209329859","0.05165001601787975","0","","","","","",""
"","do_trial","71","366104","0.0-55.0-0.0","441.90000009536743","","","","49","1,0,0","0","city","19","probe-55","0.5121062969810933","0.7883175294644821","0.0935200883113808","1","","","","","",""
"","do_trial","72","372146","0.0-56.0-0.0","478.7999997138977","","","","51","1,1,0","0","city","20","probe-212","0.5866992549451623","0.7537030001090034","0.11086306113171651","0","","","","","",""
"","do_trial","73","378243","0.0-57.0-0.0","542.1999998092651","","","","49","1,0,0","0","city","21","probe-171","0.41220589871506746","0.763169977886393","0.15286779396584885","1","","","","","",""
"","do_trial","74","384009","0.0-58.0-0.0","223.7000002861023","","","","50","1,1,1","0","city","22","probe-114","0.4446539474346849","0.7215116127780056","0.308881675502046","1","","","","","",""
"","do_trial","75","390182","0.0-59.0-0.0","620.4000000953674","","","","50","0,1,0","0","city","23","probe-93","0.5570789019837867","0.7232583568591875","0.20648286185298326","1","","","","","",""
"","do_trial","76","396437","0.0-60.0-0.0","704.6999998092651","","","","49","0,1,0","0","city","24","probe-99","0.4511318311238445","0.7682906624641933","0.2299489126112655","0","","","","","",""
"","do_trial","77","402578","0.0-61.0-0.0","591.5999999046326","","","","49","0,1,1","0","city","25","probe-200","0.5018896448079706","0.7533337499467156","0.20892602767959834","0","","","","","",""
"","do_trial","78","408386","0.0-62.0-0.0","258.5","","","","50","0,1,0","0","city","26","probe-158","0.4213033612917888","0.7714639950404296","0.16808415762407528","1","","","","","",""
"","do_trial","79","414191","0.0-63.0-0.0","249.10000038146973","","","","50","0,1,0","0","city","27","probe-86","0.33982683280541387","0.6963667228226836","0.11190884691564304","1","","","","","",""
"","do_trial","80","420065","0.0-64.0-0.0","321.19999980926514","","","","50","0,1,0","0","city","28","probe-34","0.3294949673525718","0.9075840572183534","0.07402344527442557","1","","","","","",""
"","do_trial","81","425948","0.0-65.0-0.0","338.2999997138977","","","","50","0,1,0","0","city","29","probe-83","0.44716886951333323","0.8493918626457232","0.20641561350379378","1","","","","","",""
"","do_trial","82","431764","0.0-66.0-0.0","266","","","","49","0,0,0","0","city","30","probe-211","0.4097877315485884","0.8089520146024739","0.21350715841040463","0","","","","","",""
"","do_trial","83","437984","0.0-67.0-0.0","675","","","","50","0,1,1","0","city","31","probe-75","0.4266455273303518","0.8717946025681812","0.30072357025174035","1","","","","","",""
"","do_trial","84","443801","0.0-68.0-0.0","261.90000009536743","","","","50","1,1,0","0","city","32","probe-106","0.42938346671261096","0.7084295287614198","0.18014480578184164","1","","","","","",""
"","do_trial","85","449720","0.0-69.0-0.0","368.09999990463257","","","","50","0,1,0","0","city","33","probe-63","0.38169129081085074","0.7606764340439174","0.17756934522096832","1","","","","","",""
"","do_trial","86","455750","0.0-70.0-0.0","472.30000019073486","","","","50","1,1,0","0","city","34","probe-28","0.3711283419003729","0.687950516405972","0.2200647900258499","1","","","","","",""
"","do_trial","87","461611","0.0-71.0-0.0","315.09999990463257","","","","49","0,1,0","0","city","35","probe-215","0.41571397568949237","0.6178969981851945","0.2267241228034962","0","","","","","",""
"","do_trial","88","467517","0.0-72.0-0.0","361.7000002861023","","","","50","0,1,0","0","city","36","probe-90","0.48566787642495635","0.8036100244379837","0.10605093639447187","1","","","","","",""
"","do_trial","89","473496","0.0-73.0-0.0","422.2999997138977","","","","50","0,1,0","0","city","37","probe-153","0.5113569202791278","0.8411844696842415","0.052635619711360826","1","","","","","",""
"","do_trial","90","479950","0.0-74.0-0.0","896.6999998092651","","","","50","0,1,0","0","city","38","probe-144","0.5297874582831047","0.7323985672843546","0.1012299138237749","1","","","","","",""
"","do_trial","91","485794","0.0-75.0-0.0","291","","","","50","1,1,0","0","city","39","probe-229","0.44686018550429507","0.7572453695992786","0.16515022023277148","1","","","","","",""
"","do_bye","92","487314","0.0-76.0-0.0","null","","","","null","","","","","","","","","","","","","","",""
"","do_travel","93","493323","0.0-77.0-0.0","null","","","","null","","","","","","","","","","","","","","",""
"","do_welcome","94","494831","0.0-77.0-1.0","null","","","","null","","","","","","","","","","","","","","",""
"","do_trial","95","500912","0.0-78.0-0.0","null","","","","null","1,1,0","1","mountain","40","probe-135","0.3559806552752143","1","0.26010545434215127","","","","","","",""
"","do_trial","96","506744","0.0-79.0-0.0","277.90000009536743","","","","49","0,1,0","1","mountain","41","probe-134","0.3536645257777361","1","0.27894996036209185","0","","","","","",""
"","do_trial","97","512598","0.0-80.0-0.0","303","","","","51","0,1,0","1","mountain","42","probe-101","0.2971590769560148","1","0.27993251975559036","0","","","","","",""
"","do_trial","98","518369","0.0-81.0-0.0","218","","","","50","0,1,0","1","mountain","43","probe-04","0.2894660140479584","1","0.15018388704701496","1","","","","","",""
"","do_trial","99","523926","0.0-82.0-0.0","2.799999713897705","","","","50","0,1,0","1","mountain","44","probe-155","0.1790205348966278","0.9084965003520418","0.27188288418686796","1","","","","","",""
"","do_trial","100","529742","0.0-83.0-0.0","269.6000003814697","","","","50","0,0,1","1","mountain","45","probe-235","0.30093512278803974","0.7697311432046413","0.17272007698690905","0","","","","","",""
"","do_trial","101","535610","0.0-84.0-0.0","319.90000009536743","","","","51","0,1,0","1","mountain","46","probe-236","0.16166854486876114","0.6864372704035665","0.12868183614240417","0","","","","","",""
"","do_trial","102","541405","0.0-85.0-0.0","242.40000009536743","","","","49","1,1,0","1","mountain","47","probe-44","0.4492342664594726","0.74037439672809","0.09865384692257927","1","","","","","",""
"","do_trial","103","547162","0.0-86.0-0.0","202.5","","","","49","1,1,1","1","mountain","48","probe-91","0.5009377124636533","0.7895815539343388","0.16388202312144604","1","","","","","",""
"","do_trial","104","552915","0.0-87.0-0.0","209.7000002861023","","","","50","0,0,0","1","mountain","49","probe-11","0.5515803748991487","0.8006444482571295","0.19843792993617373","0","","","","","",""
"","do_trial","105","558778","0.0-88.0-0.0","313.90000009536743","","","","49","1,0,0","1","mountain","50","probe-178","0.4273685437165262","0.5242283934923255","0.38384208177274765","1","","","","","",""
"","do_trial","106","564547","0.0-89.0-0.0","226.39999961853027","","","","49","0,0,1","1","mountain","51","probe-08","0.37565346139746425","0.4937073770017697","0.6616266529794761","0","","","","","",""
"","do_trial","107","570364","0.0-90.0-0.0","274.7000002861023","","","","50","0,0,1","1","mountain","52","probe-70","0.2970862452001974","0.43553072141356547","0.7479048787986802","0","","","","","",""
"","do_trial","108","576790","0.0-91.0-0.0","881.2999997138977","","","","51","0,1,0","1","mountain","53","probe-80","0.16786965006735852","0.4368441329499895","0.84629288833594","0","","","","","",""
"","do_trial","109","582817","0.0-92.0-0.0","473.80000019073486","","","","49","0,0,1","1","mountain","54","probe-177","0.07073596790092411","0.37339352621511607","0.8665682650661398","0","","","","","",""
"","do_trial","110","588627","0.0-93.0-0.0","267.5","","","","50","0,0,1","1","mountain","55","probe-174","0.06511768428227124","0.37030349773351406","0.8096821322521806","0","","","","","",""
"","do_trial","111","594850","0.0-94.0-0.0","660.6999998092651","","","","49","0,1,1","1","mountain","56","probe-194","0.06939265123420453","0.4524286783318356","0.9283270912819728","0","","","","","",""
"","do_trial","112","601218","0.0-95.0-0.0","810.6000003814697","","","","49","0,1,1","1","mountain","57","probe-81","0.14086762029399907","0.5588649034016957","0.8274926450632014","0","","","","","",""
"","do_trial","113","607019","0.0-96.0-0.0","247.39999961853027","","","","50","0,0,1","1","mountain","58","probe-149","0.2875119194075474","0.5925669844301649","0.6694564090068805","0","","","","","",""
"","do_trial","114","612871","0.0-97.0-0.0","298.2000002861023","","","","51","0,0,0","1","mountain","59","probe-227","0.3446133110905584","0.5156925294254802","0.7199394882636996","0","","","","","",""
"","do_trial","115","620214","0.0-98.0-0.0","1787.0999999046326","","","","49","0,1,1","1","mountain","60","probe-237","0.27710335496767763","0.3795489298989504","0.7929736015753504","0","","","","","",""
"","do_trial","116","626312","0.0-99.0-0.0","528.0999999046326","","","","49","0,1,0","1","mountain","61","probe-133","0.1924990850885947","0.4596988342499092","0.6938282696476074","0","","","","","",""
"","do_trial","117","632216","0.0-100.0-0.0","361","","","","50","0,1,1","1","mountain","62","probe-68","0.17741243079452446","0.5272420320285408","0.6975654211254042","1","","","","","",""
"","do_trial","118","638122","0.0-101.0-0.0","332.80000019073486","","","","50","0,0,1","1","mountain","63","probe-03","0.08935786334310616","0.4830792150045584","0.689791122903458","0","","","","","",""
"","do_trial","119","644054","0.0-102.0-0.0","365.90000009536743","","","","51","0,1,1","1","mountain","64","probe-09","0.17814624520974362","0.32324045156672815","0.6481838620825624","1","","","","","",""
"","do_trial","120","649854","0.0-103.0-0.0","244.90000009536743","","","","51","0,1,1","1","mountain","65","probe-47","0.10989735168284785","0.33023303706995777","0.7367212820365633","1","","","","","",""
"","do_trial","121","655627","0.0-104.0-0.0","224.09999990463257","","","","51","0,1,1","1","mountain","66","probe-79","0.08250899524270734","0.36446658990876346","0.7620763461846426","1","","","","","",""
"","do_trial","122","661428","0.0-105.0-0.0","256.09999990463257","","","","51","0,0,1","1","mountain","67","probe-183","0.0724202259777701","0.3998568127647378","0.7624632459735636","1","","","","","",""
"","do_trial","123","667473","0.0-106.0-0.0","489.59999990463257","","","","51","0,0,0","1","mountain","68","probe-117","0.13417793896383726","0.3459643336798425","0.8978002991468934","0","","","","","",""
"","do_trial","124","673309","0.0-107.0-0.0","282.69999980926514","","","","50","1,1,1","1","mountain","69","probe-87","0.11386678940602675","0.32607550133710483","0.8872105478455434","1","","","","","",""
"","do_trial","125","679335","0.0-108.0-0.0","472.5","","","","49","1,0,1","1","mountain","70","probe-62","0.15951390230600804","0.2272952251676844","0.8416775438397659","1","","","","","",""
"","do_trial","126","685905","0.0-109.0-0.0","1018.9000000953674","","","","49","1,0,1","1","mountain","71","probe-123","0.1234243912182542","0.4870535164295917","0.826940560813907","1","","","","","",""
"","do_trial","127","692169","0.0-110.0-0.0","715.5999999046326","","","","49","1,1,1","1","mountain","72","probe-147","0.058000860096614225","0.38056565353898336","0.7573987845947302","1","","","","","",""
"","do_trial","128","698009","0.0-111.0-0.0","265.2999997138977","","","","49","0,1,1","1","mountain","73","probe-39","0.09689335872945525","0.4188325630401755","0.870500213992097","0","","","","","",""
"","do_trial","129","704041","0.0-112.0-0.0","484.6000003814697","","","","50","0,0,1","1","mountain","74","probe-223","0.1640961293978603","0.4610609176885646","0.746119385081986","0","","","","","",""
"","do_trial","130","710335","0.0-113.0-0.0","739.9000000953674","","","","51","0,1,1","1","mountain","75","probe-231","0.08620239491364794","0.3736460446531561","0.7162020190630887","1","","","","","",""
"","do_trial","131","716214","0.0-114.0-0.0","329.1000003814697","","","","51","1,0,1","1","mountain","76","probe-225","0.08378946604015479","0.32172712040126655","0.8049664082963283","1","","","","","",""
"","do_trial","132","722415","0.0-115.0-0.0","645.7999997138977","","","","51","0,0,0","1","mountain","77","probe-111","0.08556856831575882","0.3426825215623599","0.9169808503547654","0","","","","","",""
"","do_trial","133","728274","0.0-116.0-0.0","303.8999996185303","","","","50","0,1,1","1","mountain","78","probe-131","0.16292813436095296","0.38555354004251413","0.9047033608894174","1","","","","","",""
"","do_trial","134","734125","0.0-117.0-0.0","298.59999990463257","","","","49","0,1,1","1","mountain","79","probe-193","0.1355167456923327","0.45094692686265675","0.9257942815864513","0","","","","","",""
"","do_bye","135","735639","0.0-118.0-0.0","null","","","","null","","","","","","","","","","","","","","",""
"","do_travel","136","741647","0.0-119.0-0.0","null","","","","null","","","","","","","","","","","","","","",""
"","do_welcome","137","743166","0.0-119.0-1.0","null","","","","null","","","","","","","","","","","","","","",""
"","do_trial","138","749123","0.0-120.0-0.0","404.40000009536743","","","","50","0,0,1","2","coast","80","probe-163","0.17471518946153247","0.469207037520921","1","0","","","","","",""
"","do_trial","139","754925","0.0-121.0-0.0","235.5","","","","51","0,0,1","2","coast","81","probe-218","0.2405087807509576","0.5680971190654633","1","1","","","","","",""
"","do_trial","140","760811","0.0-122.0-0.0","332.19999980926514","","","","51","1,0,1","2","coast","82","probe-216","0.16015986322848816","0.46612760621747856","1","1","","","","","",""
"","do_trial","141","766635","0.0-123.0-0.0","267.09999990463257","","","","51","0,1,1","2","coast","83","probe-25","0.0781197011375679","0.5232823001017342","1","1","","","","","",""
"","do_trial","142","772424","0.0-124.0-0.0","230.40000009536743","","","","51","0,0,1","2","coast","84","probe-129","0.24499552462826962","0.40606245239999783","0.828542316579884","1","","","","","",""
"","do_trial","143","778149","0.0-125.0-0.0","183.19999980926514","","","","51","0,1,1","2","coast","85","probe-195","0.1735655441005805","0.29681513249089747","0.7559872683034355","1","","","","","",""
"","do_trial","144","784180","0.0-126.0-0.0","465.69999980926514","","","","51","0,0,0","2","coast","86","probe-190","0.07019759397965504","0.25952371086501275","0.7092553663099984","0","","","","","",""
"","do_trial","145","790082","0.0-127.0-0.0","338","","","","51","0,0,1","2","coast","87","probe-21","0.15834441821634587","0.35196761078074185","0.6627925087898041","1","","","","","",""
"","do_trial","146","795893","0.0-128.0-0.0","255.5","","","","51","0,0,0","2","coast","88","probe-48","0.18706718678024797","0.3742586225312387","0.6516189503864647","0","","","","","",""
"","do_trial","147","801988","0.0-129.0-0.0","542.1999998092651","","","","49","1,1,0","2","coast","89","probe-221","0.1087769282463519","0.3432327730429154","0.8681125131385874","1","","","","","",""
"","do_trial","148","808132","0.0-130.0-0.0","596.6999998092651","","","","49","0,1,1","2","coast","90","probe-213","0.08559622117391193","0.3785594610989844","0.7303907300398601","0","","","","","",""
"","do_trial","149","814171","0.0-131.0-0.0","469","","","","50","0,0,1","2","coast","91","probe-76","0.08048503155160307","0.43005360954580296","0.78111244408186","0","","","","","",""
"","do_trial","150","820048","0.0-132.0-0.0","311.19999980926514","","","","50","0,0,1","2","coast","92","probe-97","0.11597555113938565","0.5829446667434516","0.5076741531687984","0","","","","","",""
"","do_trial","151","825758","0.0-133.0-0.0","161.09999990463257","","","","51","0,0,0","2","coast","93","probe-84","0.07931456505721685","0.6177953899964017","0.48009032490332587","0","","","","","",""
"","do_trial","152","831550","0.0-134.0-0.0","236.59999990463257","","","","51","0,0,0","2","coast","94","probe-128","0.05377004919856826","0.7084077115263864","0.41795933432536786","0","","","","","",""
"","do_trial","153","837336","0.0-135.0-0.0","242.40000009536743","","","","49","0,0,1","2","coast","95","probe-138","0.0782617530758782","0.5837933694417644","0.3756238621758587","0","","","","","",""
"","do_trial","154","843069","0.0-136.0-0.0","182.19999980926514","","","","49","0,1,0","2","coast","96","probe-173","0.08369554375171061","0.6081684492169772","0.3778258417951033","0","","","","","",""
"","do_trial","155","848790","0.0-137.0-0.0","167.19999980926514","","","","50","0,0,0","2","coast","97","probe-94","0.09750035575786978","0.5485206189249784","0.42820523966934304","0","","","","","",""
"","do_trial","156","854592","0.0-138.0-0.0","253","","","","51","0,1,0","2","coast","98","probe-56","0.12750063153786406","0.5543987548384106","0.4967951242282724","0","","","","","",""
"","do_trial","157","860817","0.0-139.0-0.0","666.2999997138977","","","","49","0,1,0","2","coast","99","probe-05","0.2502296956063529","0.7195929167798163","0.42440727663819794","0","","","","","",""
"","do_trial","158","866582","0.0-140.0-0.0","220","","","","50","0,1,0","2","coast","100","probe-175","0.2794509610104798","0.423416046576262","0.32293550684625155","1","","","","","",""
"","do_trial","159","872319","0.0-141.0-0.0","188.30000019073486","","","","50","0,1,0","2","coast","101","probe-139","0.2275483555810611","0.5210140926230323","0.19054799680399126","1","","","","","",""
"","do_trial","160","878073","0.0-142.0-0.0","205.59999990463257","","","","50","0,1,1","2","coast","102","probe-64","0.1800535459611663","0.6336740009858499","0.30636273386838947","1","","","","","",""
"","do_trial","161","883873","0.0-143.0-0.0","250.60000038146973","","","","50","0,1,0","2","coast","103","probe-78","0.07762062144996483","0.8542079517123409","0.44244902354970933","1","","","","","",""
"","do_trial","162","890429","0.0-144.0-0.0","1000.4000000953674","","","","50","0,0,0","2","coast","104","probe-143","0.24688542913488745","0.8591436721786232","0.3764676118939495","0","","","","","",""
"","do_trial","163","896351","0.0-145.0-0.0","366.80000019073486","","","","51","0,1,1","2","coast","105","probe-105","0.14625204166249645","0.8656298482983361","0.5025747426937904","1","","","","","",""
"","do_trial","164","902368","0.0-146.0-0.0","467.5","","","","51","0,1,1","2","coast","106","probe-42","0.13101981943359148","0.87983483023228","0.3278821122410039","1","","","","","",""
"","do_trial","165","908407","0.0-147.0-0.0","491.59999990463257","","","","51","1,1,0","2","coast","107","probe-109","0.17807471161881616","0.8392955965566093","0.38536514712947195","0","","","","","",""
"","do_trial","166","914177","0.0-148.0-0.0","226.40000009536743","","","","49","1,1,1","2","coast","108","probe-202","0.291823081825219","0.906559709964666","0.35446259945102215","1","","","","","",""
"","do_trial","167","920144","0.0-149.0-0.0","416","","","","50","0,0,0","2","coast","109","probe-132","0.061137542312348074","0.9258882014189084","0.3018242976108486","0","","","","","",""
"","do_trial","168","925984","0.0-150.0-0.0","269.2000002861023","","","","51","0,1,1","2","coast","110","probe-160","0.0940770770194724","0.8837117722086199","0.5125540574785907","1","","","","","",""
"","do_trial","169","932178","0.0-151.0-0.0","648.4000000953674","","","","51","0,1,1","2","coast","111","probe-120","0.07226391471229898","0.8317043096738954","0.4512815526314985","1","","","","","",""
"","do_trial","170","938066","0.0-152.0-0.0","340.7999997138977","","","","51","0,1,0","2","coast","112","probe-205","0.07324080441043346","0.8676360096633832","0.5042987094035957","0","","","","","",""
"","do_trial","171","943911","0.0-153.0-0.0","278.40000009536743","","","","50","0,0,1","2","coast","113","probe-180","0.07180973856299089","0.86066020190592","0.4069697750138913","0","","","","","",""
"","do_trial","172","949688","0.0-154.0-0.0","229.09999990463257","","","","50","0,1,0","2","coast","114","probe-73","0.1615233198597594","0.9060144265651151","0.5037514939550719","1","","","","","",""
"","do_trial","173","955498","0.0-155.0-0.0","261.59999990463257","","","","50","1,0,0","2","coast","115","probe-151","0.17996460852873386","0.9009899855235023","0.4937266880166763","0","","","","","",""
"","do_trial","174","961441","0.0-156.0-0.0","372.5","","","","49","0,1,0","2","coast","116","probe-186","0.10854221825182885","0.9167546326871623","0.3813845901761355","0","","","","","",""
"","do_trial","175","967402","0.0-157.0-0.0","410.19999980926514","","","","49","0,1,0","2","coast","117","probe-201","0.07827794873825888","0.8524661005149277","0.42465789779336355","0","","","","","",""
"","do_trial","176","973176","0.0-158.0-0.0","229.09999990463257","","","","51","0,1,1","2","coast","118","probe-50","0.08261169638260883","0.8960870368855048","0.3819473629425882","1","","","","","",""
"","do_trial","177","979048","0.0-159.0-0.0","299.09999990463257","","","","50","0,1,0","2","coast","119","probe-26","0.06948516646873965","0.7637605876230451","0.32179181788787803","1","","","","","",""
"","do_bye","178","980570","0.0-160.0-0.0","null","","","","null","","","","","","","","","","","","","","",""
"","do_travel","179","986583","0.0-161.0-0.0","null","","","","null","","","","","","","","","","","","","","",""
"","do_welcome","180","988102","0.0-161.0-1.0","null","","","","null","","","","","","","","","","","","","","",""
"","do_trial","181","995565","0.0-162.0-0.0","1915.5","","","","50","0,1,1","3","highway","120","probe-33","0.08420740754817065","1","0.3337125732979886","1","","","","","",""
"","do_trial","182","1001361","0.0-163.0-0.0","247.40000009536743","","","","50","0,1,0","3","highway","121","probe-14","0.08327123592893398","1","0.34184109158843745","1","","","","","",""
"","do_trial","183","1007359","0.0-164.0-0.0","444","","","","50","0,1,0","3","highway","122","probe-61","0.05511370758541363","1","0.3006156899888046","1","","","","","",""
"","do_trial","184","1014007","0.0-165.0-0.0","1099.2999997138977","","","","50","0,1,0","3","highway","123","probe-159","0.1633086850035725","1","0.3857753684493867","1","","","","","",""
"","do_trial","185","1020460","0.0-166.0-0.0","910","","","","50","0,1,0","3","highway","124","probe-137","0.1384069346454443","0.8466952351239944","0.39726007965855353","1","","","","","",""
"","do_trial","186","1026440","0.0-167.0-0.0","433.19999980926514","","","","50","1,0,0","3","highway","125","probe-01","0.07434339307228609","0.8889228685037337","0.5356367047856857","0","","","","","",""
"","do_trial","187","1032215","0.0-168.0-0.0","221.40000009536743","","","","51","0,1,1","3","highway","126","probe-233","0.12688035696791183","0.8786203675082428","0.501264644653545","1","","","","","",""
"","do_trial","188","1038302","0.0-169.0-0.0","539.6999998092651","","","","51","0,1,1","3","highway","127","probe-141","0.15357818341653437","0.7293024140450939","0.4435021282638943","1","","","","","",""
"","do_trial","189","1044184","0.0-170.0-0.0","323.2999997138977","","","","51","0,1,0","3","highway","128","probe-95","0.18452878679481974","0.7112635166066582","0.36827454247697483","0","","","","","",""
"","do_trial","190","1050045","0.0-171.0-0.0","295.59999990463257","","","","51","0,0,1","3","highway","129","probe-18","0.10004815446964177","0.8486768454518293","0.4079640238740765","1","","","","","",""
"","do_trial","191","1055869","0.0-172.0-0.0","261.2999997138977","","","","51","0,1,1","3","highway","130","probe-36","0.16426031667069904","0.7847551687668856","0.6610567941790018","1","","","","","",""
"","do_trial","192","1061668","0.0-173.0-0.0","244","","","","51","0,1,1","3","highway","131","probe-179","0.1642389200686223","0.6673539828693162","0.7482603065055963","1","","","","","",""
"","do_trial","193","1067464","0.0-174.0-0.0","250.09999990463257","","","","51","1,0,0","3","highway","132","probe-119","0.15342837921095964","0.6427588329353252","0.6161199442827627","0","","","","","",""
"","do_trial","194","1074619","0.0-175.0-0.0","1612.2999997138977","","","","51","0,1,1","3","highway","133","probe-228","0.21955389242483855","0.5023790338742611","0.7274906079171842","1","","","","","",""
"","do_trial","195","1080500","0.0-176.0-0.0","329.2000002861023","","","","51","1,0,1","3","highway","134","probe-209","0.16390101293490303","0.3609920730795058","0.6902565864840027","1","","","","","",""
"","do_trial","196","1086300","0.0-177.0-0.0","250","","","","51","0,1,0","3","highway","135","probe-52","0.10186165222339964","0.2697439917233483","0.6702139315337212","0","","","","","",""
"","do_trial","197","1092177","0.0-178.0-0.0","331","","","","49","0,0,0","3","highway","136","probe-232","0.097217417336731","0.3318665331886028","0.8216888943409526","0","","","","","",""
"","do_trial","198","1098019","0.0-179.0-0.0","264.2999997138977","","","","50","0,1,0","3","highway","137","probe-07","0.09394753661392657","0.5403895829779336","0.7537348728518798","1","","","","","",""
"","do_trial","199","1103854","0.0-180.0-0.0","287.80000019073486","","","","50","0,1,1","3","highway","138","probe-29","0.197111705358212","0.4133108745212198","0.9162755835549516","1","","","","","",""
"","do_trial","200","1109866","0.0-181.0-0.0","439.2999997138977","","","","50","0,0,1","3","highway","139","probe-166","0.2079187767719193","0.5119395979039252","0.7926469280079238","0","","","","","",""
"","do_trial","201","1115700","0.0-182.0-0.0","281.59999990463257","","","","51","0,0,0","3","highway","140","probe-148","0.08762608302367046","0.47643614766202247","0.8228869879924549","0","","","","","",""
"","do_trial","202","1121747","0.0-183.0-0.0","504.19999980926514","","","","49","0,0,1","3","highway","141","probe-172","0.06937729121184377","0.5126212094830354","0.7734498935146623","0","","","","","",""
"","do_trial","203","1127572","0.0-184.0-0.0","273.19999980926514","","","","50","0,0,1","3","highway","142","probe-122","0.11581180892377566","0.4132950436536649","0.7904837414717959","0","","","","","",""
"","do_trial","204","1133319","0.0-185.0-0.0","189.40000009536743","","","","51","0,0,1","3","highway","143","probe-35","0.10748044327502694","0.26038107753677947","0.8745701724598449","1","","","","","",""
"","do_trial","205","1139122","0.0-186.0-0.0","229.89999961853027","","","","51","0,1,1","3","highway","144","probe-51","0.18531960221924848","0.2712669291291635","0.8729922731936535","1","","","","","",""
"","do_trial","206","1144859","0.0-187.0-0.0","185.19999980926514","","","","51","0,0,1","3","highway","145","probe-196","0.056049863354279895","0.28074353188198886","0.9198290042934197","1","","","","","",""
"","do_trial","207","1150635","0.0-188.0-0.0","206.80000019073486","","","","51","0,1,0","3","highway","146","probe-224","0.061965518648074244","0.24584908965327523","0.7879342904830684","0","","","","","",""
"","do_trial","208","1156616","0.0-189.0-0.0","434.90000009536743","","","","49","0,0,0","3","highway","147","probe-16","0.07028361028048524","0.38670433197828885","0.7042038717473468","0","","","","","",""
"","do_trial","209","1162360","0.0-190.0-0.0","200.5","","","","50","0,0,1","3","highway","148","probe-204","0.16852528683502055","0.21052817442346153","0.7532691474928517","0","","","","","",""
"","do_trial","210","1168081","0.0-191.0-0.0","161","","","","51","1,0,1","3","highway","149","probe-199","0.12197708608217005","0.34120499979643387","0.7300289380774027","1","","","","","",""
"","do_trial","211","1174014","0.0-192.0-0.0","377.6000003814697","","","","51","0,0,1","3","highway","150","probe-207","0.09201514348586481","0.41538342938531353","0.9311912044888038","1","","","","","",""
"","do_trial","212","1179803","0.0-193.0-0.0","240.90000009536743","","","","51","0,0,1","3","highway","151","probe-198","0.14728254434086346","0.3713440343444598","0.7959485804190589","1","","","","","",""
"","do_trial","213","1185587","0.0-194.0-0.0","214.09999990463257","","","","51","1,1,0","3","highway","152","probe-22","0.29717336573810194","0.3591570358274116","0.7536133493647286","0","","","","","",""
"","do_trial","214","1191381","0.0-195.0-0.0","252.09999990463257","","","","50","0,1,0","3","highway","153","probe-112","0.17879000426790626","0.34055506498625393","0.7218186382640326","1","","","","","",""
"","do_trial","215","1197194","0.0-196.0-0.0","267.40000009536743","","","","50","0,0,1","3","highway","154","probe-107","0.23203073102489005","0.4232097688413192","0.7032595587521169","0","","","","","",""
"","do_trial","216","1203220","0.0-197.0-0.0","469.5","","","","50","0,1,1","3","highway","155","probe-57","0.22304144018236585","0.5685790502287877","0.8454307220592874","1","","","","","",""
"","do_trial","217","1209136","0.0-198.0-0.0","370.69999980926514","","","","50","0,0,1","3","highway","156","probe-100","0.07907571449809372","0.553576024072711","0.9099225621700346","0","","","","","",""
"","do_trial","218","1214924","0.0-199.0-0.0","235.5","","","","49","0,0,1","3","highway","157","probe-89","0.11050767490344508","0.4106476398728519","0.9282794359393176","0","","","","","",""
"","do_trial","219","1220759","0.0-200.0-0.0","280.7000002861023","","","","51","1,0,1","3","highway","158","probe-113","0.2210534885871097","0.4490466352861788","0.9197949799628665","1","","","","","",""
"","do_trial","220","1226675","0.0-201.0-0.0","360.5","","","","51","0,0,1","3","highway","159","probe-219","0.22937158730576981","0.4435943928414988","0.9072908116356391","1","","","","","",""
"","do_bye","221","1228198","0.0-202.0-0.0","null","","","","null","","","","","","","","","","","","","","",""
"","do_travel","222","1234217","0.0-203.0-0.0","null","","","","null","","","","","","","","","","","","","","",""
"","do_welcome","223","1235730","0.0-203.0-1.0","null","","","","null","","","","","","","","","","","","","","",""
"","do_trial","224","1241776","0.0-204.0-0.0","500","","","","51","1,1,1","4","forest","160","probe-192","0.257093985156398","0.4329195092416043","1","1","","","","","",""
"","do_trial","225","1247629","0.0-205.0-0.0","306.69999980926514","","","","51","0,0,1","4","forest","161","probe-20","0.20939298503855228","0.4050437877650414","1","1","","","","","",""
"","do_trial","226","1253541","0.0-206.0-0.0","349.59999990463257","","","","51","0,1,1","4","forest","162","probe-176","0.14764519672141696","0.3956988532341497","1","1","","","","","",""
"","do_trial","227","1259422","0.0-207.0-0.0","324.69999980926514","","","","51","1,0,1","4","forest","163","probe-210","0.0793350302702948","0.32791306592695657","1","1","","","","","",""
"","do_trial","228","1265272","0.0-208.0-0.0","294.7000002861023","","","","51","0,0,1","4","forest","164","probe-72","0.09131222550892329","0.3894078883587311","0.8452832739392973","1","","","","","",""
"","do_trial","229","1271084","0.0-209.0-0.0","257.09999990463257","","","","51","0,1,1","4","forest","165","probe-10","0.08521495549108643","0.44278939675042056","0.8452592871335787","1","","","","","",""
"","do_trial","230","1277151","0.0-210.0-0.0","520.2000002861023","","","","51","0,1,0","4","forest","166","probe-226","0.09940865254827115","0.4219142518854936","0.853551234903497","0","","","","","",""
"","do_trial","231","1283069","0.0-211.0-0.0","361.59999990463257","","","","51","0,0,0","4","forest","167","probe-142","0.09867985291422499","0.4132128821777774","0.9031268552312082","0","","","","","",""
"","do_trial","232","1288856","0.0-212.0-0.0","232.69999980926514","","","","50","0,0,1","4","forest","168","probe-116","0.21126650869574257","0.42659707246115147","0.824189921754744","0","","","","","",""
"","do_trial","233","1294634","0.0-213.0-0.0","219.89999961853027","","","","49","0,1,1","4","forest","169","probe-185","0.05109032659437718","0.4629798013877754","0.8333564755285218","0","","","","","",""
"","do_trial","234","1300588","0.0-214.0-0.0","405.19999980926514","","","","51","0,1,0","4","forest","170","probe-206","0.3273959456104731","0.6462229332381548","0.5950568080936203","0","","","","","",""
"","do_trial","235","1306371","0.0-215.0-0.0","228.5","","","","50","1,1,0","4","forest","171","probe-170","0.3773103758690301","0.7584503416351536","0.32849870142347143","1","","","","","",""
"","do_trial","236","1312373","0.0-216.0-0.0","443.69999980926514","","","","50","0,1,0","4","forest","172","probe-121","0.27267625298326953","0.8437138761815058","0.13170765026620587","1","","","","","",""
"","do_trial","237","1319342","0.0-217.0-0.0","1413.1999998092651","","","","50","1,1,0","4","forest","173","probe-98","0.20500456492717475","0.8180626148226966","0.18809714067744313","1","","","","","",""
"","do_trial","238","1325601","0.0-218.0-0.0","712.2999997138977","","","","50","0,1,0","4","forest","174","probe-17","0.16553448042784474","0.8027025982763238","0.2591561931578159","1","","","","","",""
"","do_trial","239","1332027","0.0-219.0-0.0","871.9000000953674","","","","50","0,1,1","4","forest","175","probe-06","0.4026333571143965","0.8656294267249806","0.3065013119683029","1","","","","","",""
"","do_trial","240","1338175","0.0-220.0-0.0","602.0999999046326","","","","50","1,1,0","4","forest","176","probe-238","0.46782672114371776","0.7981458095177295","0.1262386002192851","1","","","","","",""
"","do_trial","241","1343987","0.0-221.0-0.0","247.10000038146973","","","","50","0,1,1","4","forest","177","probe-41","0.4488346260307422","0.7263776394643329","0.26051822202057606","1","","","","","",""
"","do_trial","242","1349956","0.0-222.0-0.0","415.69999980926514","","","","50","1,1,1","4","forest","178","probe-92","0.4063323236318653","0.7868388278145367","0.34425790507112397","1","","","","","",""
"","do_trial","243","1355884","0.0-223.0-0.0","386","","","","50","0,1,1","4","forest","179","probe-19","0.40676981303531323","0.8217942828600915","0.5000171422061158","1","","","","","",""
"","do_trial","244","1361747","0.0-224.0-0.0","306.90000009536743","","","","50","0,1,1","4","forest","180","probe-164","0.3554377825138848","0.945099449998111","0.3340078173152108","1","","","","","",""
"","do_trial","245","1368074","0.0-225.0-0.0","776.7999997138977","","","","50","1,1,1","4","forest","181","probe-69","0.5000852516277332","0.8995093253752144","0.2293270646930261","1","","","","","",""
"","do_trial","246","1374172","0.0-226.0-0.0","532.5","","","","50","0,0,0","4","forest","182","probe-136","0.35270304053082946","0.8008598100828109","0.10889454213424454","0","","","","","",""
"","do_trial","247","1379901","0.0-227.0-0.0","185.89999961853027","","","","49","0,0,0","4","forest","183","probe-150","0.4216261721086892","0.8171097259143361","0.1851222286179782","0","","","","","",""
"","do_trial","248","1385658","0.0-228.0-0.0","208.09999990463257","","","","51","0,1,0","4","forest","184","probe-188","0.3511100745739912","0.6830971683180017","0.18322947059505654","0","","","","","",""
"","do_trial","249","1391488","0.0-229.0-0.0","273.69999980926514","","","","50","1,1,0","4","forest","185","probe-23","0.3543475203244178","0.6980720407793239","0.19563099633565778","1","","","","","",""
"","do_trial","250","1397285","0.0-230.0-0.0","252.40000009536743","","","","50","0,1,0","4","forest","186","probe-77","0.38403383446234585","0.7723550851918414","0.12414688115771208","1","","","","","",""
"","do_trial","251","1403184","0.0-231.0-0.0","345.69999980926514","","","","50","0,1,1","4","forest","187","probe-65","0.30720773568246396","0.7914541080325711","0.1256287602864214","1","","","","","",""
"","do_trial","252","1409025","0.0-232.0-0.0","263.19999980926514","","","","50","1,1,0","4","forest","188","probe-53","0.4211221953171701","0.728628752834395","0.18617735864011487","1","","","","","",""
"","do_trial","253","1414825","0.0-233.0-0.0","250.7999997138977","","","","50","0,0,1","4","forest","189","probe-85","0.3737335602648605","0.7580243858488731","0.23349204099016813","0","","","","","",""
"","do_trial","254","1420524","0.0-234.0-0.0","147.09999990463257","","","","49","0,1,1","4","forest","190","probe-31","0.3093597336375569","0.641858115474342","0.16595090858657713","0","","","","","",""
"","do_trial","255","1426422","0.0-235.0-0.0","348.80000019073486","","","","51","0,1,0","4","forest","191","probe-30","0.30675514409346005","0.7363300997584536","0.09283190682007816","0","","","","","",""
"","do_trial","256","1432566","0.0-236.0-0.0","586.2999997138977","","","","50","0,1,0","4","forest","192","probe-103","0.3549248893771346","0.7652827410712452","0.05096984410901213","1","","","","","",""
"","do_trial","257","1438442","0.0-237.0-0.0","309.80000019073486","","","","49","1,1,0","4","forest","193","probe-165","0.2136972317703264","0.7590572830839694","0.1056073029409862","1","","","","","",""
"","do_trial","258","1444278","0.0-238.0-0.0","292.2000002861023","","","","49","0,1,0","4","forest","194","probe-12","0.36721552656370376","0.7051511784134121","0.08616753149294941","0","","","","","",""
"","do_trial","259","1449858","0.0-239.0-0.0","23.399999618530273","","","","51","0,1,0","4","forest","195","probe-220","0.3327390086442445","0.923496226624904","0.10665137527969928","0","","","","","",""
"","do_trial","260","1455722","0.0-240.0-0.0","308.30000019073486","","","","50","1,1,0","4","forest","196","probe-162","0.392997918870857","0.8403206036621493","0.05603568732151503","1","","","","","",""
"","do_trial","261","1462056","0.0-241.0-0.0","764.4000000953674","","","","50","1,1,0","4","forest","197","probe-67","0.43050592272797134","0.8108558805979412","0.05199605622866839","1","","","","","",""
"","do_trial","262","1467886","0.0-242.0-0.0","275.80000019073486","","","","50","1,1,0","4","forest","198","probe-181","0.2625799684205947","0.8145012069617222","0.09413907696182722","1","","","","","",""
"","do_trial","263","1473671","0.0-243.0-0.0","234.5","","","","50","0,0,0","4","forest","199","probe-126","0.40823892961388836","0.767217502570343","0.16403237991128436","0","","","","","",""
"","do_bye","264","1475188","0.0-244.0-0.0","null","","","","null","","","","","","","","","","","","","","",""
"","do_travel","265","1481197","0.0-245.0-0.0","null","","","","null","","","","","","","","","","","","","","",""
"","do_welcome","266","1482710","0.0-245.0-1.0","null","","","","null","","","","","","","","","","","","","","",""
"","do_trial","267","1489445","0.0-246.0-0.0","1184.7999997138977","","","","50","0,1,0","5","countryside","200","probe-59","0.3512476759510442","1","0.1696102989472019","1","","","","","",""
"","do_trial","268","1495144","0.0-247.0-0.0","144.30000019073486","","","","50","0,1,0","5","countryside","201","probe-102","0.43992783727806506","1","0.09685802214118047","1","","","","","",""
"","do_trial","269","1500955","0.0-248.0-0.0","241.5","","","","50","1,1,0","5","countryside","202","probe-115","0.5143456367045525","1","0.05838698017156532","1","","","","","",""
"","do_trial","270","1506838","0.0-249.0-0.0","329.90000009536743","","","","50","0,1,0","5","countryside","203","probe-104","0.517965688608437","1","0.09872895884276936","1","","","","","",""
"","do_trial","271","1512721","0.0-250.0-0.0","331","","","","50","1,1,1","5","countryside","204","probe-208","0.5438143431883264","0.9046962186321783","0.09206636500136442","1","","","","","",""
"","do_trial","272","1519416","0.0-251.0-0.0","1124.5","","","","50","0,0,0","5","countryside","205","probe-82","0.6303547048126669","0.7372051573903314","0.06224266849485735","0","","","","","",""
"","do_trial","273","1525447","0.0-252.0-0.0","474.7999997138977","","","","49","1,0,0","5","countryside","206","probe-66","0.5305457610399161","0.7452199002039828","0.15214230327797157","1","","","","","",""
"","do_trial","274","1531295","0.0-253.0-0.0","301.69999980926514","","","","49","0,1,0","5","countryside","207","probe-110","0.6133478398107011","0.8872452098135765","0.17577808668038436","0","","","","","",""
"","do_trial","275","1537158","0.0-254.0-0.0","316.5","","","","51","1,1,0","5","countryside","208","probe-54","0.48597393532689326","0.8090171133665278","0.24991609962938144","0","","","","","",""
"","do_trial","276","1542975","0.0-255.0-0.0","261.5","","","","51","0,0,0","5","countryside","209","probe-96","0.4025350552618106","0.7771803313279717","0.22465801464503152","0","","","","","",""
"","do_trial","277","1548826","0.0-256.0-0.0","300.09999990463257","","","","51","1,1,0","5","countryside","210","probe-24","0.3609990279269876","0.5402668694502788","0.42445775667596664","0","","","","","",""
"","do_trial","278","1554475","0.0-257.0-0.0","98.60000038146973","","","","50","0,0,1","5","countryside","211","probe-140","0.3111750691807728","0.4471241867843789","0.7436074921658261","0","","","","","",""
"","do_trial","279","1560355","0.0-258.0-0.0","337.5","","","","49","0,0,0","5","countryside","212","probe-37","0.39395537109071904","0.3047608600163815","0.7631126357105035","0","","","","","",""
"","do_trial","280","1566345","0.0-259.0-0.0","442","","","","51","1,1,0","5","countryside","213","probe-15","0.4987479787146042","0.2915629717396107","0.6941072068665025","0","","","","","",""
"","do_trial","281","1572087","0.0-260.0-0.0","198.60000038146973","","","","50","1,0,1","5","countryside","214","probe-203","0.4001369272842396","0.3459911427344666","0.6587930986273703","0","","","","","",""
"","do_trial","282","1577775","0.0-261.0-0.0","130.10000038146973","","","","49","1,1,1","5","countryside","215","probe-234","0.43644118157088485","0.21963983214474472","0.8008771311463155","1","","","","","",""
"","do_trial","283","1583840","0.0-262.0-0.0","514.0999999046326","","","","49","1,0,1","5","countryside","216","probe-45","0.3599926539546703","0.19591676416408685","0.9005852498891828","1","","","","","",""
"","do_trial","284","1589906","0.0-263.0-0.0","519.1999998092651","","","","49","0,0,1","5","countryside","217","probe-239","0.40238167503058136","0.0996027016031455","0.8475162555145177","0","","","","","",""
"","do_trial","285","1595866","0.0-264.0-0.0","414.30000019073486","","","","49","0,0,0","5","countryside","218","probe-38","0.2832150888560971","0.11405917040607559","0.7869738096864228","0","","","","","",""
"","do_trial","286","1601670","0.0-265.0-0.0","250.90000009536743","","","","50","1,0,1","5","countryside","219","probe-46","0.4240978038002481","0.2379909723269455","0.800769872781263","0","","","","","",""
"","do_trial","287","1607489","0.0-266.0-0.0","261.30000019073486","","","","51","0,0,1","5","countryside","220","probe-191","0.4678355281922434","0.24447203649178356","0.912434878286375","1","","","","","",""
"","do_trial","288","1613328","0.0-267.0-0.0","286.90000009536743","","","","51","1,0,1","5","countryside","221","probe-124","0.3526893515850994","0.19807448619013757","0.755731154266374","1","","","","","",""
"","do_trial","289","1619359","0.0-268.0-0.0","487.2999997138977","","","","51","0,1,1","5","countryside","222","probe-240","0.2483037958360157","0.2242608055704506","0.8473353950832716","1","","","","","",""
"","do_trial","290","1625221","0.0-269.0-0.0","319.2000002861023","","","","51","0,0,1","5","countryside","223","probe-187","0.2869734094308574","0.12565269447629496","0.8058586236136809","1","","","","","",""
"","do_trial","291","1631404","0.0-270.0-0.0","632.2999997138977","","","","51","1,0,0","5","countryside","224","probe-222","0.4538344840691212","0.12764609536782673","0.7623351962323498","0","","","","","",""
"","do_trial","292","1637226","0.0-271.0-0.0","276.90000009536743","","","","50","1,0,1","5","countryside","225","probe-02","0.4612886281777815","0.16402805267454987","0.5790821205673156","0","","","","","",""
"","do_trial","293","1642934","0.0-272.0-0.0","155.80000019073486","","","","49","1,0,1","5","countryside","226","probe-182","0.34670645493481317","0.09301047844071614","0.5625173447890067","1","","","","","",""
"","do_trial","294","1648757","0.0-273.0-0.0","274.40000009536743","","","","49","1,0,1","5","countryside","227","probe-74","0.3394502372605037","0.09016211845217413","0.6535786271896643","1","","","","","",""
"","do_trial","295","1654696","0.0-274.0-0.0","386.2999997138977","","","","49","0,0,1","5","countryside","228","probe-197","0.382421292833921","0.06879654263238301","0.806491350536814","0","","","","","",""
"","do_trial","296","1660544","0.0-275.0-0.0","298.30000019073486","","","","51","1,1,0","5","countryside","229","probe-156","0.40858125177415183","0.1501865535782452","0.7621001350422866","0","","","","","",""
"","do_trial","297","1666409","0.0-276.0-0.0","314.2999997138977","","","","50","1,0,1","5","countryside","230","probe-230","0.40855453168638434","0.285865825015102","0.6993328708963483","0","","","","","",""
"","do_trial","298","1672288","0.0-277.0-0.0","321.19999980926514","","","","49","1,1,1","5","countryside","231","probe-118","0.31665501043048566","0.2039647325525935","0.786994171753141","1","","","","","",""
"","do_trial","299","1678472","0.0-278.0-0.0","631.5999999046326","","","","49","0,1,0","5","countryside","232","probe-154","0.21770178937012535","0.16343305330596916","0.7102876931565656","0","","","","","",""
"","do_trial","300","1684258","0.0-279.0-0.0","240.5","","","","51","0,0,0","5","countryside","233","probe-189","0.2133550544049745","0.23730547257106588","0.7439110237511839","0","","","","","",""
"","do_trial","301","1690066","0.0-280.0-0.0","232.69999980926514","","","","50","0,0,0","5","countryside","234","probe-127","0.30378266612659405","0.056518811311293896","0.7791359043360736","0","","","","","",""
"","do_trial","302","1696442","0.0-281.0-0.0","821.4000000953674","","","","49","0,0,1","5","countryside","235","probe-184","0.34238380868370955","0.1965334266640712","0.8802537648057398","0","","","","","",""
"","do_trial","303","1702258","0.0-282.0-0.0","263.6000003814697","","","","51","0,0,1","5","countryside","236","probe-157","0.39484740653493766","0.2365213573785645","0.6694941125305968","1","","","","","",""
"","do_trial","304","1708181","0.0-283.0-0.0","379.2000002861023","","","","50","1,1,1","5","countryside","237","probe-108","0.42424994322438375","0.08035945408018944","0.6910374253963871","1","","","","","",""
"","do_trial","305","1714019","0.0-284.0-0.0","270.09999990463257","","","","50","1,0,1","5","countryside","238","probe-27","0.4209487018995241","0.11938742099284846","0.7967722454067615","0","","","","","",""
"","do_trial","306","1719794","0.0-285.0-0.0","219.59999990463257","","","","50","0,0,1","5","countryside","239","probe-145","0.4860600506764986","0.12611350663849258","0.9153813398365064","0","","","","","",""
"","do_bye","307","1721310","0.0-286.0-0.0","null","","","","null","","","","","","","","","","","","","","",""
"","html-keyboard-response","308","1727149","0.0-286.0-1.0","5838.099999904633","<div class='center'><p>You may take a break now!</p><p> Stretch for a little bit. Get a glass of water.</p><p> You have two minutes to rest. Then, the game will automatically move on.</p><p>If you’d like to get started on the second half of the experiment sooner, then press the <b>space bar</b></p></div>","32","","","","","","","","","","","","","","","","",""
"","html-keyboard-response","309","1735964","0.0-286.0-2.0","8813.5","<div class='center'><p>You’ve arrived at the final destination of your journey! Unfortunately, it’s very foggy out, so you won’t be able to see it in the distance like in previous places you've visited.</p><p>You’ll still be deciding which pirates you want to rob ships. However, because of the fog you also won’t be able to see the ship in the distance. </p><p><b>[Press the space bar to continue]</b></p></div>","32","","","","","","","","","","","","","","","","",""
"","html-keyboard-response","310","1752513","0.0-286.0-3.0","16546.599999904633","<div class='center'><p> Sometimes you’ll be asked if you’ve seen a ship before (see the example below). You will use the 5, 6, 7, 8 buttons on your keyboard to respond. </p><p> If you definitely did not see the ship, pick the the big red thumbs down by pressing <b>5</b>.</p><p> If you don’t think you saw it but aren’t sure, then pick the small red thumbs down by pressing <b>6</b>.</p><p> If you think you might have seen it, then pick the small green thumbs up by pressing <b>7</b>.</p><p> If you definitely did see this ship before, then pick the big thumb green thumbs up by pressing <b>8</b>.</p><p> If you recall correctly, then you’ll get a gold coin!</p><p><b>[Press the space bar to begin the next phase of the experiment]</b></p><p><img src='run_exp/static/images/example_recog_trial.png' height='500'></p></div>","32","","","","","","","","","","","","","","","","",""
"","do_welcome","311","1754019","0.0-286.0-4.0","null","","","","null","","","","","","","","","","","","","","",""
"","do_trial","312","1759173","0.0-287.0-0.0","1610.7999997138977","","","","49","1,0,1","6","blank","240","null","0.5724118353588462","0.10028812517682868","1","1","","","","","",""
"","do_trial","313","1764907","0.0-288.0-0.0","2170.0999999046326","","","","50","1,0,1","6","blank","241","null","0.6483826455108518","0.14118499699051654","0.880293918906272","0","","","","","",""
"","do_recog","314","1769328","0.0-289.0-0.0","2904.4000000953674","","","","53","","","","242","probe-245","","","","","0","[object Object]","null","null","1",""
"","do_trial","315","1773497","0.0-290.0-0.0","613.6999998092651","","","","50","1,0,1","6","blank","243","null","0.7991752564876169","0.18000086295041165","0.8483380235971625","0","","","","","",""
"","do_trial","316","1778160","0.0-291.0-0.0","1104.5","","","","50","0,0,1","6","blank","244","null","0.6426829792822407","0.17405139436854028","0.9322021315408303","0","","","","","",""
"","do_recog","317","1781988","0.0-292.0-0.0","2315.5999999046326","","","","53","","","","245","probe-14","","","","","1","[object Object]","121","3","0",""
"","do_trial","318","1785987","0.0-293.0-0.0","443.2999997138977","","","","51","1,0,1","6","blank","246","null","0.5169051340704334","0.10681215499780762","0.9108193410613712","1","","","","","",""
"","do_trial","319","1790510","0.0-294.0-0.0","974.4000000953674","","","","49","1,0,1","6","blank","247","null","0.44262091289200656","0.08038323657605874","0.8767464099991732","1","","","","","",""
"","do_trial","320","1794851","0.0-295.0-0.0","782.6999998092651","","","","49","1,0,1","6","blank","248","null","0.18101515741700355","0.057525613331832086","0.7726503934324979","1","","","","","",""
"","do_trial","321","1798883","0.0-296.0-0.0","481","","","","49","0,1,1","6","blank","249","null","0.28628727377986857","0.1272572187531093","0.8107874125495518","0","","","","","",""
"","do_trial","322","1802801","0.0-297.0-0.0","363","","","","51","1,0,0","6","blank","250","null","0.23698198807867485","0.1901352966395837","0.8386361266752222","0","","","","","",""
"","do_trial","323","1806661","0.0-298.0-0.0","314.09999990463257","","","","50","1,0,1","6","blank","251","null","0.28373956614441087","0.12496747051950072","0.7795140954000708","0","","","","","",""
"","do_recog","324","1811231","0.0-299.0-0.0","3062.699999809265","","","","54","","","","252","probe-218","","","","","1","[object Object]","81","2","0",""
"","do_trial","325","1815865","0.0-300.0-0.0","1085.9000000953674","","","","49","0,0,1","6","blank","253","null","0.3409155730940559","0.13451290921794898","0.5578657281357648","0","","","","","",""
"","do_recog","326","1819604","0.0-301.0-0.0","2226.800000190735","","","","54","","","","254","probe-104","","","","","1","[object Object]","203","5","0",""
"","do_trial","327","1824345","0.0-302.0-0.0","1191.7000002861023","","","","51","1,0,0","6","blank","255","null","0.6708280221066688","0.09938065530667112","0.5236487537979213","0","","","","","",""
"","do_trial","328","1828610","0.0-303.0-0.0","707.1999998092651","","","","50","1,0,0","6","blank","256","null","0.7562739606153019","0.11409330982901754","0.6350494753130174","0","","","","","",""
"","do_trial","329","1832431","0.0-304.0-0.0","262.90000009536743","","","","49","1,0,0","6","blank","257","null","0.7200450914146497","0.06626533054358537","0.5347877274809585","1","","","","","",""
"","do_trial","330","1836319","0.0-305.0-0.0","346.40000009536743","","","","50","1,0,0","6","blank","258","null","0.7581763189920829","0.21303434901033655","0.5475965151151977","0","","","","","",""
"","do_trial","331","1840200","0.0-306.0-0.0","318.90000009536743","","","","51","1,0,0","6","blank","259","null","0.7745313889429001","0.10358792059424118","0.47017534292338403","0","","","","","",""
"","do_trial","332","1843996","0.0-307.0-0.0","232.2999997138977","","","","49","1,0,1","6","blank","260","null","0.7604870983806798","0.11194443625030416","0.36941381225082537","1","","","","","",""
"","do_recog","333","1847108","0.0-308.0-0.0","1604.0999999046326","","","","53","","","","261","probe-236","","","","","1","[object Object]","46","1","0",""
"","do_trial","334","1851032","0.0-309.0-0.0","365.7000002861023","","","","50","1,0,0","6","blank","262","null","0.9427917930826564","0.18506460228648638","0.37231841814124883","0","","","","","",""
"","do_recog","335","1853759","0.0-310.0-0.0","1219.7000002861023","","","","53","","","","263","probe-18","","","","","1","[object Object]","129","3","0",""
"","do_trial","336","1857704","0.0-311.0-0.0","403.40000009536743","","","","51","1,0,1","6","blank","264","null","0.9107897728012764","0.059498540249282715","0.5746775730231349","1","","","","","",""
"","do_trial","337","1861552","0.0-312.0-0.0","294","","","","49","1,0,0","6","blank","265","null","0.8634359007303446","0.10764047714337327","0.5486343272893273","1","","","","","",""
"","do_trial","338","1865385","0.0-313.0-0.0","283.69999980926514","","","","50","1,0,0","6","blank","266","null","0.8011333544461","0.17729876723235913","0.5008191527873566","0","","","","","",""
"","do_recog","339","1868021","0.0-314.0-0.0","1117.9000000953674","","","","56","","","","267","probe-04","","","","","1","[object Object]","43","1","1",""
"","do_trial","340","1871975","0.0-315.0-0.0","409.7999997138977","","","","51","1,0,0","6","blank","268","null","0.8565962543023047","0.21377184410781397","0.5656839037654107","0","","","","","",""
"","do_recog","341","1874867","0.0-316.0-0.0","1369.5999999046326","","","","53","","","","269","probe-137","","","","","1","[object Object]","124","3","0",""
"","do_trial","342","1878732","0.0-317.0-0.0","309.69999980926514","","","","49","1,0,1","6","blank","270","null","0.6565935595886275","0.2890624268288805","0.499654173466354","1","","","","","",""
"","do_trial","343","1882540","0.0-318.0-0.0","250.10000038146973","","","","50","1,0,1","6","blank","271","null","0.7678637814819077","0.19724659283130044","0.46024207324309013","0","","","","","",""
"","do_trial","344","1886299","0.0-319.0-0.0","205","","","","51","1,0,1","6","blank","272","null","0.7144291761742853","0.10927532860216665","0.4680965000805633","1","","","","","",""
"","do_recog","345","1888820","0.0-320.0-0.0","1011.2999997138977","","","","53","","","","273","probe-226","","","","","1","[object Object]","166","4","0",""
"","do_trial","346","1893310","0.0-321.0-0.0","941.2999997138977","","","","50","1,0,1","6","blank","274","null","0.7340908018305328","0.05353377051836081","0.45979372837423543","0","","","","","",""
"","do_recog","347","1895777","0.0-322.0-0.0","957.3000001907349","","","","56","","","","275","probe-72","","","","","1","[object Object]","164","4","1",""
"","do_trial","348","1899891","0.0-323.0-0.0","541.5999999046326","","","","49","1,0,0","6","blank","276","null","0.9480027114482599","0.06167659696658974","0.415613222728366","1","","","","","",""
"","do_recog","349","1902555","0.0-324.0-0.0","1151.9000000953674","","","","53","","","","277","probe-208","","","","","1","[object Object]","204","5","0",""
"","do_trial","350","1906919","0.0-325.0-0.0","807.1999998092651","","","","50","1,0,0","6","blank","278","null","0.7451378998139996","0.19023693253565144","0.4668163916380408","0","","","","","",""
"","do_trial","351","1910763","0.0-326.0-0.0","299.80000019073486","","","","51","1,0,0","6","blank","279","null","0.8356188747952724","0.19311795327374584","0.40728971086233856","0","","","","","",""
"","do_recog","352","1913201","0.0-327.0-0.0","921.8999996185303","","","","56","","","","280","probe-216","","","","","1","[object Object]","82","2","1",""
"","do_trial","353","1917346","0.0-328.0-0.0","580","","","","49","1,0,0","6","blank","281","null","0.8830885118655515","0.060062848894261105","0.33751328643383255","1","","","","","",""
"","do_trial","354","1921204","0.0-329.0-0.0","311.30000019073486","","","","50","1,0,1","6","blank","282","null","1","0.09077898450001852","0.35919394956705075","0","","","","","",""
"","do_recog","355","1923929","0.0-330.0-0.0","1212","","","","56","","","","283","probe-241","","","","","0","[object Object]","null","null","0",""
"","do_trial","356","1928321","0.0-331.0-0.0","837.3000001907349","","","","51","1,0,1","6","blank","284","null","0.8705854215121945","0.2253389149931862","0.4158862065872599","1","","","","","",""
"","do_recog","357","1930565","0.0-332.0-0.0","727","","","","56","","","","285","probe-20","","","","","1","[object Object]","161","4","1",""
"","do_trial","358","1934438","0.0-333.0-0.0","330.30000019073486","","","","51","1,0,0","6","blank","286","null","0.8890357184912091","0.25163263582988654","0.2719307236072996","0","","","","","",""
"","do_trial","359","1938359","0.0-334.0-0.0","376.30000019073486","","","","50","1,0,0","6","blank","287","null","0.7735891968927254","0.23954013936430688","0.23527270584849086","0","","","","","",""
"","do_trial","360","1942169","0.0-335.0-0.0","253.2000002861023","","","","49","1,0,0","6","blank","288","null","0.6990621144341427","0.11525911785197775","0.2634886574702183","1","","","","","",""
"","do_trial","361","1946061","0.0-336.0-0.0","338.2999997138977","","","","49","1,0,1","6","blank","289","null","0.8339238262655205","0.05244619862385419","0.39865562248319136","1","","","","","",""
"","do_trial","362","1949863","0.0-337.0-0.0","254.90000009536743","","","","49","1,0,0","6","blank","290","null","0.8788062289952845","0.0815871593203513","0.4223097849875007","1","","","","","",""
"","do_recog","363","1952257","0.0-338.0-0.0","882.2999997138977","","","","56","","","","291","probe-110","","","","","1","[object Object]","207","5","1",""
"","do_trial","364","1956208","0.0-339.0-0.0","404.30000019073486","","","","49","1,0,1","6","blank","292","null","0.8455772609933022","0.07375443380502424","0.44127240799316225","1","","","","","",""
"","do_recog","365","1958665","0.0-340.0-0.0","945.3000001907349","","","","56","","","","293","probe-176","","","","","1","[object Object]","162","4","1",""
"","do_trial","366","1962935","0.0-341.0-0.0","723.5","","","","49","1,0,0","6","blank","294","null","0.8348121805345765","0.09374125369275635","0.509068803656091","1","","","","","",""
"","do_trial","367","1967356","0.0-342.0-0.0","866.7999997138977","","","","49","1,0,1","6","blank","295","null","0.7848981300471948","0.07041005224563981","0.49803906565465283","1","","","","","",""
"","do_recog","368","1970013","0.0-343.0-0.0","1145.5999999046326","","","","56","","","","296","probe-102","","","","","1","[object Object]","201","5","1",""
"","do_trial","369","1973874","0.0-344.0-0.0","317.6000003814697","","","","50","1,0,0","6","blank","297","null","0.6150516189972478","0.08019850219801314","0.4174728568346522","0","","","","","",""
"","do_recog","370","1976485","0.0-345.0-0.0","1096.0999999046326","","","","56","","","","298","probe-134","","","","","1","[object Object]","41","1","1",""
"","do_trial","371","1980421","0.0-346.0-0.0","360.40000009536743","","","","51","0,0,0","6","blank","299","null","0.6329153523142883","0.14702035952961415","0.42992324891984185","0","","","","","",""
"","do_recog","372","1982993","0.0-347.0-0.0","1065","","","","53","","","","300","probe-115","","","","","1","[object Object]","202","5","0",""
"","do_trial","373","1986891","0.0-348.0-0.0","351.19999980926514","","","","49","1,0,0","6","blank","301","null","0.5694743429896115","0.5132413361173487","0.27724353002442553","1","","","","","",""
"","do_trial","374","1990908","0.0-349.0-0.0","470.69999980926514","","","","50","1,1,1","6","blank","302","null","0.43889256370469143","0.6366420889161212","0.177573521731194","1","","","","","",""
"","do_trial","375","1994740","0.0-350.0-0.0","287.40000009536743","","","","50","1,1,0","6","blank","303","null","0.32483920510301284","0.6650952018018202","0.06717632590323808","1","","","","","",""
"","do_recog","376","1997080","0.0-351.0-0.0","832.4000000953674","","","","56","","","","304","probe-21","","","","","1","[object Object]","87","2","1",""
"","do_trial","377","2001116","0.0-352.0-0.0","479.40000009536743","","","","51","1,0,0","6","blank","305","null","0.5483997958050896","0.7426142984685055","0.1164588014491428","0","","","","","",""
"","do_recog","378","2003595","0.0-353.0-0.0","965.1999998092651","","","","53","","","","306","probe-244","","","","","0","[object Object]","null","null","1",""
"","do_trial","379","2007431","0.0-354.0-0.0","288.7999997138977","","","","50","1,1,0","6","blank","307","null","0.5405184568001505","0.767343371278981","0.10700558018608289","1","","","","","",""
"","do_trial","380","2011807","0.0-355.0-0.0","825","","","","50","0,1,0","6","blank","308","null","0.5822994831705617","0.767361581783151","0.06584284589254194","1","","","","","",""
"","do_trial","381","2015854","0.0-356.0-0.0","501.5","","","","50","1,1,0","6","blank","309","null","0.495952890196288","0.6953240012089682","0.18704213774406322","1","","","","","",""
"","do_trial","382","2020007","0.0-357.0-0.0","595.4000000953674","","","","50","1,0,1","6","blank","310","null","0.43240927489699355","0.6829426331807567","0.17810488820223824","0","","","","","",""
"","do_trial","383","2023918","0.0-358.0-0.0","370.80000019073486","","","","49","0,1,0","6","blank","311","null","0.32837660935063534","0.8538070479890749","0.06137104394893916","0","","","","","",""
"","do_recog","384","2026240","0.0-359.0-0.0","801.5","","","","56","","","","312","probe-251","","","","","0","[object Object]","null","null","0",""
"","do_trial","385","2030157","0.0-360.0-0.0","361.09999990463257","","","","51","1,1,0","6","blank","313","null","0.3971678879419609","0.6329024537338873","0.13057541962960054","0","","","","","",""
"","do_trial","386","2034131","0.0-361.0-0.0","432.40000009536743","","","","51","1,1,0","6","blank","314","null","0.3436530139982304","0.6995121113473902","0.16449329664678697","0","","","","","",""
"","do_trial","387","2038043","0.0-362.0-0.0","350.09999990463257","","","","51","0,0,0","6","blank","315","null","0.2757714244223483","0.600390298027703","0.09676850442919778","0","","","","","",""
"","do_trial","388","2041818","0.0-363.0-0.0","228.30000019073486","","","","49","0,1,0","6","blank","316","null","0.28503414325343135","0.6233980469908529","0.22400236070760315","0","","","","","",""
"","do_recog","389","2044206","0.0-364.0-0.0","869","","","","56","","","","317","probe-66","","","","","1","[object Object]","206","5","1",""
"","do_trial","390","2048204","0.0-365.0-0.0","446.1000003814697","","","","50","0,1,0","6","blank","318","null","0.2778755767788909","0.7273931244666987","0.1633950897478315","1","","","","","",""
"","do_recog","391","2050539","0.0-366.0-0.0","814.8000001907349","","","","56","","","","319","probe-61","","","","","1","[object Object]","122","3","1",""
"","do_trial","392","2054533","0.0-367.0-0.0","441.7999997138977","","","","50","0,1,0","6","blank","320","null","0.18598687846870335","0.7657049212154701","0.15468724436268672","1","","","","","",""
"","do_recog","393","2056969","0.0-368.0-0.0","926.2000002861023","","","","56","","","","321","probe-01","","","","","1","[object Object]","125","3","1",""
"","do_trial","394","2061013","0.0-369.0-0.0","476.1000003814697","","","","50","1,1,1","6","blank","322","null","0.2697011172267566","0.7681499020098836","0.09304660514301215","1","","","","","",""
"","do_recog","395","2063209","0.0-370.0-0.0","686.0999999046326","","","","56","","","","323","probe-141","","","","","1","[object Object]","127","3","1",""
"","do_trial","396","2067254","0.0-371.0-0.0","494.40000009536743","","","","50","0,1,0","6","blank","324","null","0.355830494104599","0.8487968583100681","0.06580035331058398","1","","","","","",""
"","do_trial","397","2071100","0.0-372.0-0.0","294.59999990463257","","","","50","0,1,0","6","blank","325","null","0.4510044829453101","0.8344838383618653","0.1904598914671736","1","","","","","",""
"","do_trial","398","2075003","0.0-373.0-0.0","347.1000003814697","","","","50","0,1,0","6","blank","326","null","0.49977408290773107","1","0.06988389204913198","1","","","","","",""
"","do_recog","399","2077357","0.0-374.0-0.0","835.5","","","","54","","","","327","probe-96","","","","","1","[object Object]","209","5","0",""
"","do_trial","400","2081246","0.0-375.0-0.0","339.69999980926514","","","","51","0,1,0","6","blank","328","null","0.5100344678096823","0.8470620019944218","0.23419908048464957","0","","","","","",""
"","do_recog","401","2083687","0.0-376.0-0.0","931","","","","56","","","","329","probe-210","","","","","1","[object Object]","163","4","1",""
"","do_trial","402","2087876","0.0-377.0-0.0","639.5","","","","51","0,1,0","6","blank","330","null","0.5390893726862548","0.7536828757342438","0.0636407873544301","0","","","","","",""
"","do_recog","403","2090470","0.0-378.0-0.0","1072.2999997138977","","","","54","","","","331","probe-48","","","","","1","[object Object]","88","2","0",""
"","do_trial","404","2094577","0.0-379.0-0.0","560.3000001907349","","","","49","0,0,0","6","blank","332","null","0.4237303432543345","0.7671829166496437","0.08913525819077016","0","","","","","",""
"","do_recog","405","2096807","0.0-380.0-0.0","725","","","","56","","","","333","probe-233","","","","","1","[object Object]","126","3","1",""
"","do_trial","406","2100755","0.0-381.0-0.0","389.2000002861023","","","","50","0,1,0","6","blank","334","null","0.3150731267367932","0.7550543545222695","0.09607292842404544","1","","","","","",""
"","do_recog","407","2103105","0.0-382.0-0.0","837.9000000953674","","","","56","","","","335","probe-11","","","","","1","[object Object]","49","1","1",""
"","do_trial","408","2107075","0.0-383.0-0.0","421.19999980926514","","","","51","1,1,0","6","blank","336","null","0.32274817737430517","0.8035387461665567","0.1706989312235779","0","","","","","",""
"","do_recog","409","2109427","0.0-384.0-0.0","836.5","","","","54","","","","337","probe-221","","","","","1","[object Object]","89","2","0",""
"","do_trial","410","2113240","0.0-385.0-0.0","269.80000019073486","","","","50","0,1,1","6","blank","338","null","0.31332645358614986","0.7198288919052371","0.13431010196809928","1","","","","","",""
"","do_trial","411","2117269","0.0-386.0-0.0","460.40000009536743","","","","50","0,1,0","6","blank","339","null","0.22236291451273577","0.765609817873971","0.08807723006597001","1","","","","","",""
"","do_trial","412","2121235","0.0-387.0-0.0","394.59999990463257","","","","50","1,1,0","6","blank","340","null","0.28608789097198617","0.71261521854227","0.14131634527582632","1","","","","","",""
"","do_recog","413","2123571","0.0-388.0-0.0","822.7999997138977","","","","56","","","","341","probe-91","","","","","1","[object Object]","48","1","1",""
"","do_trial","414","2127488","0.0-389.0-0.0","372.40000009536743","","","","50","0,1,1","6","blank","342","null","0.22540388003146233","0.8015534034133992","0.24089802756134704","1","","","","","",""
"","do_trial","415","2131581","0.0-390.0-0.0","544.9000000953674","","","","50","1,0,0","6","blank","343","null","0.4339084070925073","0.5104708315400464","0.143640627288028","0","","","","","",""
"","do_trial","416","2135519","0.0-391.0-0.0","383.5","","","","51","1,0,0","6","blank","344","null","0.4850125712283835","0.4146767808336106","0.2593001720087922","0","","","","","",""
"","do_trial","417","2139372","0.0-392.0-0.0","310.90000009536743","","","","49","1,1,0","6","blank","345","null","0.6770736111242747","0.26676095161493313","0.3016267192355299","1","","","","","",""
"","do_trial","418","2143470","0.0-393.0-0.0","555.2000002861023","","","","50","1,1,0","6","blank","346","null","0.6504666227104785","0.27037175432917304","0.26454808648392486","1","","","","","",""
"","do_recog","419","2145721","0.0-394.0-0.0","738.0999999046326","","","","56","","","","347","probe-155","","","","","1","[object Object]","44","1","1",""
"","do_trial","420","2149592","0.0-395.0-0.0","310.59999990463257","","","","49","0,0,0","6","blank","348","null","0.6838892458507247","0.18377807802727233","0.20417907231856583","0","","","","","",""
"","do_trial","421","2153415","0.0-396.0-0.0","274.2999997138977","","","","50","0,0,0","6","blank","349","null","0.6696681101629508","0.15058117380280378","0.22076676945547116","0","","","","","",""
"","do_recog","422","2155810","0.0-397.0-0.0","888.8000001907349","","","","56","","","","350","probe-25","","","","","1","[object Object]","83","2","1",""
"","do_trial","423","2159792","0.0-398.0-0.0","435.30000019073486","","","","51","1,1,0","6","blank","351","null","0.8409618727871021","0.19054862261910543","0.4820242079298707","0","","","","","",""
"","do_recog","424","2162366","0.0-399.0-0.0","1067.0999999046326","","","","54","","","","352","probe-44","","","","","1","[object Object]","47","1","0",""
"","do_trial","425","2166307","0.0-400.0-0.0","393.2999997138977","","","","49","1,0,0","6","blank","353","null","0.7670462350215713","0.11670288649262353","0.45164791885323113","1","","","","","",""
"","do_recog","426","2168763","0.0-401.0-0.0","938.7999997138977","","","","56","","","","354","probe-33","","","","","1","[object Object]","120","3","1",""
"","do_trial","427","2173612","0.0-402.0-0.0","1303","","","","50","0,0,0","6","blank","355","null","0.5545300642233949","0.22357393800466824","0.34257476439516893","0","","","","","",""
"","do_recog","428","2175917","0.0-403.0-0.0","783.1999998092651","","","","56","","","","356","probe-243","","","","","0","[object Object]","null","null","0",""
"","do_trial","429","2179826","0.0-404.0-0.0","362.7999997138977","","","","51","0,0,1","6","blank","357","null","0.6911477773053906","0.16324374359836846","0.29400139202525294","1","","","","","",""
"","do_recog","430","2182047","0.0-405.0-0.0","713.5999999046326","","","","56","","","","358","probe-101","","","","","1","[object Object]","42","1","1",""
"","do_trial","431","2186332","0.0-406.0-0.0","730.6999998092651","","","","49","1,0,0","6","blank","359","null","0.7959656396229327","0.16489744670770953","0.4071474755634696","1","","","","","",""
"","do_recog","432","2188668","0.0-407.0-0.0","825.7999997138977","","","","56","","","","360","probe-59","","","","","1","[object Object]","200","5","1",""
"","do_trial","433","2192607","0.0-408.0-0.0","380.80000019073486","","","","51","0,0,0","6","blank","361","null","0.8452655595447592","0.21867236002356089","0.3378668095446691","0","","","","","",""
"","do_trial","434","2197235","0.0-409.0-0.0","1086.5","","","","50","1,1,1","6","blank","362","null","0.9463285770066232","0.19977937944959184","0.5309801679051234","1","","","","","",""
"","do_trial","435","2201185","0.0-410.0-0.0","398.90000009536743","","","","50","1,0,1","6","blank","363","null","0.8744084855070348","0.09621608861860731","0.5989141512449853","0","","","","","",""
"","do_trial","436","2205015","0.0-411.0-0.0","279.2000002861023","","","","50","1,0,0","6","blank","364","null","0.8044336496268651","0.06689884562891779","0.4658395299852","0","","","","","",""
"","do_trial","437","2208825","0.0-412.0-0.0","262","","","","50","1,0,1","6","blank","365","null","0.8991595258654961","0.07896798182540594","0.34468982947457066","0","","","","","",""
"","do_trial","438","2212955","0.0-413.0-0.0","574.8000001907349","","","","49","1,0,0","6","blank","366","null","0.819380277353848","0.11807532116435743","0.47579319568826706","1","","","","","",""
"","do_recog","439","2215205","0.0-414.0-0.0","734.6999998092651","","","","56","","","","367","probe-192","","","","","1","[object Object]","160","4","1",""
"","do_trial","440","2219113","0.0-415.0-0.0","352.69999980926514","","","","49","1,0,0","6","blank","368","null","0.900080458374564","0.09384410194683478","0.44730552939274215","1","","","","","",""
"","do_recog","441","2221334","0.0-416.0-0.0","716.8999996185303","","","","56","","","","369","probe-54","","","","","1","[object Object]","208","5","1",""
"","do_trial","442","2225222","0.0-417.0-0.0","333.19999980926514","","","","49","0,0,1","6","blank","370","null","0.7984777641568015","0.22326882790843663","0.5078234809058871","0","","","","","",""
"","do_recog","443","2228205","0.0-418.0-0.0","1475.3999996185303","","","","53","","","","371","probe-116","","","","","1","[object Object]","168","4","0",""
"","do_trial","444","2232256","0.0-419.0-0.0","508.30000019073486","","","","51","1,0,0","6","blank","372","null","0.8491447386342402","0.288381106381787","0.37083087653654845","0","","","","","",""
"","do_recog","445","2235034","0.0-420.0-0.0","1261.5","","","","53","","","","373","probe-259","","","","","0","[object Object]","null","null","1",""
"","do_trial","446","2239208","0.0-421.0-0.0","621.5","","","","51","1,1,0","6","blank","374","null","1","0.2582607006588493","0.44392958062527954","0","","","","","",""
"","do_trial","447","2243069","0.0-422.0-0.0","310.6000003814697","","","","50","1,0,0","6","blank","375","null","0.8759524214835801","0.0536083151854281","0.32071809506742877","0","","","","","",""
"","do_recog","448","2246111","0.0-423.0-0.0","1525.6999998092651","","","","56","","","","376","probe-249","","","","","0","[object Object]","null","null","0",""
"","do_trial","449","2250003","0.0-424.0-0.0","345.69999980926514","","","","49","0,0,0","6","blank","377","null","0.7848212986638159","0.08065051985528991","0.44379550778894683","0","","","","","",""
"","do_trial","450","2254018","0.0-425.0-0.0","469.59999990463257","","","","50","1,0,0","6","blank","378","null","0.8428989321818644","0.11951445767881534","0.47949507596390833","0","","","","","",""
"","do_trial","451","2257992","0.0-426.0-0.0","421.2000002861023","","","","51","1,0,1","6","blank","379","null","0.8671947896960269","0.06683504315230501","0.47554838658738713","1","","","","","",""
"","do_trial","452","2262319","0.0-427.0-0.0","777.0999999046326","","","","51","1,0,0","6","blank","380","null","0.9347331660514593","0.05764733043250189","0.6265671264271284","0","","","","","",""
"","do_trial","453","2266287","0.0-428.0-0.0","411","","","","51","1,0,0","6","blank","381","null","0.813579946441249","0.054555894485347846","0.38533365065727493","0","","","","","",""
"","do_recog","454","2268610","0.0-429.0-0.0","814.6999998092651","","","","53","","","","382","probe-95","","","","","1","[object Object]","128","3","0",""
"","do_trial","455","2272438","0.0-430.0-0.0","280.1000003814697","","","","50","1,0,0","6","blank","383","null","0.7799929165465289","0.06240995499309607","0.3817404708472853","0","","","","","",""
"","do_trial","456","2276905","0.0-431.0-0.0","910.6999998092651","","","","49","1,0,0","6","blank","384","null","0.7883028567252799","0.09111014767695752","0.36047078380261427","1","","","","","",""
"","do_trial","457","2280770","0.0-432.0-0.0","321.59999990463257","","","","51","1,0,0","6","blank","385","null","0.8087008788388375","0.19191973438849969","0.2695249911788275","0","","","","","",""
"","do_trial","458","2284574","0.0-433.0-0.0","252.40000009536743","","","","50","1,0,1","6","blank","386","null","0.6005302397029724","0.2806957944651196","0.5916956238709936","0","","","","","",""
"","do_recog","459","2287269","0.0-434.0-0.0","1180.2000002861023","","","","56","","","","387","probe-129","","","","","1","[object Object]","84","2","1",""
"","do_trial","460","2291258","0.0-435.0-0.0","440.2000002861023","","","","49","0,1,1","6","blank","388","null","0.5349232726367275","0.3035279195900487","0.625006689720857","0","","","","","",""
"","do_recog","461","2293631","0.0-436.0-0.0","851.4000000953674","","","","56","","","","389","probe-159","","","","","1","[object Object]","123","3","1",""
"","do_trial","462","2297567","0.0-437.0-0.0","390.80000019073486","","","","51","0,1,1","6","blank","390","null","0.3488008857076161","0.30044419469703576","0.5958565682874097","1","","","","","",""
"","do_trial","463","2301654","0.0-438.0-0.0","543.6999998092651","","","","50","0,0,0","6","blank","391","null","0.30453674637406136","0.17069224445036382","0.6146619080327425","0","","","","","",""
"","do_recog","464","2304312","0.0-439.0-0.0","1142.6999998092651","","","","53","","","","392","probe-256","","","","","0","[object Object]","null","null","1",""
"","do_trial","465","2308372","0.0-440.0-0.0","508.40000009536743","","","","51","1,1,1","6","blank","393","null","0.2654827752781859","0.10036010184000749","0.6739281323152043","1","","","","","",""
"","do_recog","466","2311206","0.0-441.0-0.0","1322.5","","","","56","","","","394","probe-190","","","","","1","[object Object]","86","2","1",""
"","do_trial","467","2315652","0.0-442.0-0.0","889.4000000953674","","","","50","1,0,1","6","blank","395","null","0.35166584960141","0.07339896657079799","0.7065955742469303","0","","","","","",""
"","do_trial","468","2319782","0.0-443.0-0.0","578.3000001907349","","","","49","0,0,1","6","blank","396","null","0.4196477581890328","0.17278882879952065","0.7248787972950018","0","","","","","",""
"","do_recog","469","2322124","0.0-444.0-0.0","825.6999998092651","","","","56","","","","397","probe-163","","","","","1","[object Object]","80","2","1",""
"","do_trial","470","2326029","0.0-445.0-0.0","333.6000003814697","","","","51","0,0,0","6","blank","398","null","0.27178058548426764","0.2109830521120064","0.7229059102585148","0","","","","","",""
"","do_recog","471","2328279","0.0-446.0-0.0","738.4000000953674","","","","56","","","","399","probe-10","","","","","1","[object Object]","165","4","1",""
"","do_trial","472","2332134","0.0-447.0-0.0","300.7999997138977","","","","50","1,1,1","6","blank","400","null","0.36598344531327653","0.26593384878374493","0.655588082905625","1","","","","","",""
"","do_recog","473","2334417","0.0-448.0-0.0","774.5999999046326","","","","56","","","","401","probe-185","","","","","1","[object Object]","169","4","1",""
"","do_trial","474","2338346","0.0-449.0-0.0","366.5","","","","50","0,0,0","6","blank","402","null","0.17393226456089153","0.21263147407835134","0.6029702694575686","0","","","","","",""
"","do_recog","475","2340632","0.0-450.0-0.0","773.2999997138977","","","","56","","","","403","probe-142","","","","","1","[object Object]","167","4","1",""
"","do_trial","476","2344904","0.0-451.0-0.0","720.7000002861023","","","","50","0,1,1","6","blank","404","null","0.28036505302325954","0.09570002944334842","0.8084258730755421","1","","","","","",""
"","do_recog","477","2347021","0.0-452.0-0.0","611.1000003814697","","","","56","","","","405","probe-195","","","","","1","[object Object]","85","2","1",""
"","do_trial","478","2351325","0.0-453.0-0.0","764.9000000953674","","","","50","0,0,1","6","blank","406","null","0.3683597439047027","0.10189084028895043","0.7975048102506826","0","","","","","",""
"","do_recog","479","2353632","0.0-454.0-0.0","793.1000003814697","","","","53","","","","407","probe-82","","","","","1","[object Object]","205","5","0",""
"","do_trial","480","2357463","0.0-455.0-0.0","288.40000009536743","","","","49","1,0,1","6","blank","408","null","0.4193048067431031","0.06400769413359361","0.8499069415859885","1","","","","","",""
