"success","trial_type","trial_index","time_elapsed","internal_node_id","interactions","blur_events","focus_events","fullscreenenter_events","fullscreenexit_events","rt","stimulus","key_press","subject_id","participant_id","age","gender","prompt","response","choice_outcomes","context_n","context_img_id","trial_n","probe_img_id","pR_red","pR_white","pR_black","outcome","contextArray_ind","validImageProbes","invalidImageProbes","pRew_Red","pRew_White","pRew_Black","availableForMemProbe","choice_blocks"
"true","fullscreen","0","3187","0.0-0.0","""event"",""trial"",""time""
""fullscreenenter"",""0"",""2210""
","
","
","""event"",""trial"",""time""
""fullscreenenter"",""0"",""2210""
","
","","","","","","","","","","","","","","","","","","","","","","","","","",""
"","pavlovia","1","3197","0.0-1.0","""event"",""trial"",""time""
""fullscreenenter"",""0"",""2210""
","
","
","""event"",""trial"",""time""
""fullscreenenter"",""0"",""2210""
","
","","","","","","","","","","","","","","","","","","","","","","","","","",""
"","instruc1","2","48294","0.0-2.0","""event"",""trial"",""time""
""fullscreenenter"",""0"",""2210""
","
","
","""event"",""trial"",""time""
""fullscreenenter"",""0"",""2210""
","
","null","run_exp/static/audio/clip_1_welcome.m4a","null","332","754","20","Male","<div class='center'><p>Welcome! This is the first part of the study. It will last ~30 minutes. In part 1 and part 2 of the study, you are the head captain of a pirate ship traveling around the world to different islands. You will play a few different games throughout these two parts. Here is an overview of them:</p><br><p>Part 1 (today)</p><p>1. Instructions, practice game, and quiz</p><p>2. Pick a pirate game on 6 different islands</p><br><p>Part 2 (tomorrow)</p><p>3. Pick a pirate game and memory game</p><p>4. Where did you see this ship? </p></div>","","","","","","","","","","","","","","","","","",""
"","html-keyboard-response","3","49458","0.0-3.0","""event"",""trial"",""time""
""fullscreenenter"",""0"",""2210""
","
","
","""event"",""trial"",""time""
""fullscreenenter"",""0"",""2210""
","
","1161.699999988079","<div class='center'><p>Welcome! This is the first part of the study. It will last ~30 minutes. In part 1 and part 2 of the study, you are the head captain of a pirate ship traveling around the world to different islands. You will play a few different games throughout these two parts. Here is an overview of them:</p><br><p>Part 1 (today)</p><p>1. Instructions, practice game, and quiz</p><p>2. Pick a pirate game on 6 different islands</p><br><p>Part 2 (tomorrow)</p><p>3. Pick a pirate game and memory game</p><p>4. Where did you see this ship? </p><p><b>[Press the space bar to continue]</b></p></div>","32","","","","","","","","","","","","","","","","","","","","","","",""
"","instruc2","4","54774","0.0-4.0","""event"",""trial"",""time""
""fullscreenenter"",""0"",""2210""
","
","
","""event"",""trial"",""time""
""fullscreenenter"",""0"",""2210""
","
","null","run_exp/static/audio/clip_2_different_places.m4a","null","","","","","<div class='center'><p>Today, you’ll visit these 6 islands on your journey. You'll be able to see these islands from your ship.</p><p><img src='run_exp/static/images/contexts/all_contexts.png' height='500'></p></div>","","","","","","","","","","","","","","","","","",""
"","html-keyboard-response","5","62376","0.0-5.0","""event"",""trial"",""time""
""fullscreenenter"",""0"",""2210""
","
","
","""event"",""trial"",""time""
""fullscreenenter"",""0"",""2210""
","
","7598.399999976158","<div class='center'><p>Today, you’ll visit these 6 islands on your journey. You'll be able to see these islands from your ship.</p><p><img src='run_exp/static/images/contexts/all_contexts.png' height='500'></p><p><b>[Press the space bar to continue]</b></p></div>","32","","","","","","","","","","","","","","","","","","","","","","",""
"","instruc3","6","72055","0.0-6.0","""event"",""trial"",""time""
""fullscreenenter"",""0"",""2210""
","
","
","""event"",""trial"",""time""
""fullscreenenter"",""0"",""2210""
","
","null","run_exp/static/audio/clip_3_goal_of_game_1.m4a","null","","","","","<div class='center'><p> The pirates on your ship will rob other ships as they leave the island.</p> These ships have just sold their goods to the islanders, so they will be filled with lots and lots of gold.</p><p><img src='run_exp/static/images/tutorial/ship_center.png' height='400'></p></div>","","","","","","","","","","","","","","","","","",""
"","html-keyboard-response","7","83632","0.0-7.0","""event"",""trial"",""time""
""fullscreenenter"",""0"",""2210""
","
","
","""event"",""trial"",""time""
""fullscreenenter"",""0"",""2210""
","
","11573.699999988079","<div class='center'><p> The pirates on your ship will rob other ships as they leave the island.</p> These ships have just sold their goods to the islanders, so they will be filled with lots and lots of gold.</p><p><img src='run_exp/static/images/tutorial/ship_center.png' height='400'></p><p><b>[Press the space bar to continue]</b></p></div>","32","","","","","","","","","","","","","","","","","","","","","","",""
"","instruc4","8","111589","0.0-8.0","""event"",""trial"",""time""
""fullscreenenter"",""0"",""2210""
","
","
","""event"",""trial"",""time""
""fullscreenenter"",""0"",""2210""
","
","null","run_exp/static/audio/clip_4_goal_of_game_2.m4a","null","","","","","<div class='center'><p>As the head captain, you do not have to rob any ships yourself. Another pirate will be doing the robbing for you. First, you will choose a pirate to rob the next ship.</p><p><img src='run_exp/static/images/tutorial/pirates_all_crop.png' height='200'></p><p>Then, you'll see if the pirate successfully robbed the ship of their gold. If they were successful, then you'll get a stack of gold coins like this:</p><p><img src='run_exp/static/images/tutorial/reward.png' height='150'></p><p> If they were <b>not</b> successful, then you'll get no gold coins, and you'll see a big red x like this: </p><p><img src='run_exp/static/images/tutorial/reward_no.png' height='150'></p><p> How much bonus money you make is based on how many gold coins you collect.</p><div>","","","","","","","","","","","","","","","","","",""
"","html-keyboard-response","9","116177","0.0-9.0","""event"",""trial"",""time""
""fullscreenenter"",""0"",""2210""
","
","
","""event"",""trial"",""time""
""fullscreenenter"",""0"",""2210""
","
","4586.899999976158","<div class='center'><p>As the head captain, you do not have to rob any ships yourself. Another pirate will be doing the robbing for you. First, you will choose a pirate to rob the next ship.</p><p><img src='run_exp/static/images/tutorial/pirates_all_crop.png' height='200'></p><p>Then, you'll see if the pirate successfully robbed the ship of their gold. If they were successful, then you'll get a stack of gold coins like this:</p><p><img src='run_exp/static/images/tutorial/reward.png' height='150'></p><p> If they were <b>not</b> successful, then you'll get no gold coins, and you'll see a big red x like this: </p><p><img src='run_exp/static/images/tutorial/reward_no.png' height='150'></p><p> How much bonus money you make is based on how many gold coins you collect.</p<p><b>[Press the space bar to continue]</b></p></div>","32","","","","","","","","","","","","","","","","","","","","","","",""
"","instruc5","10","137632","0.0-10.0","""event"",""trial"",""time""
""fullscreenenter"",""0"",""2210""
","
","
","""event"",""trial"",""time""
""fullscreenenter"",""0"",""2210""
","
","21453","run_exp/static/audio/clip_5_probabilistic.m4a","49","","","","","<div class='center'><p>Even the most skilled pirate can not rob EVERY ship.</p><p> Some ships will have very strong protections against pirate attacks.</p><p> Blue beard, here, is very, very good at robbing ships, but he won't be successful every time he tries to rob one.</p><p> You can press the <b>‘1’</b> key on the keyboard to choose him.</p><p> Try choosing him 10 times to see how often he succeeds at robbing a ship. </p><p><img src='run_exp/static/images/tutorial/blue.png' height='500'></p></div>","","","","","","","","","","","","","","","","","",""
"","html-keyboard-response","11","139136","0.0-11.0","""event"",""trial"",""time""
""fullscreenenter"",""0"",""2210""
","
","
","""event"",""trial"",""time""
""fullscreenenter"",""0"",""2210""
","
","null","<div class='center'><p><img src='run_exp/static/images/tutorial/blue_win.png' height='500'></p></div>","null","","","","","","","","","","","","","","","","","","","","","","",""
"","html-keyboard-response","12","140707","0.0-12.0","""event"",""trial"",""time""
""fullscreenenter"",""0"",""2210""
","
","
","""event"",""trial"",""time""
""fullscreenenter"",""0"",""2210""
","
","1568.800000011921","<div class='center'><img src='run_exp/static/images/tutorial/blue.png' height='500'></p></div>","49","","","","","","","","","","","","","","","","","","","","","","",""
"","html-keyboard-response","13","142210","0.0-13.0","""event"",""trial"",""time""
""fullscreenenter"",""0"",""2210""
","
","
","""event"",""trial"",""time""
""fullscreenenter"",""0"",""2210""
","
","null","<div class='center'><p><img src='run_exp/static/images/tutorial/blue_win.png' height='500'></p></div>","null","","","","","","","","","","","","","","","","","","","","","","",""
"","html-keyboard-response","14","143237","0.0-14.0","""event"",""trial"",""time""
""fullscreenenter"",""0"",""2210""
","
","
","""event"",""trial"",""time""
""fullscreenenter"",""0"",""2210""
","
","1025.2999999523163","<div class='center'><img src='run_exp/static/images/tutorial/blue.png' height='500'></p></div>","49","","","","","","","","","","","","","","","","","","","","","","",""
"","html-keyboard-response","15","144739","0.0-15.0","""event"",""trial"",""time""
""fullscreenenter"",""0"",""2210""
","
","
","""event"",""trial"",""time""
""fullscreenenter"",""0"",""2210""
","
","null","<div class='center'><p><img src='run_exp/static/images/tutorial/blue_win.png' height='500'></p></div>","null","","","","","","","","","","","","","","","","","","","","","","",""
"","html-keyboard-response","16","145046","0.0-16.0","""event"",""trial"",""time""
""fullscreenenter"",""0"",""2210""
","
","
","""event"",""trial"",""time""
""fullscreenenter"",""0"",""2210""
","
","305.30000001192093","<div class='center'><img src='run_exp/static/images/tutorial/blue.png' height='500'></p></div>","49","","","","","","","","","","","","","","","","","","","","","","",""
"","html-keyboard-response","17","146549","0.0-17.0","""event"",""trial"",""time""
""fullscreenenter"",""0"",""2210""
","
","
","""event"",""trial"",""time""
""fullscreenenter"",""0"",""2210""
","
","null","<div class='center'><p><img src='run_exp/static/images/tutorial/blue_no_win.png' height='500'></p></div>","null","","","","","","","","","","","","","","","","","","","","","","",""
"","html-keyboard-response","18","148274","0.0-18.0","""event"",""trial"",""time""
""fullscreenenter"",""0"",""2210""
","
","
","""event"",""trial"",""time""
""fullscreenenter"",""0"",""2210""
","
","1724","<div class='center'><img src='run_exp/static/images/tutorial/blue.png' height='500'></p></div>","49","","","","","","","","","","","","","","","","","","","","","","",""
"","html-keyboard-response","19","149775","0.0-19.0","""event"",""trial"",""time""
""fullscreenenter"",""0"",""2210""
","
","
","""event"",""trial"",""time""
""fullscreenenter"",""0"",""2210""
","
","null","<div class='center'><p><img src='run_exp/static/images/tutorial/blue_win.png' height='500'></p></div>","null","","","","","","","","","","","","","","","","","","","","","","",""
"","html-keyboard-response","20","150046","0.0-20.0","""event"",""trial"",""time""
""fullscreenenter"",""0"",""2210""
","
","
","""event"",""trial"",""time""
""fullscreenenter"",""0"",""2210""
","
","270.5","<div class='center'><img src='run_exp/static/images/tutorial/blue.png' height='500'></p></div>","49","","","","","","","","","","","","","","","","","","","","","","",""
"","html-keyboard-response","21","151549","0.0-21.0","""event"",""trial"",""time""
""fullscreenenter"",""0"",""2210""
","
","
","""event"",""trial"",""time""
""fullscreenenter"",""0"",""2210""
","
","null","<div class='center'><p><img src='run_exp/static/images/tutorial/blue_win.png' height='500'></p></div>","null","","","","","","","","","","","","","","","","","","","","","","",""
"","html-keyboard-response","22","151879","0.0-22.0","""event"",""trial"",""time""
""fullscreenenter"",""0"",""2210""
","
","
","""event"",""trial"",""time""
""fullscreenenter"",""0"",""2210""
","
","327.5999999642372","<div class='center'><img src='run_exp/static/images/tutorial/blue.png' height='500'></p></div>","49","","","","","","","","","","","","","","","","","","","","","","",""
"","html-keyboard-response","23","153381","0.0-23.0","""event"",""trial"",""time""
""fullscreenenter"",""0"",""2210""
","
","
","""event"",""trial"",""time""
""fullscreenenter"",""0"",""2210""
","
","null","<div class='center'><p><img src='run_exp/static/images/tutorial/blue_win.png' height='500'></p></div>","null","","","","","","","","","","","","","","","","","","","","","","",""
"","html-keyboard-response","24","153636","0.0-24.0","""event"",""trial"",""time""
""fullscreenenter"",""0"",""2210""
","
","
","""event"",""trial"",""time""
""fullscreenenter"",""0"",""2210""
","
","252.89999997615814","<div class='center'><img src='run_exp/static/images/tutorial/blue.png' height='500'></p></div>","49","","","","","","","","","","","","","","","","","","","","","","",""
"","html-keyboard-response","25","155138","0.0-25.0","""event"",""trial"",""time""
""fullscreenenter"",""0"",""2210""
","
","
","""event"",""trial"",""time""
""fullscreenenter"",""0"",""2210""
","
","null","<div class='center'><p><img src='run_exp/static/images/tutorial/blue_no_win.png' height='500'></p></div>","null","","","","","","","","","","","","","","","","","","","","","","",""
"","html-keyboard-response","26","155436","0.0-26.0","""event"",""trial"",""time""
""fullscreenenter"",""0"",""2210""
","
","
","""event"",""trial"",""time""
""fullscreenenter"",""0"",""2210""
","
","296.39999997615814","<div class='center'><img src='run_exp/static/images/tutorial/blue.png' height='500'></p></div>","49","","","","","","","","","","","","","","","","","","","","","","",""
"","html-keyboard-response","27","156939","0.0-27.0","""event"",""trial"",""time""
""fullscreenenter"",""0"",""2210""
","
","
","""event"",""trial"",""time""
""fullscreenenter"",""0"",""2210""
","
","null","<div class='center'><p><img src='run_exp/static/images/tutorial/blue_win.png' height='500'></p></div>","null","","","","","","","","","","","","","","","","","","","","","","",""
"","html-keyboard-response","28","157500","0.0-28.0","""event"",""trial"",""time""
""fullscreenenter"",""0"",""2210""
","
","
","""event"",""trial"",""time""
""fullscreenenter"",""0"",""2210""
","
","560.0999999642372","<div class='center'><img src='run_exp/static/images/tutorial/blue.png' height='500'></p></div>","49","","","","","","","","","","","","","","","","","","","","","","",""
"","html-keyboard-response","29","159003","0.0-29.0","""event"",""trial"",""time""
""fullscreenenter"",""0"",""2210""
","
","
","""event"",""trial"",""time""
""fullscreenenter"",""0"",""2210""
","
","null","<div class='center'><p><img src='run_exp/static/images/tutorial/blue_win.png' height='500'></p></div>","null","","","","","","","","","","","","","","","","","","","","","","",""
"","instruc6","30","164555","0.0-30.0","""event"",""trial"",""time""
""fullscreenenter"",""0"",""2210""
","
","
","""event"",""trial"",""time""
""fullscreenenter"",""0"",""2210""
","
","null","run_exp/static/audio/clip_6_blue_beard_outcome.m4a","null","","","","","<div class='center'><p> See, he succeeded in robbing the ships most of the time but not every time. </p></div>","","","","","","","","","","","","","","","","","",""
"","html-keyboard-response","31","166026","0.0-31.0","""event"",""trial"",""time""
""fullscreenenter"",""0"",""2210""
","
","
","""event"",""trial"",""time""
""fullscreenenter"",""0"",""2210""
","
","1468.699999988079","<div class='center'><p> See, he succeeded in robbing the ships most of the time but not every time. </p><p><b>[Press the space bar to continue]</b></p></div>","32","","","","","","","","","","","","","","","","","","","","","","",""
"","audio-keyboard-response","32","182758","0.0-32.0","""event"",""trial"",""time""
""fullscreenenter"",""0"",""2210""
","
","
","""event"",""trial"",""time""
""fullscreenenter"",""0"",""2210""
","
","16729.900000035763","run_exp/static/audio/clip_7_pick_pirate.m4a","49","","","","","","","","","","","","","","","","","","","","","","",""
"","audio-keyboard-response","33","187672","0.0-33.0-0.0","""event"",""trial"",""time""
""fullscreenenter"",""0"",""2210""
","
","
","""event"",""trial"",""time""
""fullscreenenter"",""0"",""2210""
","
","4908.399999976158","run_exp/static/audio/clip_8_chosen_pirate_win.m4a","32","","","","","","","","","","","","","","","","","","","","","","",""
"","audio-keyboard-response","34","190080","0.0-33.0-1.0","""event"",""trial"",""time""
""fullscreenenter"",""0"",""2210""
","
","
","""event"",""trial"",""time""
""fullscreenenter"",""0"",""2210""
","
","2404.800000011921","run_exp/static/audio/clip_9_pick_a_pirate_again.m4a","50","","","","","","","","","","","","","","","","","","","","","","",""
"","audio-keyboard-response","35","194779","0.0-34.0-0.0","""event"",""trial"",""time""
""fullscreenenter"",""0"",""2210""
","
","
","""event"",""trial"",""time""
""fullscreenenter"",""0"",""2210""
","
","4693.799999952316","run_exp/static/audio/clip_10_chosen_pirate_loss.m4a","32","","","","","","","","","","","","","","","","","","","","","","",""
"","instruc9","36","200274","0.0-35.0-0.0","""event"",""trial"",""time""
""fullscreenenter"",""0"",""2210""
","
","
","""event"",""trial"",""time""
""fullscreenenter"",""0"",""2210""
","
","null","run_exp/static/audio/clip_11_time_out.m4a","null","","","","","<div class='center'><p>If you don’t make your choice fast enough, you’ll have to wait a few seconds before you can make another one. </p><p><img src='run_exp/static/images/miscellaneous/hurry_up.png' height='500'></p></div>","","","","","","","","","","","","","","","","","",""
"","html-keyboard-response","37","201052","0.0-35.0-1.0","""event"",""trial"",""time""
""fullscreenenter"",""0"",""2210""
","
","
","""event"",""trial"",""time""
""fullscreenenter"",""0"",""2210""
","
","776.6999999880791","<div class='center'><p>If you don’t make your choice fast enough, you’ll have to wait a few seconds before you can make another one. </p><p><img src='run_exp/static/images/miscellaneous/hurry_up.png' height='500'></p><p><b>[Press the space bar to continue]</b></p></div>","32","","","","","","","","","","","","","","","","","","","","","","",""
"","instruc10","38","240135","0.0-35.0-2.0","""event"",""trial"",""time""
""fullscreenenter"",""0"",""2210""
","
","
","""event"",""trial"",""time""
""fullscreenenter"",""0"",""2210""
","
","null","run_exp/static/audio/clip_12_probe.m4a","null","","","","","<div class='center'><p>Once you've chosen a pirate, you’ll be shown the ship they are robbing. You will never rob the same ship twice. Ships can be told apart from one another by the image on them. These are the goods that they sell. See, this ship has a travel mug on it. </p><p> You’ll have to remember which island you saw each ship on. You will win more gold coins and hence more bonus money if you remember correctly! To help you remember, you can imagine a story. For example, here, you could imagine a mug full of water in the desert. Or, as another example, if on the forest island, your pirate robbed a ship with an apple on it, you could imagine an apple falling from a tree in the forest. </p><p><img src='run_exp/static/images/tutorial/example_probe.png' height='500'></p></div>","","","","","","","","","","","","","","","","","",""
"","html-keyboard-response","39","246559","0.0-35.0-3.0","""event"",""trial"",""time""
""fullscreenenter"",""0"",""2210""
","
","
","""event"",""trial"",""time""
""fullscreenenter"",""0"",""2210""
","
","6421.200000047684","<div class='center'><p>Once you've chosen a pirate, you’ll be shown the ship they are robbing. You will never rob the same ship twice. Ships can be told apart from one another by the image on them. These are the goods that they sell. See, this ship has a travel mug on it. </p><p> You’ll have to remember which island you saw each ship on. You will win more gold coins and hence more bonus money if you remember correctly! To help you remember, you can imagine a story. For example, here, you could imagine a mug full of water in the desert. Or, as another example, if on the forest island, your pirate robbed a ship with an apple on it, you could imagine an apple falling from a tree in the forest. </p><p><img src='run_exp/static/images/tutorial/example_probe.png' height='500'></p><p><b>[Press the space bar to continue]</b></p></div>","32","","","","","","","","","","","","","","","","","","","","","","",""
"","instruc11","40","262975","0.0-35.0-4.0","""event"",""trial"",""time""
""fullscreenenter"",""0"",""2210""
","
","
","""event"",""trial"",""time""
""fullscreenenter"",""0"",""2210""
","
","null","run_exp/static/audio/clip_13_changepoint.m4a","null","","","","","<div class='center'><p>How successful a pirate is at robbing ships will depend on the island you’re on.</p><p> A pirate may have visited this island many times before and gained a lot of practice robbing ships there.</p><p>So, they’re more likely to be successful than a pirate who has never visited the island before.</p></div>","","","","","","","","","","","","","","","","","",""
"","html-keyboard-response","41","264458","0.0-35.0-5.0","""event"",""trial"",""time""
""fullscreenenter"",""0"",""2210""
","
","
","""event"",""trial"",""time""
""fullscreenenter"",""0"",""2210""
","
","1480","<div class='center'><p>How successful a pirate is at robbing ships will depend on the island you’re on.</p><p> A pirate may have visited this island many times before and gained a lot of practice robbing ships there.</p><p>So, they’re more likely to be successful than a pirate who has never visited the island before.</p><p><b>[Press the space bar to continue]</b></p></div>","32","","","","","","","","","","","","","","","","","","","","","","",""
"","instruc12","42","305555","0.0-35.0-6.0","""event"",""trial"",""time""
""fullscreenenter"",""0"",""2210""
","
","
","""event"",""trial"",""time""
""fullscreenenter"",""0"",""2210""
","
","null","run_exp/static/audio/clip_14_drift.m4a","null","","","","","<div class='center'><p>How successful a pirate is at robbing ships can also change over the time spent on the island. </p><p> Ships may hear from islanders about the pirates coming and will improve their protections against the attack. This may make it harder to rob them.</p><p> Ships may also become lazy and weaken the strength of their protections. This may make it easier to rob them.</p><br><p>Things are always changing on the high seas! So, try your best to pay attention!</p><p><img src='run_exp/static/images/tutorial/contingency.png' height='500'></p></div>","","","","","","","","","","","","","","","","","",""
"","html-keyboard-response","43","319551","0.0-35.0-7.0","""event"",""trial"",""time""
""fullscreenenter"",""0"",""2210""
","
","
","""event"",""trial"",""time""
""fullscreenenter"",""0"",""2210""
","
","13993.299999952316","<div class='center'><p>How successful a pirate is at robbing ships can also change over the time spent on the island. </p><p> Ships may hear from islanders about the pirates coming and will improve their protections against the attack. This may make it harder to rob them.</p><p> Ships may also become lazy and weaken the strength of their protections. This may make it easier to rob them.</p><br><p>Things are always changing on the high seas! So, try your best to pay attention!</p><p><img src='run_exp/static/images/tutorial/contingency.png' height='500'></p><p><b>[Press the space bar to continue]</b></p></div>","32","","","","","","","","","","","","","","","","","","","","","","",""
"","instruc13","44","354709","0.0-35.0-8.0","""event"",""trial"",""time""
""fullscreenenter"",""0"",""2210""
","
","
","""event"",""trial"",""time""
""fullscreenenter"",""0"",""2210""
","
","null","run_exp/static/audio/clip_15_summary.m4a","null","","","","","<div class='center'><p>Let's go over the instructions quickly again. You have two important things to do: </p><b><p> 1. Pick the pirate who is the best at robbing ships on the current island. </p></b><b><p> 2. Remember on which island a ship was robbed.</p> </b><p>The amount of bonus money you can win depends on both.</p><p><br><p>Let’s try a practice game. The game will start by showing you the pirates. First, pick a pirate using the <b> 1, 2, 3 </b> keys on your keyboard. When you are shown a ship, try to remember which island you’re on by making up a story.</p><p>This is just a practice game, so you’re not playing for money. </p><p> Good luck! This game will be very difficult but try your best!</p></div>","","","","","","","","","","","","","","","","","",""
"","html-keyboard-response","45","359296","0.0-35.0-9.0","""event"",""trial"",""time""
""fullscreenenter"",""0"",""2210""
","
","
","""event"",""trial"",""time""
""fullscreenenter"",""0"",""2210""
","
","4583.699999988079","<div class='center'><p>Let's go over the instructions quickly again. You have two important things to do: </p><b><p> 1. Pick the pirate who is the best at robbing ships on the current island. </p></b><b><p> 2. Remember on which island a ship was robbed.</p> </b><p>The amount of bonus money you can win depends on both.</p><p><br><p>Let’s try a practice game. The game will start by showing you the pirates. First, pick a pirate using the <b> 1, 2, 3 </b> keys on your keyboard. When you are shown a ship, try to remember which island you’re on by making up a story.</p><p>This is just a practice game, so you’re not playing for money. </p><p> Good luck! This game will be very difficult but try your best!</p><p><b>[Press the space bar to continue]</b></p></div>","32","","","","","","","","","","","","","","","","","","","","","","",""
"","do_welcome","46","363312","0.0-35.0-10.0","""event"",""trial"",""time""
""fullscreenenter"",""0"",""2210""
","
","
","""event"",""trial"",""time""
""fullscreenenter"",""0"",""2210""
","
","null","","","","","","","","null","","","","","","","","","","","","","","","","",""
"","do_trial","47","370751","0.0-35.0-11.0","""event"",""trial"",""time""
""fullscreenenter"",""0"",""2210""
","
","
","""event"",""trial"",""time""
""fullscreenenter"",""0"",""2210""
","
","2921","","","","","","","","49","1,0,0","","","","","","","","","","","","","","","",""
"","html-keyboard-response","48","371756","0.0-36.0-0.0","""event"",""trial"",""time""
""fullscreenenter"",""0"",""2210""
","
","
","""event"",""trial"",""time""
""fullscreenenter"",""0"",""2210""
","
","null","<p></p>","null","","","","","","","","","","","","","","","","","","","","","","",""
"","do_trial","49","377513","0.0-36.0-1.0","""event"",""trial"",""time""
""fullscreenenter"",""0"",""2210""
","
","
","""event"",""trial"",""time""
""fullscreenenter"",""0"",""2210""
","
","1242.3999999761581","","","","","","","","49","1,1,0","","","","","","","","","","","","","","","",""
"","html-keyboard-response","50","378517","0.0-37.0-0.0","""event"",""trial"",""time""
""fullscreenenter"",""0"",""2210""
","
","
","""event"",""trial"",""time""
""fullscreenenter"",""0"",""2210""
","
","null","<p></p>","null","","","","","","","","","","","","","","","","","","","","","","",""
"","do_trial","51","383742","0.0-37.0-1.0","""event"",""trial"",""time""
""fullscreenenter"",""0"",""2210""
","
","
","""event"",""trial"",""time""
""fullscreenenter"",""0"",""2210""
","
","708.6999999880791","","","","","","","","49","1,0,1","","","","","","","","","","","","","","","",""
"","html-keyboard-response","52","384745","0.0-38.0-0.0","""event"",""trial"",""time""
""fullscreenenter"",""0"",""2210""
","
","
","""event"",""trial"",""time""
""fullscreenenter"",""0"",""2210""
","
","null","<p></p>","null","","","","","","","","","","","","","","","","","","","","","","",""
"","do_trial","53","390760","0.0-38.0-1.0","""event"",""trial"",""time""
""fullscreenenter"",""0"",""2210""
","
","
","""event"",""trial"",""time""
""fullscreenenter"",""0"",""2210""
","
","null","","","","","","","","null","0,1,0","","","","","","","","","","","","","","","",""
"","html-keyboard-response","54","391767","0.0-39.0-0.0","""event"",""trial"",""time""
""fullscreenenter"",""0"",""2210""
","
","
","""event"",""trial"",""time""
""fullscreenenter"",""0"",""2210""
","
","null","<p></p>","null","","","","","","","","","","","","","","","","","","","","","","",""
"","do_trial","55","396713","0.0-39.0-1.0","""event"",""trial"",""time""
""fullscreenenter"",""0"",""2210""
","
","
","""event"",""trial"",""time""
""fullscreenenter"",""0"",""2210""
","
","439","","","","","","","","49","0,1,0","","","","","","","","","","","","","","","",""
"","html-keyboard-response","56","397714","0.0-40.0-0.0","""event"",""trial"",""time""
""fullscreenenter"",""0"",""2210""
","
","
","""event"",""trial"",""time""
""fullscreenenter"",""0"",""2210""
","
","null","<p></p>","null","","","","","","","","","","","","","","","","","","","","","","",""
"","do_trial","57","402868","0.0-40.0-1.0","""event"",""trial"",""time""
""fullscreenenter"",""0"",""2210""
","
","
","""event"",""trial"",""time""
""fullscreenenter"",""0"",""2210""
","
","641.3000000119209","","","","","","","","49","1,0,0","","","","","","","","","","","","","","","",""
"","do_bye","58","404373","0.0-41.0-0.0","""event"",""trial"",""time""
""fullscreenenter"",""0"",""2210""
","
","
","""event"",""trial"",""time""
""fullscreenenter"",""0"",""2210""
","
","null","","","","","","","","null","","","","","","","","","","","","","","","","",""
"","do_travel","59","413379","0.0-41.0-1.0","""event"",""trial"",""time""
""fullscreenenter"",""0"",""2210""
","
","
","""event"",""trial"",""time""
""fullscreenenter"",""0"",""2210""
","
","null","","","","","","","","null","","","","","","","","","","","","","","","","",""
"","do_welcome","60","417394","0.0-41.0-2.0","""event"",""trial"",""time""
""fullscreenenter"",""0"",""2210""
","
","
","""event"",""trial"",""time""
""fullscreenenter"",""0"",""2210""
","
","null","","","","","","","","null","","","","","","","","","","","","","","","","",""
"","do_trial","61","423990","0.0-41.0-3.0","""event"",""trial"",""time""
""fullscreenenter"",""0"",""2210""
","
","
","""event"",""trial"",""time""
""fullscreenenter"",""0"",""2210""
","
","2079.600000023842","","","","","","","","49","1,0,0","","","","","","","","","","","","","","","",""
"","html-keyboard-response","62","424995","0.0-42.0-0.0","""event"",""trial"",""time""
""fullscreenenter"",""0"",""2210""
","
","
","""event"",""trial"",""time""
""fullscreenenter"",""0"",""2210""
","
","null","<p></p>","null","","","","","","","","","","","","","","","","","","","","","","",""
"","do_trial","63","431113","0.0-42.0-1.0","""event"",""trial"",""time""
""fullscreenenter"",""0"",""2210""
","
","
","""event"",""trial"",""time""
""fullscreenenter"",""0"",""2210""
","
","1613.0999999642372","","","","","","","","49","1,0,1","","","","","","","","","","","","","","","",""
"","html-keyboard-response","64","432117","0.0-43.0-0.0","""event"",""trial"",""time""
""fullscreenenter"",""0"",""2210""
","
","
","""event"",""trial"",""time""
""fullscreenenter"",""0"",""2210""
","
","null","<p></p>","null","","","","","","","","","","","","","","","","","","","","","","",""
"","do_trial","65","437131","0.0-43.0-1.0","""event"",""trial"",""time""
""fullscreenenter"",""0"",""2210""
","
","
","""event"",""trial"",""time""
""fullscreenenter"",""0"",""2210""
","
","509.60000002384186","","","","","","","","49","1,1,0","","","","","","","","","","","","","","","",""
"","html-keyboard-response","66","438134","0.0-44.0-0.0","""event"",""trial"",""time""
""fullscreenenter"",""0"",""2210""
","
","
","""event"",""trial"",""time""
""fullscreenenter"",""0"",""2210""
","
","null","<p></p>","null","","","","","","","","","","","","","","","","","","","","","","",""
"","do_trial","67","443861","0.0-44.0-1.0","""event"",""trial"",""time""
""fullscreenenter"",""0"",""2210""
","
","
","""event"",""trial"",""time""
""fullscreenenter"",""0"",""2210""
","
","1211.3999999761581","","","","","","","","49","0,0,1","","","","","","","","","","","","","","","",""
"","html-keyboard-response","68","444866","0.0-45.0-0.0","""event"",""trial"",""time""
""fullscreenenter"",""0"",""2210""
","
","
","""event"",""trial"",""time""
""fullscreenenter"",""0"",""2210""
","
","null","<p></p>","null","","","","","","","","","","","","","","","","","","","","","","",""
"","do_trial","69","450149","0.0-45.0-1.0","""event"",""trial"",""time""
""fullscreenenter"",""0"",""2210""
","
","
","""event"",""trial"",""time""
""fullscreenenter"",""0"",""2210""
","
","774.6999999880791","","","","","","","","49","1,0,1","","","","","","","","","","","","","","","",""
"","html-keyboard-response","70","452132","0.0-46.0-0.0","""event"",""trial"",""time""
""fullscreenenter"",""0"",""2210""
","
","
","""event"",""trial"",""time""
""fullscreenenter"",""0"",""2210""
","
","1978.3999999761581","<div class='center'><p><img src='run_exp/static/images/tutorial/prac_best_pirate.png'  height='500'></p></div>","49","","","","","","","","","","","","","","","","","","","","","","",""
"","html-keyboard-response","71","453596","0.0-47.0-0.0","""event"",""trial"",""time""
""fullscreenenter"",""0"",""2210""
","
","
","""event"",""trial"",""time""
""fullscreenenter"",""0"",""2210""
","
","1462.9000000357628","<div class='center'><p>That's correct! Red beard was the best.</p><p><b>[Press the space bar to continue]</b></p></div>","32","","","","","","","","","","","","","","","","","","","","","","",""
"","html-keyboard-response","72","456190","0.0-47.0-1.0","""event"",""trial"",""time""
""fullscreenenter"",""0"",""2210""
","
","
","""event"",""trial"",""time""
""fullscreenenter"",""0"",""2210""
","
","2592.300000011921","<div class='center'><p><img src='run_exp/static/images/tutorial/prac_source.png'  height='500'></p></div>","50","","","","","","","","","","","","","","","","","","","","","","",""
"","html-keyboard-response","73","457083","0.0-48.0-0.0","""event"",""trial"",""time""
""fullscreenenter"",""0"",""2210""
","
","
","""event"",""trial"",""time""
""fullscreenenter"",""0"",""2210""
","
","890.3000000119209","<div class='center'><p>That's correct! You saw this ship on the cavern island.</p><p><b>[Press the space bar to continue]</b></p></div>","32","","","","","","","","","","","","","","","","","","","","","","",""
"","quiz_beginning","74","469020","0.0-48.0-1.0","""event"",""trial"",""time""
""fullscreenenter"",""0"",""2210""
","
","
","""event"",""trial"",""time""
""fullscreenenter"",""0"",""2210""
","
","null","run_exp/static/audio/clip_16_quiz_intro.m4a","null","","","","","<div class='center'><p>Good job on the practice game! Now, you will be asked some true or false questions to make sure you really understand the rules of the game.</p><p> Press <b>'1'</b> on the keyboard for true and press <b>'2'</b> for false.</p></div>","","","","","","","","","","","","","","","","","",""
"","audio-keyboard-response","75","474980","0.0-48.0-2.0","""event"",""trial"",""time""
""fullscreenenter"",""0"",""2210""
","
","
","""event"",""trial"",""time""
""fullscreenenter"",""0"",""2210""
","
","5956.5","run_exp/static/audio/clip_17_q1.m4a","50","","","","","","","","","","","","","","","","","","","","","","",""
"","q1_err","76","479880","0.0-49.0-0.0","""event"",""trial"",""time""
""fullscreenenter"",""0"",""2210""
","
","
","""event"",""trial"",""time""
""fullscreenenter"",""0"",""2210""
","
","null","run_exp/static/audio/clip_19_wrong_q1.m4a","null","","","","","<div class='center'><p>That’s incorrect. You win bonus money by collecting gold coins.</p></div>","","","","","","","","","","","","","","","","","",""
"","html-keyboard-response","77","482597","0.0-49.0-1.0","""event"",""trial"",""time""
""fullscreenenter"",""0"",""2210""
","
","
","""event"",""trial"",""time""
""fullscreenenter"",""0"",""2210""
","
","2715.100000023842","<div class='center'><p>That’s incorrect. You win bonus money by collecting gold coins.</p><p><b>[Press the space bar to continue]</b></p></div>","32","","","","","","","","","","","","","","","","","","","","","","",""
"","audio-keyboard-response","78","506472","0.0-49.0-2.0","""event"",""trial"",""time""
""fullscreenenter"",""0"",""2210""
","
","
","""event"",""trial"",""time""
""fullscreenenter"",""0"",""2210""
","
","23872","run_exp/static/audio/clip_20_q2.m4a","50","","","","","","","","","","","","","","","","","","","","","","",""
"","correct","79","509524","0.0-50.0-0.0","""event"",""trial"",""time""
""fullscreenenter"",""0"",""2210""
","
","
","""event"",""trial"",""time""
""fullscreenenter"",""0"",""2210""
","
","null","run_exp/static/audio/clip_18_correct.m4a","null","","","","","<div class='center'><p>That's correct!</p></div>","","","","","","","","","","","","","","","","","",""
"","html-keyboard-response","80","510303","0.0-50.0-1.0","""event"",""trial"",""time""
""fullscreenenter"",""0"",""2210""
","
","
","""event"",""trial"",""time""
""fullscreenenter"",""0"",""2210""
","
","776.8999999761581","<div class='center'><p>That's correct!</p><p><b>[Press the space bar to continue]</b></p></div>","32","","","","","","","","","","","","","","","","","","","","","","",""
"","audio-keyboard-response","81","517095","0.0-50.0-2.0","""event"",""trial"",""time""
""fullscreenenter"",""0"",""2210""
","
","
","""event"",""trial"",""time""
""fullscreenenter"",""0"",""2210""
","
","6791.400000035763","run_exp/static/audio/clip_22_q3.m4a","50","","","","","","","","","","","","","","","","","","","","","","",""
"","correct","82","519484","0.0-51.0-0.0","""event"",""trial"",""time""
""fullscreenenter"",""0"",""2210""
","
","
","""event"",""trial"",""time""
""fullscreenenter"",""0"",""2210""
","
","null","run_exp/static/audio/clip_18_correct.m4a","null","","","","","<div class='center'><p>That's correct!</p></div>","","","","","","","","","","","","","","","","","",""
"","html-keyboard-response","83","520099","0.0-51.0-1.0","""event"",""trial"",""time""
""fullscreenenter"",""0"",""2210""
","
","
","""event"",""trial"",""time""
""fullscreenenter"",""0"",""2210""
","
","614.5","<div class='center'><p>That's correct!</p><p><b>[Press the space bar to continue]</b></p></div>","32","","","","","","","","","","","","","","","","","","","","","","",""
"","audio-keyboard-response","84","521804","0.0-51.0-2.0","""event"",""trial"",""time""
""fullscreenenter"",""0"",""2210""
","
","
","""event"",""trial"",""time""
""fullscreenenter"",""0"",""2210""
","
","1703.300000011921","run_exp/static/audio/clip_24_q4.m4a","49","","","","","","","","","","","","","","","","","","","","","","",""
"","correct","85","524202","0.0-52.0-0.0","""event"",""trial"",""time""
""fullscreenenter"",""0"",""2210""
","
","
","""event"",""trial"",""time""
""fullscreenenter"",""0"",""2210""
","
","null","run_exp/static/audio/clip_18_correct.m4a","null","","","","","<div class='center'><p>That's correct!</p></div>","","","","","","","","","","","","","","","","","",""
"","html-keyboard-response","86","524860","0.0-52.0-1.0","""event"",""trial"",""time""
""fullscreenenter"",""0"",""2210""
","
","
","""event"",""trial"",""time""
""fullscreenenter"",""0"",""2210""
","
","657.7000000476837","<div class='center'><p>That's correct!</p><p><b>[Press the space bar to continue]</b></p></div>","32","","","","","","","","","","","","","","","","","","","","","","",""
"","q_all_err","87","531044","0.0-53.0-0.0","""event"",""trial"",""time""
""fullscreenenter"",""0"",""2210""
","
","
","""event"",""trial"",""time""
""fullscreenenter"",""0"",""2210""
","
","null","run_exp/static/audio/clip_26_quiz_redo.m4a","null","","","","","<div class='center'><p>Oops, you missed some questions. Now that you’ve heard the correct answers. Try the quiz again! </p></div>","","","","","","","","","","","","","","","","","",""
"","html-keyboard-response","88","531747","0.0-53.0-1.0","""event"",""trial"",""time""
""fullscreenenter"",""0"",""2210""
","
","
","""event"",""trial"",""time""
""fullscreenenter"",""0"",""2210""
","
","701.1000000238419","<div class='center'><p>Oops, you missed some questions. Now that you’ve heard the correct answers. Try the quiz again! </p><p><b>[Press the space bar to continue]</b></p></div>","32","","","","","","","","","","","","","","","","","","","","","","",""
"","audio-keyboard-response","89","533063","0.0-53.0-2.0","""event"",""trial"",""time""
""fullscreenenter"",""0"",""2210""
","
","
","""event"",""trial"",""time""
""fullscreenenter"",""0"",""2210""
","
","1314.199999988079","run_exp/static/audio/clip_17_q1.m4a","49","","","","","","","","","","","","","","","","","","","","","","",""
"","correct","90","535464","0.0-54.0-0.0","""event"",""trial"",""time""
""fullscreenenter"",""0"",""2210""
","
","
","""event"",""trial"",""time""
""fullscreenenter"",""0"",""2210""
","
","null","run_exp/static/audio/clip_18_correct.m4a","null","","","","","<div class='center'><p>That's correct!</p></div>","","","","","","","","","","","","","","","","","",""
"","html-keyboard-response","91","536048","0.0-54.0-1.0","""event"",""trial"",""time""
""fullscreenenter"",""0"",""2210""
","
","
","""event"",""trial"",""time""
""fullscreenenter"",""0"",""2210""
","
","582.6000000238419","<div class='center'><p>That's correct!</p><p><b>[Press the space bar to continue]</b></p></div>","32","","","","","","","","","","","","","","","","","","","","","","",""
"","audio-keyboard-response","92","542135","0.0-54.0-2.0","""event"",""trial"",""time""
""fullscreenenter"",""0"",""2210""
","
","
","""event"",""trial"",""time""
""fullscreenenter"",""0"",""2210""
","
","6084.5","run_exp/static/audio/clip_20_q2.m4a","50","","","","","","","","","","","","","","","","","","","","","","",""
"","correct","93","544524","0.0-55.0-0.0","""event"",""trial"",""time""
""fullscreenenter"",""0"",""2210""
","
","
","""event"",""trial"",""time""
""fullscreenenter"",""0"",""2210""
","
","null","run_exp/static/audio/clip_18_correct.m4a","null","","","","","<div class='center'><p>That's correct!</p></div>","","","","","","","","","","","","","","","","","",""
"","html-keyboard-response","94","545248","0.0-55.0-1.0","""event"",""trial"",""time""
""fullscreenenter"",""0"",""2210""
","
","
","""event"",""trial"",""time""
""fullscreenenter"",""0"",""2210""
","
","722.6000000238419","<div class='center'><p>That's correct!</p><p><b>[Press the space bar to continue]</b></p></div>","32","","","","","","","","","","","","","","","","","","","","","","",""
"","audio-keyboard-response","95","546718","0.0-55.0-2.0","""event"",""trial"",""time""
""fullscreenenter"",""0"",""2210""
","
","
","""event"",""trial"",""time""
""fullscreenenter"",""0"",""2210""
","
","1467.5","run_exp/static/audio/clip_22_q3.m4a","50","","","","","","","","","","","","","","","","","","","","","","",""
"","correct","96","549104","0.0-56.0-0.0","""event"",""trial"",""time""
""fullscreenenter"",""0"",""2210""
","
","
","""event"",""trial"",""time""
""fullscreenenter"",""0"",""2210""
","
","null","run_exp/static/audio/clip_18_correct.m4a","null","","","","","<div class='center'><p>That's correct!</p></div>","","","","","","","","","","","","","","","","","",""
"","html-keyboard-response","97","549507","0.0-56.0-1.0","""event"",""trial"",""time""
""fullscreenenter"",""0"",""2210""
","
","
","""event"",""trial"",""time""
""fullscreenenter"",""0"",""2210""
","
","401.30000001192093","<div class='center'><p>That's correct!</p><p><b>[Press the space bar to continue]</b></p></div>","32","","","","","","","","","","","","","","","","","","","","","","",""
"","audio-keyboard-response","98","550939","0.0-56.0-2.0","""event"",""trial"",""time""
""fullscreenenter"",""0"",""2210""
","
","
","""event"",""trial"",""time""
""fullscreenenter"",""0"",""2210""
","
","1430","run_exp/static/audio/clip_24_q4.m4a","49","","","","","","","","","","","","","","","","","","","","","","",""
"","correct","99","553383","0.0-57.0-0.0","""event"",""trial"",""time""
""fullscreenenter"",""0"",""2210""
","
","
","""event"",""trial"",""time""
""fullscreenenter"",""0"",""2210""
","
","null","run_exp/static/audio/clip_18_correct.m4a","null","","","","","<div class='center'><p>That's correct!</p></div>","","","","","","","","","","","","","","","","","",""
"","html-keyboard-response","100","553906","0.0-57.0-1.0","""event"",""trial"",""time""
""fullscreenenter"",""0"",""2210""
","
","
","""event"",""trial"",""time""
""fullscreenenter"",""0"",""2210""
","
","523.0999999642372","<div class='center'><p>That's correct!</p><p><b>[Press the space bar to continue]</b></p></div>","32","","","","","","","","","","","","","","","","","","","","","","",""
"","q_all_corr","101","562382","0.0-58.0-0.0","""event"",""trial"",""time""
""fullscreenenter"",""0"",""2210""
","
","
","""event"",""trial"",""time""
""fullscreenenter"",""0"",""2210""
","
","null","run_exp/static/audio/clip_27_quiz_all_correct.m4a","null","","","","","<div class='center'><p>Good job! You’re now ready to move on to the real game! Remember this game will be difficult but don't get discouraged and try your best!</p></div>","","","","","","","","","","","","","","","","","",""
"","html-keyboard-response","102","562973","0.0-58.0-1.0","""event"",""trial"",""time""
""fullscreenenter"",""0"",""2210""
","
","
","""event"",""trial"",""time""
""fullscreenenter"",""0"",""2210""
","
","589.0999999642372","<div class='center'><p>Good job! You’re now ready to move on to the real game! Remember this game will be difficult but don't get discouraged and try your best!</p><p><b>[Press the space bar to continue]</b></p></div>","32","","","","","","","","","","","","","","","","","","","","","","",""
"","do_welcome","103","566987","0.0-59.0-0.0","""event"",""trial"",""time""
""fullscreenenter"",""0"",""2210""
","
","
","""event"",""trial"",""time""
""fullscreenenter"",""0"",""2210""
","
","null","","","","","","","","null","","","","","","","","","","","","","","","","",""
"","do_trial","104","573141","0.0-60.0-0.0","""event"",""trial"",""time""
""fullscreenenter"",""0"",""2210""
","
","
","""event"",""trial"",""time""
""fullscreenenter"",""0"",""2210""
","
","1594.699999988079","","","","","","","","49","1,1,0","0","city","0","probe-107","0.6","0.3","0.1","1","","","","","","","",""
"","html-keyboard-response","105","574146","0.0-60.0-1.0","""event"",""trial"",""time""
""fullscreenenter"",""0"",""2210""
","
","
","""event"",""trial"",""time""
""fullscreenenter"",""0"",""2210""
","
","null","<p></p>","null","","","","","","","","","","","","","","","","","","","","","","",""
"","do_trial","106","579170","0.0-61.0-0.0","""event"",""trial"",""time""
""fullscreenenter"",""0"",""2210""
","
","
","""event"",""trial"",""time""
""fullscreenenter"",""0"",""2210""
","
","482.89999997615814","","","","","","","","49","1,0,0","0","city","1","probe-223","0.6297844550996792","0.11714157338031271","0.059229091348491004","1","","","","","","","",""
"","html-keyboard-response","107","580173","0.0-61.0-1.0","""event"",""trial"",""time""
""fullscreenenter"",""0"",""2210""
","
","
","""event"",""trial"",""time""
""fullscreenenter"",""0"",""2210""
","
","null","<p></p>","null","","","","","","","","","","","","","","","","","","","","","","",""
"","do_trial","108","585360","0.0-62.0-0.0","""event"",""trial"",""time""
""fullscreenenter"",""0"",""2210""
","
","
","""event"",""trial"",""time""
""fullscreenenter"",""0"",""2210""
","
","650.6000000238419","","","","","","","","49","1,0,1","0","city","2","probe-152","0.5905373034450163","0.20761637667637037","0.1091664369291023","1","","","","","","","",""
"","html-keyboard-response","109","586364","0.0-62.0-1.0","""event"",""trial"",""time""
""fullscreenenter"",""0"",""2210""
","
","
","""event"",""trial"",""time""
""fullscreenenter"",""0"",""2210""
","
","null","<p></p>","null","","","","","","","","","","","","","","","","","","","","","","",""
"","do_trial","110","591557","0.0-63.0-0.0","""event"",""trial"",""time""
""fullscreenenter"",""0"",""2210""
","
","
","""event"",""trial"",""time""
""fullscreenenter"",""0"",""2210""
","
","652.1000000238419","","","","","","","","49","1,1,0","0","city","3","probe-217","0.6220989256805219","0.27693597294783556","0.1637255214633909","1","","","","","","","",""
"","html-keyboard-response","111","592561","0.0-63.0-1.0","""event"",""trial"",""time""
""fullscreenenter"",""0"",""2210""
","
","
","""event"",""trial"",""time""
""fullscreenenter"",""0"",""2210""
","
","null","<p></p>","null","","","","","","","","","","","","","","","","","","","","","","",""
"","do_trial","112","598732","0.0-64.0-0.0","""event"",""trial"",""time""
""fullscreenenter"",""0"",""2210""
","
","
","""event"",""trial"",""time""
""fullscreenenter"",""0"",""2210""
","
","1609.4000000357628","","","","","","","","49","1,0,0","0","city","4","probe-194","0.8080610786358239","0.3648570441494003","0.15296123175356058","1","","","","","","","",""
"","html-keyboard-response","113","599735","0.0-64.0-1.0","""event"",""trial"",""time""
""fullscreenenter"",""0"",""2210""
","
","
","""event"",""trial"",""time""
""fullscreenenter"",""0"",""2210""
","
","null","<p></p>","null","","","","","","","","","","","","","","","","","","","","","","",""
"","do_trial","114","604881","0.0-65.0-0.0","""event"",""trial"",""time""
""fullscreenenter"",""0"",""2210""
","
","
","""event"",""trial"",""time""
""fullscreenenter"",""0"",""2210""
","
","606.6999999880791","","","","","","","","49","1,0,0","0","city","5","probe-51","0.7085362499067486","0.38273236462790666","0.13068702933775944","1","","","","","","","",""
"","html-keyboard-response","115","605884","0.0-65.0-1.0","""event"",""trial"",""time""
""fullscreenenter"",""0"",""2210""
","
","
","""event"",""trial"",""time""
""fullscreenenter"",""0"",""2210""
","
","null","<p></p>","null","","","","","","","","","","","","","","","","","","","","","","",""
"","do_trial","116","611445","0.0-66.0-0.0","""event"",""trial"",""time""
""fullscreenenter"",""0"",""2210""
","
","
","""event"",""trial"",""time""
""fullscreenenter"",""0"",""2210""
","
","999.1000000238419","","","","","","","","49","1,0,0","0","city","6","probe-120","0.686105145639932","0.2051223148626432","0.13047251935182083","1","","","","","","","",""
"","html-keyboard-response","117","612448","0.0-66.0-1.0","""event"",""trial"",""time""
""fullscreenenter"",""0"",""2210""
","
","
","""event"",""trial"",""time""
""fullscreenenter"",""0"",""2210""
","
","null","<p></p>","null","","","","","","","","","","","","","","","","","","","","","","",""
"","do_trial","118","617783","0.0-67.0-0.0","""event"",""trial"",""time""
""fullscreenenter"",""0"",""2210""
","
","
","""event"",""trial"",""time""
""fullscreenenter"",""0"",""2210""
","
","776","","","","","","","","49","0,0,0","0","city","7","probe-226","0.6748627102613878","0.11016672617395978","0.28308205645944173","0","","","","","","","",""
"","html-keyboard-response","119","618786","0.0-67.0-1.0","""event"",""trial"",""time""
""fullscreenenter"",""0"",""2210""
","
","
","""event"",""trial"",""time""
""fullscreenenter"",""0"",""2210""
","
","null","<p></p>","null","","","","","","","","","","","","","","","","","","","","","","",""
"","do_trial","120","624080","0.0-68.0-0.0","""event"",""trial"",""time""
""fullscreenenter"",""0"",""2210""
","
","
","""event"",""trial"",""time""
""fullscreenenter"",""0"",""2210""
","
","754.5999999642372","","","","","","","","49","1,0,1","0","city","8","probe-73","0.7099392457273842","0.16363987033515826","0.284759046602722","1","","","","","","","",""
"","html-keyboard-response","121","625083","0.0-68.0-1.0","""event"",""trial"",""time""
""fullscreenenter"",""0"",""2210""
","
","
","""event"",""trial"",""time""
""fullscreenenter"",""0"",""2210""
","
","null","<p></p>","null","","","","","","","","","","","","","","","","","","","","","","",""
"","do_trial","122","630374","0.0-69.0-0.0","""event"",""trial"",""time""
""fullscreenenter"",""0"",""2210""
","
","
","""event"",""trial"",""time""
""fullscreenenter"",""0"",""2210""
","
","752.6999999880791","","","","","","","","49","0,0,0","0","city","9","probe-49","0.6270329370406431","0.34126888950764667","0.05372359836677727","0","","","","","","","",""
"","html-keyboard-response","123","631377","0.0-69.0-1.0","""event"",""trial"",""time""
""fullscreenenter"",""0"",""2210""
","
","
","""event"",""trial"",""time""
""fullscreenenter"",""0"",""2210""
","
","null","<p></p>","null","","","","","","","","","","","","","","","","","","","","","","",""
"","do_trial","124","636862","0.0-70.0-0.0","""event"",""trial"",""time""
""fullscreenenter"",""0"",""2210""
","
","
","""event"",""trial"",""time""
""fullscreenenter"",""0"",""2210""
","
","928.5","","","","","","","","49","1,0,0","0","city","10","probe-146","0.6189226304149196","0.20333137961964107","0.06884940585327465","1","","","","","","","",""
"","html-keyboard-response","125","637864","0.0-70.0-1.0","""event"",""trial"",""time""
""fullscreenenter"",""0"",""2210""
","
","
","""event"",""trial"",""time""
""fullscreenenter"",""0"",""2210""
","
","null","<p></p>","null","","","","","","","","","","","","","","","","","","","","","","",""
"","do_trial","126","643063","0.0-71.0-0.0","""event"",""trial"",""time""
""fullscreenenter"",""0"",""2210""
","
","
","""event"",""trial"",""time""
""fullscreenenter"",""0"",""2210""
","
","660.3999999761581","","","","","","","","49","1,1,0","0","city","11","probe-17","0.5733592048326834","0.23513516482909236","0.12110570137655242","1","","","","","","","",""
"","html-keyboard-response","127","644066","0.0-71.0-1.0","""event"",""trial"",""time""
""fullscreenenter"",""0"",""2210""
","
","
","""event"",""trial"",""time""
""fullscreenenter"",""0"",""2210""
","
","null","<p></p>","null","","","","","","","","","","","","","","","","","","","","","","",""
"","do_trial","128","649325","0.0-72.0-0.0","""event"",""trial"",""time""
""fullscreenenter"",""0"",""2210""
","
","
","""event"",""trial"",""time""
""fullscreenenter"",""0"",""2210""
","
","717.1000000238419","","","","","","","","49","0,0,0","0","city","12","probe-160","0.6089140141896419","0.2073853162035163","0.22456341800714247","0","","","","","","","",""
"","html-keyboard-response","129","650328","0.0-72.0-1.0","""event"",""trial"",""time""
""fullscreenenter"",""0"",""2210""
","
","
","""event"",""trial"",""time""
""fullscreenenter"",""0"",""2210""
","
","null","<p></p>","null","","","","","","","","","","","","","","","","","","","","","","",""
"","do_trial","130","655560","0.0-73.0-0.0","""event"",""trial"",""time""
""fullscreenenter"",""0"",""2210""
","
","
","""event"",""trial"",""time""
""fullscreenenter"",""0"",""2210""
","
","691.5","","","","","","","","49","0,0,0","0","city","13","probe-118","0.503568251501093","0.20463092039155592","0.08614920365949226","0","","","","","","","",""
"","html-keyboard-response","131","656564","0.0-73.0-1.0","""event"",""trial"",""time""
""fullscreenenter"",""0"",""2210""
","
","
","""event"",""trial"",""time""
""fullscreenenter"",""0"",""2210""
","
","null","<p></p>","null","","","","","","","","","","","","","","","","","","","","","","",""
"","do_trial","132","662181","0.0-74.0-0.0","""event"",""trial"",""time""
""fullscreenenter"",""0"",""2210""
","
","
","""event"",""trial"",""time""
""fullscreenenter"",""0"",""2210""
","
","1075.6000000238419","","","","","","","","50","0,0,0","0","city","14","probe-193","0.5034191188498605","0.24529031955215108","0.13852051654740172","0","","","","","","","",""
"","html-keyboard-response","133","663184","0.0-74.0-1.0","""event"",""trial"",""time""
""fullscreenenter"",""0"",""2210""
","
","
","""event"",""trial"",""time""
""fullscreenenter"",""0"",""2210""
","
","null","<p></p>","null","","","","","","","","","","","","","","","","","","","","","","",""
"","do_trial","134","668382","0.0-75.0-0.0","""event"",""trial"",""time""
""fullscreenenter"",""0"",""2210""
","
","
","""event"",""trial"",""time""
""fullscreenenter"",""0"",""2210""
","
","658.9000000357628","","","","","","","","51","1,1,0","0","city","15","probe-79","0.5118305478329461","0.27449139030454517","0.15217382022779466","0","","","","","","","",""
"","html-keyboard-response","135","669386","0.0-75.0-1.0","""event"",""trial"",""time""
""fullscreenenter"",""0"",""2210""
","
","
","""event"",""trial"",""time""
""fullscreenenter"",""0"",""2210""
","
","null","<p></p>","null","","","","","","","","","","","","","","","","","","","","","","",""
"","do_trial","136","674530","0.0-76.0-0.0","""event"",""trial"",""time""
""fullscreenenter"",""0"",""2210""
","
","
","""event"",""trial"",""time""
""fullscreenenter"",""0"",""2210""
","
","583.1999999880791","","","","","","","","49","1,0,0","0","city","16","probe-156","0.6641924047577328","0.26524136029100454","0.21050429143194044","1","","","","","","","",""
"","html-keyboard-response","137","675534","0.0-76.0-1.0","""event"",""trial"",""time""
""fullscreenenter"",""0"",""2210""
","
","
","""event"",""trial"",""time""
""fullscreenenter"",""0"",""2210""
","
","null","<p></p>","null","","","","","","","","","","","","","","","","","","","","","","",""
"","do_trial","138","680720","0.0-77.0-0.0","""event"",""trial"",""time""
""fullscreenenter"",""0"",""2210""
","
","
","""event"",""trial"",""time""
""fullscreenenter"",""0"",""2210""
","
","647.3000000119209","","","","","","","","49","1,0,0","0","city","17","probe-03","0.6211591905117305","0.20676102348905503","0.21707929114876723","1","","","","","","","",""
"","html-keyboard-response","139","681724","0.0-77.0-1.0","""event"",""trial"",""time""
""fullscreenenter"",""0"",""2210""
","
","
","""event"",""trial"",""time""
""fullscreenenter"",""0"",""2210""
","
","null","<p></p>","null","","","","","","","","","","","","","","","","","","","","","","",""
"","do_trial","140","686835","0.0-78.0-0.0","""event"",""trial"",""time""
""fullscreenenter"",""0"",""2210""
","
","
","""event"",""trial"",""time""
""fullscreenenter"",""0"",""2210""
","
","574.8000000119209","","","","","","","","49","0,1,0","0","city","18","probe-157","0.564519455795475","0.19971136036025983","0.11276219640602735","0","","","","","","","",""
"","html-keyboard-response","141","687838","0.0-78.0-1.0","""event"",""trial"",""time""
""fullscreenenter"",""0"",""2210""
","
","
","""event"",""trial"",""time""
""fullscreenenter"",""0"",""2210""
","
","null","<p></p>","null","","","","","","","","","","","","","","","","","","","","","","",""
"","do_trial","142","693759","0.0-79.0-0.0","""event"",""trial"",""time""
""fullscreenenter"",""0"",""2210""
","
","
","""event"",""trial"",""time""
""fullscreenenter"",""0"",""2210""
","
","1368.3999999761581","","","","","","","","49","0,0,0","0","city","19","probe-110","0.5261769269028446","0.21779618759235328","0.23618986824643287","0","","","","","","","",""
"","html-keyboard-response","143","694761","0.0-79.0-1.0","""event"",""trial"",""time""
""fullscreenenter"",""0"",""2210""
","
","
","""event"",""trial"",""time""
""fullscreenenter"",""0"",""2210""
","
","null","<p></p>","null","","","","","","","","","","","","","","","","","","","","","","",""
"","do_trial","144","700113","0.0-80.0-0.0","""event"",""trial"",""time""
""fullscreenenter"",""0"",""2210""
","
","
","""event"",""trial"",""time""
""fullscreenenter"",""0"",""2210""
","
","811.7000000476837","","","","","","","","50","1,0,0","0","city","20","probe-92","0.44106016979538226","0.276830724424924","0.2683215575746111","0","","","","","","","",""
"","html-keyboard-response","145","701116","0.0-80.0-1.0","""event"",""trial"",""time""
""fullscreenenter"",""0"",""2210""
","
","
","""event"",""trial"",""time""
""fullscreenenter"",""0"",""2210""
","
","null","<p></p>","null","","","","","","","","","","","","","","","","","","","","","","",""
"","do_trial","146","706191","0.0-81.0-0.0","""event"",""trial"",""time""
""fullscreenenter"",""0"",""2210""
","
","
","""event"",""trial"",""time""
""fullscreenenter"",""0"",""2210""
","
","533","","","","","","","","51","1,1,1","0","city","21","probe-173","0.5531633541655819","0.361482080694871","0.33562470606847045","1","","","","","","","",""
"","html-keyboard-response","147","707194","0.0-81.0-1.0","""event"",""trial"",""time""
""fullscreenenter"",""0"",""2210""
","
","
","""event"",""trial"",""time""
""fullscreenenter"",""0"",""2210""
","
","null","<p></p>","null","","","","","","","","","","","","","","","","","","","","","","",""
"","do_trial","148","712177","0.0-82.0-0.0","""event"",""trial"",""time""
""fullscreenenter"",""0"",""2210""
","
","
","""event"",""trial"",""time""
""fullscreenenter"",""0"",""2210""
","
","442.60000002384186","","","","","","","","51","1,1,0","0","city","22","probe-229","0.5697371751925021","0.47295861407898826","0.34092132628118554","0","","","","","","","",""
"","html-keyboard-response","149","713181","0.0-82.0-1.0","""event"",""trial"",""time""
""fullscreenenter"",""0"",""2210""
","
","
","""event"",""trial"",""time""
""fullscreenenter"",""0"",""2210""
","
","null","<p></p>","null","","","","","","","","","","","","","","","","","","","","","","",""
"","do_trial","150","719048","0.0-83.0-0.0","""event"",""trial"",""time""
""fullscreenenter"",""0"",""2210""
","
","
","""event"",""trial"",""time""
""fullscreenenter"",""0"",""2210""
","
","1327.8999999761581","","","","","","","","51","1,0,0","0","city","23","probe-159","0.74490801983191","0.3592471170104409","0.27815104301581756","0","","","","","","","",""
"","html-keyboard-response","151","720051","0.0-83.0-1.0","""event"",""trial"",""time""
""fullscreenenter"",""0"",""2210""
","
","
","""event"",""trial"",""time""
""fullscreenenter"",""0"",""2210""
","
","null","<p></p>","null","","","","","","","","","","","","","","","","","","","","","","",""
"","do_trial","152","726162","0.0-84.0-0.0","""event"",""trial"",""time""
""fullscreenenter"",""0"",""2210""
","
","
","""event"",""trial"",""time""
""fullscreenenter"",""0"",""2210""
","
","1571.1000000238419","","","","","","","","51","1,0,0","0","city","24","probe-41","0.624120243851608","0.43716340629457706","0.23387515989068508","0","","","","","","","",""
"","html-keyboard-response","153","727166","0.0-84.0-1.0","""event"",""trial"",""time""
""fullscreenenter"",""0"",""2210""
","
","
","""event"",""trial"",""time""
""fullscreenenter"",""0"",""2210""
","
","null","<p></p>","null","","","","","","","","","","","","","","","","","","","","","","",""
"","do_trial","154","732674","0.0-85.0-0.0","""event"",""trial"",""time""
""fullscreenenter"",""0"",""2210""
","
","
","""event"",""trial"",""time""
""fullscreenenter"",""0"",""2210""
","
","968","","","","","","","","50","0,1,1","0","city","25","probe-91","0.5895389866741451","0.3766354984504099","0.11660357758200472","1","","","","","","","",""
"","html-keyboard-response","155","733678","0.0-85.0-1.0","""event"",""trial"",""time""
""fullscreenenter"",""0"",""2210""
","
","
","""event"",""trial"",""time""
""fullscreenenter"",""0"",""2210""
","
","null","<p></p>","null","","","","","","","","","","","","","","","","","","","","","","",""
"","do_trial","156","738756","0.0-86.0-0.0","""event"",""trial"",""time""
""fullscreenenter"",""0"",""2210""
","
","
","""event"",""trial"",""time""
""fullscreenenter"",""0"",""2210""
","
","539.1000000238419","","","","","","","","50","1,0,0","0","city","26","probe-134","0.5423997018392706","0.4380782115678627","0.06471267643684564","0","","","","","","","",""
"","html-keyboard-response","157","739761","0.0-86.0-1.0","""event"",""trial"",""time""
""fullscreenenter"",""0"",""2210""
","
","
","""event"",""trial"",""time""
""fullscreenenter"",""0"",""2210""
","
","null","<p></p>","null","","","","","","","","","","","","","","","","","","","","","","",""
"","do_trial","158","744615","0.0-87.0-0.0","""event"",""trial"",""time""
""fullscreenenter"",""0"",""2210""
","
","
","""event"",""trial"",""time""
""fullscreenenter"",""0"",""2210""
","
","313.80000001192093","","","","","","","","50","0,0,0","0","city","27","probe-225","0.589793319589986","0.4345468696923617","0.20467142030695976","0","","","","","","","",""
"","html-keyboard-response","159","745618","0.0-87.0-1.0","""event"",""trial"",""time""
""fullscreenenter"",""0"",""2210""
","
","
","""event"",""trial"",""time""
""fullscreenenter"",""0"",""2210""
","
","null","<p></p>","null","","","","","","","","","","","","","","","","","","","","","","",""
"","do_trial","160","750575","0.0-88.0-0.0","""event"",""trial"",""time""
""fullscreenenter"",""0"",""2210""
","
","
","""event"",""trial"",""time""
""fullscreenenter"",""0"",""2210""
","
","420.69999998807907","","","","","","","","49","1,1,0","0","city","28","probe-117","0.5501058246814337","0.4383328195032764","0.11395703587102478","1","","","","","","","",""
"","html-keyboard-response","161","751578","0.0-88.0-1.0","""event"",""trial"",""time""
""fullscreenenter"",""0"",""2210""
","
","
","""event"",""trial"",""time""
""fullscreenenter"",""0"",""2210""
","
","null","<p></p>","null","","","","","","","","","","","","","","","","","","","","","","",""
"","do_trial","162","756390","0.0-89.0-0.0","""event"",""trial"",""time""
""fullscreenenter"",""0"",""2210""
","
","
","""event"",""trial"",""time""
""fullscreenenter"",""0"",""2210""
","
","272.10000002384186","","","","","","","","49","1,1,0","0","city","29","probe-115","0.6127488982434334","0.3821256678390421","0.10380148899485278","1","","","","","","","",""
"","html-keyboard-response","163","757394","0.0-89.0-1.0","""event"",""trial"",""time""
""fullscreenenter"",""0"",""2210""
","
","
","""event"",""trial"",""time""
""fullscreenenter"",""0"",""2210""
","
","null","<p></p>","null","","","","","","","","","","","","","","","","","","","","","","",""
"","do_bye","164","758902","0.0-90.0-0.0","""event"",""trial"",""time""
""fullscreenenter"",""0"",""2210""
","
","
","""event"",""trial"",""time""
""fullscreenenter"",""0"",""2210""
","
","null","","","","","","","","null","","","","","","","","","","","","","","","","",""
"","break","165","766369","0.0-90.0-1.0","""event"",""trial"",""time""
""fullscreenenter"",""0"",""2210""
","
","
","""event"",""trial"",""time""
""fullscreenenter"",""0"",""2210""
","
","7463.900000035763","<div class='center'><p>Time to take a quick break! You have 2 minutes to rest, but you can move on sooner if you'd like.</p><p> Press the <b>space bar</b> to continue.</p></div>","32","","","","","","","","","","","","","","","","","","","","","","",""
"","do_travel","166","775374","0.0-91.0-0.0","""event"",""trial"",""time""
""fullscreenenter"",""0"",""2210""
","
","
","""event"",""trial"",""time""
""fullscreenenter"",""0"",""2210""
","
","null","","","","","","","","null","","","","","","","","","","","","","","","","",""
"","do_welcome","167","779383","0.0-91.0-1.0","""event"",""trial"",""time""
""fullscreenenter"",""0"",""2210""
","
","
","""event"",""trial"",""time""
""fullscreenenter"",""0"",""2210""
","
","null","","","","","","","","null","","","","","","","","","","","","","","","","",""
"","do_trial","168","785023","0.0-92.0-0.0","""event"",""trial"",""time""
""fullscreenenter"",""0"",""2210""
","
","
","""event"",""trial"",""time""
""fullscreenenter"",""0"",""2210""
","
","1087","","","","","","","","49","1,1,1","1","countryside","30","probe-176","1","0.4170657349701643","0.32182208328821604","1","","","","","","","",""
"","html-keyboard-response","169","786026","0.0-92.0-1.0","""event"",""trial"",""time""
""fullscreenenter"",""0"",""2210""
","
","
","""event"",""trial"",""time""
""fullscreenenter"",""0"",""2210""
","
","null","<p></p>","null","","","","","","","","","","","","","","","","","","","","","","",""
"","do_trial","170","790952","0.0-93.0-0.0","""event"",""trial"",""time""
""fullscreenenter"",""0"",""2210""
","
","
","""event"",""trial"",""time""
""fullscreenenter"",""0"",""2210""
","
","387.4000000357628","","","","","","","","49","1,0,1","1","countryside","31","probe-202","1","0.18796977814347046","0.2958056670010171","1","","","","","","","",""
"","html-keyboard-response","171","791956","0.0-93.0-1.0","""event"",""trial"",""time""
""fullscreenenter"",""0"",""2210""
","
","
","""event"",""trial"",""time""
""fullscreenenter"",""0"",""2210""
","
","null","<p></p>","null","","","","","","","","","","","","","","","","","","","","","","",""
"","do_trial","172","797040","0.0-94.0-0.0","""event"",""trial"",""time""
""fullscreenenter"",""0"",""2210""
","
","
","""event"",""trial"",""time""
""fullscreenenter"",""0"",""2210""
","
","543.4000000357628","","","","","","","","49","1,0,0","1","countryside","32","probe-145","1","0.2738400061386767","0.28122551005539537","1","","","","","","","",""
"","html-keyboard-response","173","798044","0.0-94.0-1.0","""event"",""trial"",""time""
""fullscreenenter"",""0"",""2210""
","
","
","""event"",""trial"",""time""
""fullscreenenter"",""0"",""2210""
","
","null","<p></p>","null","","","","","","","","","","","","","","","","","","","","","","",""
"","do_trial","174","803000","0.0-95.0-0.0","""event"",""trial"",""time""
""fullscreenenter"",""0"",""2210""
","
","
","""event"",""trial"",""time""
""fullscreenenter"",""0"",""2210""
","
","417","","","","","","","","49","1,0,0","1","countryside","33","probe-126","0.8483883697881244","0.37213836450182686","0.25861360498676533","1","","","","","","","",""
"","html-keyboard-response","175","804002","0.0-95.0-1.0","""event"",""trial"",""time""
""fullscreenenter"",""0"",""2210""
","
","
","""event"",""trial"",""time""
""fullscreenenter"",""0"",""2210""
","
","null","<p></p>","null","","","","","","","","","","","","","","","","","","","","","","",""
"","do_trial","176","809035","0.0-96.0-0.0","""event"",""trial"",""time""
""fullscreenenter"",""0"",""2210""
","
","
","""event"",""trial"",""time""
""fullscreenenter"",""0"",""2210""
","
","492.2999999523163","","","","","","","","49","1,0,1","1","countryside","34","probe-50","0.8273436465792355","0.2861316498374787","0.3805812213336526","1","","","","","","","",""
"","html-keyboard-response","177","810037","0.0-96.0-1.0","""event"",""trial"",""time""
""fullscreenenter"",""0"",""2210""
","
","
","""event"",""trial"",""time""
""fullscreenenter"",""0"",""2210""
","
","null","<p></p>","null","","","","","","","","","","","","","","","","","","","","","","",""
"","do_trial","178","814877","0.0-97.0-0.0","""event"",""trial"",""time""
""fullscreenenter"",""0"",""2210""
","
","
","""event"",""trial"",""time""
""fullscreenenter"",""0"",""2210""
","
","306.19999998807907","","","","","","","","49","1,0,1","1","countryside","35","probe-111","0.7863446349804857","0.1981416535165919","0.18845882648732026","1","","","","","","","",""
"","html-keyboard-response","179","815882","0.0-97.0-1.0","""event"",""trial"",""time""
""fullscreenenter"",""0"",""2210""
","
","
","""event"",""trial"",""time""
""fullscreenenter"",""0"",""2210""
","
","null","<p></p>","null","","","","","","","","","","","","","","","","","","","","","","",""
"","do_trial","180","820817","0.0-98.0-0.0","""event"",""trial"",""time""
""fullscreenenter"",""0"",""2210""
","
","
","""event"",""trial"",""time""
""fullscreenenter"",""0"",""2210""
","
","394.39999997615814","","","","","","","","49","1,0,0","1","countryside","36","probe-71","0.7079885997496659","0.06489258396809745","0.16071989489875516","1","","","","","","","",""
"","html-keyboard-response","181","821819","0.0-98.0-1.0","""event"",""trial"",""time""
""fullscreenenter"",""0"",""2210""
","
","
","""event"",""trial"",""time""
""fullscreenenter"",""0"",""2210""
","
","null","<p></p>","null","","","","","","","","","","","","","","","","","","","","","","",""
"","do_trial","182","826721","0.0-99.0-0.0","""event"",""trial"",""time""
""fullscreenenter"",""0"",""2210""
","
","
","""event"",""trial"",""time""
""fullscreenenter"",""0"",""2210""
","
","320.4000000357628","","","","","","","","49","1,1,0","1","countryside","37","probe-11","0.5683085352464126","0.12840094418913167","0.10381961554011535","1","","","","","","","",""
"","html-keyboard-response","183","827724","0.0-99.0-1.0","""event"",""trial"",""time""
""fullscreenenter"",""0"",""2210""
","
","
","""event"",""trial"",""time""
""fullscreenenter"",""0"",""2210""
","
","null","<p></p>","null","","","","","","","","","","","","","","","","","","","","","","",""
"","do_trial","184","832560","0.0-100.0-0.0","""event"",""trial"",""time""
""fullscreenenter"",""0"",""2210""
","
","
","""event"",""trial"",""time""
""fullscreenenter"",""0"",""2210""
","
","276.19999998807907","","","","","","","","49","1,0,0","1","countryside","38","probe-114","0.6338083312591704","0.12312993025636608","0.15760157383847614","1","","","","","","","",""
"","html-keyboard-response","185","833564","0.0-100.0-1.0","""event"",""trial"",""time""
""fullscreenenter"",""0"",""2210""
","
","
","""event"",""trial"",""time""
""fullscreenenter"",""0"",""2210""
","
","null","<p></p>","null","","","","","","","","","","","","","","","","","","","","","","",""
"","do_trial","186","838379","0.0-101.0-0.0","""event"",""trial"",""time""
""fullscreenenter"",""0"",""2210""
","
","
","""event"",""trial"",""time""
""fullscreenenter"",""0"",""2210""
","
","265.5","","","","","","","","49","1,1,0","1","countryside","39","probe-150","0.7003256429061907","0.18808796780846526","0.29772751462747493","1","","","","","","","",""
"","html-keyboard-response","187","839381","0.0-101.0-1.0","""event"",""trial"",""time""
""fullscreenenter"",""0"",""2210""
","
","
","""event"",""trial"",""time""
""fullscreenenter"",""0"",""2210""
","
","null","<p></p>","null","","","","","","","","","","","","","","","","","","","","","","",""
"","do_trial","188","844193","0.0-102.0-0.0","""event"",""trial"",""time""
""fullscreenenter"",""0"",""2210""
","
","
","""event"",""trial"",""time""
""fullscreenenter"",""0"",""2210""
","
","273.39999997615814","","","","","","","","49","1,0,0","1","countryside","40","probe-80","0.7201517170219414","0.1926012618269867","0.21134890238709858","1","","","","","","","",""
"","html-keyboard-response","189","845196","0.0-102.0-1.0","""event"",""trial"",""time""
""fullscreenenter"",""0"",""2210""
","
","
","""event"",""trial"",""time""
""fullscreenenter"",""0"",""2210""
","
","null","<p></p>","null","","","","","","","","","","","","","","","","","","","","","","",""
"","do_trial","190","850066","0.0-103.0-0.0","""event"",""trial"",""time""
""fullscreenenter"",""0"",""2210""
","
","
","""event"",""trial"",""time""
""fullscreenenter"",""0"",""2210""
","
","330.5","","","","","","","","49","1,0,0","1","countryside","41","probe-206","0.7027100614632719","0.25716904400422963","0.20448430887553987","1","","","","","","","",""
"","html-keyboard-response","191","851069","0.0-103.0-1.0","""event"",""trial"",""time""
""fullscreenenter"",""0"",""2210""
","
","
","""event"",""trial"",""time""
""fullscreenenter"",""0"",""2210""
","
","null","<p></p>","null","","","","","","","","","","","","","","","","","","","","","","",""
"","do_trial","192","856133","0.0-104.0-0.0","""event"",""trial"",""time""
""fullscreenenter"",""0"",""2210""
","
","
","""event"",""trial"",""time""
""fullscreenenter"",""0"",""2210""
","
","525.1999999880791","","","","","","","","49","0,0,0","1","countryside","42","probe-204","0.36222130121560253","0.40537942181387304","0.2834215681110629","0","","","","","","","",""
"","html-keyboard-response","193","857137","0.0-104.0-1.0","""event"",""trial"",""time""
""fullscreenenter"",""0"",""2210""
","
","
","""event"",""trial"",""time""
""fullscreenenter"",""0"",""2210""
","
","null","<p></p>","null","","","","","","","","","","","","","","","","","","","","","","",""
"","do_trial","194","861919","0.0-105.0-0.0","""event"",""trial"",""time""
""fullscreenenter"",""0"",""2210""
","
","
","""event"",""trial"",""time""
""fullscreenenter"",""0"",""2210""
","
","241.5","","","","","","","","49","0,1,1","1","countryside","43","probe-219","0.2490144124976392","0.3907000000550111","0.36918062451312955","0","","","","","","","",""
"","html-keyboard-response","195","862922","0.0-105.0-1.0","""event"",""trial"",""time""
""fullscreenenter"",""0"",""2210""
","
","
","""event"",""trial"",""time""
""fullscreenenter"",""0"",""2210""
","
","null","<p></p>","null","","","","","","","","","","","","","","","","","","","","","","",""
"","do_trial","196","867770","0.0-106.0-0.0","""event"",""trial"",""time""
""fullscreenenter"",""0"",""2210""
","
","
","""event"",""trial"",""time""
""fullscreenenter"",""0"",""2210""
","
","309.89999997615814","","","","","","","","49","0,0,1","1","countryside","44","probe-02","0.23791183802976687","0.37374673407379744","0.38297159476534554","0","","","","","","","",""
"","html-keyboard-response","197","868773","0.0-106.0-1.0","""event"",""trial"",""time""
""fullscreenenter"",""0"",""2210""
","
","
","""event"",""trial"",""time""
""fullscreenenter"",""0"",""2210""
","
","null","<p></p>","null","","","","","","","","","","","","","","","","","","","","","","",""
"","do_trial","198","873565","0.0-107.0-0.0","""event"",""trial"",""time""
""fullscreenenter"",""0"",""2210""
","
","
","""event"",""trial"",""time""
""fullscreenenter"",""0"",""2210""
","
","252.30000001192093","","","","","","","","50","1,0,0","1","countryside","45","probe-222","0.05999922122991306","0.48975643701294275","0.450692164954471","0","","","","","","","",""
"","html-keyboard-response","199","874568","0.0-107.0-1.0","""event"",""trial"",""time""
""fullscreenenter"",""0"",""2210""
","
","
","""event"",""trial"",""time""
""fullscreenenter"",""0"",""2210""
","
","null","<p></p>","null","","","","","","","","","","","","","","","","","","","","","","",""
"","do_trial","200","879350","0.0-108.0-0.0","""event"",""trial"",""time""
""fullscreenenter"",""0"",""2210""
","
","
","""event"",""trial"",""time""
""fullscreenenter"",""0"",""2210""
","
","243.19999998807907","","","","","","","","50","0,0,0","1","countryside","46","probe-113","0.06349175922947212","0.5750260848234146","0.5101546031044863","0","","","","","","","",""
"","html-keyboard-response","201","880352","0.0-108.0-1.0","""event"",""trial"",""time""
""fullscreenenter"",""0"",""2210""
","
","
","""event"",""trial"",""time""
""fullscreenenter"",""0"",""2210""
","
","null","<p></p>","null","","","","","","","","","","","","","","","","","","","","","","",""
"","do_trial","202","885135","0.0-109.0-0.0","""event"",""trial"",""time""
""fullscreenenter"",""0"",""2210""
","
","
","""event"",""trial"",""time""
""fullscreenenter"",""0"",""2210""
","
","245","","","","","","","","50","0,0,0","1","countryside","47","probe-12","0.06224078865435535","0.5057741944559122","0.3839084611862306","0","","","","","","","",""
"","html-keyboard-response","203","886138","0.0-109.0-1.0","""event"",""trial"",""time""
""fullscreenenter"",""0"",""2210""
","
","
","""event"",""trial"",""time""
""fullscreenenter"",""0"",""2210""
","
","null","<p></p>","null","","","","","","","","","","","","","","","","","","","","","","",""
"","do_trial","204","891012","0.0-110.0-0.0","""event"",""trial"",""time""
""fullscreenenter"",""0"",""2210""
","
","
","""event"",""trial"",""time""
""fullscreenenter"",""0"",""2210""
","
","331.9000000357628","","","","","","","","49","1,1,1","1","countryside","48","probe-13","0.12107621367029558","0.5241600746616593","0.34269105982258774","1","","","","","","","",""
"","html-keyboard-response","205","892016","0.0-110.0-1.0","""event"",""trial"",""time""
""fullscreenenter"",""0"",""2210""
","
","
","""event"",""trial"",""time""
""fullscreenenter"",""0"",""2210""
","
","null","<p></p>","null","","","","","","","","","","","","","","","","","","","","","","",""
"","do_trial","206","896903","0.0-111.0-0.0","""event"",""trial"",""time""
""fullscreenenter"",""0"",""2210""
","
","
","""event"",""trial"",""time""
""fullscreenenter"",""0"",""2210""
","
","348.39999997615814","","","","","","","","49","0,1,0","1","countryside","49","probe-208","0.2410998435477226","0.5196365906907723","0.5064745290436742","0","","","","","","","",""
"","html-keyboard-response","207","897907","0.0-111.0-1.0","""event"",""trial"",""time""
""fullscreenenter"",""0"",""2210""
","
","
","""event"",""trial"",""time""
""fullscreenenter"",""0"",""2210""
","
","null","<p></p>","null","","","","","","","","","","","","","","","","","","","","","","",""
"","do_trial","208","902738","0.0-112.0-0.0","""event"",""trial"",""time""
""fullscreenenter"",""0"",""2210""
","
","
","""event"",""trial"",""time""
""fullscreenenter"",""0"",""2210""
","
","288.80000001192093","","","","","","","","49","0,1,1","1","countryside","50","probe-169","0.17424648649654942","0.6085714755514277","0.4307721442681482","0","","","","","","","",""
"","html-keyboard-response","209","903741","0.0-112.0-1.0","""event"",""trial"",""time""
""fullscreenenter"",""0"",""2210""
","
","
","""event"",""trial"",""time""
""fullscreenenter"",""0"",""2210""
","
","null","<p></p>","null","","","","","","","","","","","","","","","","","","","","","","",""
"","do_trial","210","908425","0.0-113.0-0.0","""event"",""trial"",""time""
""fullscreenenter"",""0"",""2210""
","
","
","""event"",""trial"",""time""
""fullscreenenter"",""0"",""2210""
","
","141.69999998807907","","","","","","","","49","1,1,1","1","countryside","51","probe-58","0.16897085086792113","0.5953810077025932","0.17226774224379532","1","","","","","","","",""
"","html-keyboard-response","211","909429","0.0-113.0-1.0","""event"",""trial"",""time""
""fullscreenenter"",""0"",""2210""
","
","
","""event"",""trial"",""time""
""fullscreenenter"",""0"",""2210""
","
","null","<p></p>","null","","","","","","","","","","","","","","","","","","","","","","",""
"","do_trial","212","914282","0.0-114.0-0.0","""event"",""trial"",""time""
""fullscreenenter"",""0"",""2210""
","
","
","""event"",""trial"",""time""
""fullscreenenter"",""0"",""2210""
","
","290.60000002384186","","","","","","","","49","0,1,0","1","countryside","52","probe-66","0.05015712046444747","0.5652002836990202","0.22422812960227578","0","","","","","","","",""
"","html-keyboard-response","213","915287","0.0-114.0-1.0","""event"",""trial"",""time""
""fullscreenenter"",""0"",""2210""
","
","
","""event"",""trial"",""time""
""fullscreenenter"",""0"",""2210""
","
","null","<p></p>","null","","","","","","","","","","","","","","","","","","","","","","",""
"","do_trial","214","920140","0.0-115.0-0.0","""event"",""trial"",""time""
""fullscreenenter"",""0"",""2210""
","
","
","""event"",""trial"",""time""
""fullscreenenter"",""0"",""2210""
","
","295.0999999642372","","","","","","","","49","1,0,0","1","countryside","53","probe-163","0.2342607386891164","0.4841457835416649","0.24475763674459672","1","","","","","","","",""
"","html-keyboard-response","215","921143","0.0-115.0-1.0","""event"",""trial"",""time""
""fullscreenenter"",""0"",""2210""
","
","
","""event"",""trial"",""time""
""fullscreenenter"",""0"",""2210""
","
","null","<p></p>","null","","","","","","","","","","","","","","","","","","","","","","",""
"","do_trial","216","926204","0.0-116.0-0.0","""event"",""trial"",""time""
""fullscreenenter"",""0"",""2210""
","
","
","""event"",""trial"",""time""
""fullscreenenter"",""0"",""2210""
","
","504.5","","","","","","","","49","1,1,0","1","countryside","54","probe-48","0.2782741219495719","0.5264656185978496","0.30517520917054736","1","","","","","","","",""
"","html-keyboard-response","217","927208","0.0-116.0-1.0","""event"",""trial"",""time""
""fullscreenenter"",""0"",""2210""
","
","
","""event"",""trial"",""time""
""fullscreenenter"",""0"",""2210""
","
","null","<p></p>","null","","","","","","","","","","","","","","","","","","","","","","",""
"","do_trial","218","932061","0.0-117.0-0.0","""event"",""trial"",""time""
""fullscreenenter"",""0"",""2210""
","
","
","""event"",""trial"",""time""
""fullscreenenter"",""0"",""2210""
","
","293.2999999523163","","","","","","","","49","0,0,0","1","countryside","55","probe-56","0.09324038656170705","0.5203533665283094","0.3290960942092635","0","","","","","","","",""
"","html-keyboard-response","219","933063","0.0-117.0-1.0","""event"",""trial"",""time""
""fullscreenenter"",""0"",""2210""
","
","
","""event"",""trial"",""time""
""fullscreenenter"",""0"",""2210""
","
","null","<p></p>","null","","","","","","","","","","","","","","","","","","","","","","",""
"","do_trial","220","937894","0.0-118.0-0.0","""event"",""trial"",""time""
""fullscreenenter"",""0"",""2210""
","
","
","""event"",""trial"",""time""
""fullscreenenter"",""0"",""2210""
","
","292.2000000476837","","","","","","","","49","0,1,0","1","countryside","56","probe-103","0.11376237242513909","0.4657962263970319","0.3994256965979848","0","","","","","","","",""
"","html-keyboard-response","221","938898","0.0-118.0-1.0","""event"",""trial"",""time""
""fullscreenenter"",""0"",""2210""
","
","
","""event"",""trial"",""time""
""fullscreenenter"",""0"",""2210""
","
","null","<p></p>","null","","","","","","","","","","","","","","","","","","","","","","",""
"","do_trial","222","943665","0.0-119.0-0.0","""event"",""trial"",""time""
""fullscreenenter"",""0"",""2210""
","
","
","""event"",""trial"",""time""
""fullscreenenter"",""0"",""2210""
","
","228.5999999642372","","","","","","","","51","0,1,0","1","countryside","57","probe-227","0.09894306457572168","0.4624324297082407","0.48680028616031545","0","","","","","","","",""
"","html-keyboard-response","223","944669","0.0-119.0-1.0","""event"",""trial"",""time""
""fullscreenenter"",""0"",""2210""
","
","
","""event"",""trial"",""time""
""fullscreenenter"",""0"",""2210""
","
","null","<p></p>","null","","","","","","","","","","","","","","","","","","","","","","",""
"","do_trial","224","949528","0.0-120.0-0.0","""event"",""trial"",""time""
""fullscreenenter"",""0"",""2210""
","
","
","""event"",""trial"",""time""
""fullscreenenter"",""0"",""2210""
","
","320.69999998807907","","","","","","","","51","0,1,1","1","countryside","58","probe-205","0.07792815029698252","0.34938025169010123","0.3378507445363059","1","","","","","","","",""
"","html-keyboard-response","225","950531","0.0-120.0-1.0","""event"",""trial"",""time""
""fullscreenenter"",""0"",""2210""
","
","
","""event"",""trial"",""time""
""fullscreenenter"",""0"",""2210""
","
","null","<p></p>","null","","","","","","","","","","","","","","","","","","","","","","",""
"","do_trial","226","955326","0.0-121.0-0.0","""event"",""trial"",""time""
""fullscreenenter"",""0"",""2210""
","
","
","""event"",""trial"",""time""
""fullscreenenter"",""0"",""2210""
","
","255.80000001192093","","","","","","","","51","0,0,0","1","countryside","59","probe-72","0.12557933131218987","0.5353039827433331","0.45543133376931283","0","","","","","","","",""
"","html-keyboard-response","227","956328","0.0-121.0-1.0","""event"",""trial"",""time""
""fullscreenenter"",""0"",""2210""
","
","
","""event"",""trial"",""time""
""fullscreenenter"",""0"",""2210""
","
","null","<p></p>","null","","","","","","","","","","","","","","","","","","","","","","",""
"","do_trial","228","961171","0.0-122.0-0.0","""event"",""trial"",""time""
""fullscreenenter"",""0"",""2210""
","
","
","""event"",""trial"",""time""
""fullscreenenter"",""0"",""2210""
","
","298.7999999523163","","","","","","","","49","0,1,0","1","countryside","60","probe-21","0.07430923058960694","0.48838455848652224","0.24965191635515283","0","","","","","","","",""
"","html-keyboard-response","229","962173","0.0-122.0-1.0","""event"",""trial"",""time""
""fullscreenenter"",""0"",""2210""
","
","
","""event"",""trial"",""time""
""fullscreenenter"",""0"",""2210""
","
","null","<p></p>","null","","","","","","","","","","","","","","","","","","","","","","",""
"","do_trial","230","967259","0.0-123.0-0.0","""event"",""trial"",""time""
""fullscreenenter"",""0"",""2210""
","
","
","""event"",""trial"",""time""
""fullscreenenter"",""0"",""2210""
","
","546.8000000119209","","","","","","","","49","0,0,0","1","countryside","61","probe-25","0.05329679675285143","0.5809175730074451","0.31416412886744616","0","","","","","","","",""
"","html-keyboard-response","231","968262","0.0-123.0-1.0","""event"",""trial"",""time""
""fullscreenenter"",""0"",""2210""
","
","
","""event"",""trial"",""time""
""fullscreenenter"",""0"",""2210""
","
","null","<p></p>","null","","","","","","","","","","","","","","","","","","","","","","",""
"","do_trial","232","973071","0.0-124.0-0.0","""event"",""trial"",""time""
""fullscreenenter"",""0"",""2210""
","
","
","""event"",""trial"",""time""
""fullscreenenter"",""0"",""2210""
","
","253.5","","","","","","","","51","0,1,0","1","countryside","62","probe-161","0.11578922225471408","0.5681033395324513","0.351026003059969","0","","","","","","","",""
"","html-keyboard-response","233","974073","0.0-124.0-1.0","""event"",""trial"",""time""
""fullscreenenter"",""0"",""2210""
","
","
","""event"",""trial"",""time""
""fullscreenenter"",""0"",""2210""
","
","null","<p></p>","null","","","","","","","","","","","","","","","","","","","","","","",""
"","do_trial","234","978885","0.0-125.0-0.0","""event"",""trial"",""time""
""fullscreenenter"",""0"",""2210""
","
","
","""event"",""trial"",""time""
""fullscreenenter"",""0"",""2210""
","
","272","","","","","","","","51","1,1,1","1","countryside","63","probe-96","0.05168485100504505","0.5473760734993276","0.29759138124519263","1","","","","","","","",""
"","html-keyboard-response","235","979888","0.0-125.0-1.0","""event"",""trial"",""time""
""fullscreenenter"",""0"",""2210""
","
","
","""event"",""trial"",""time""
""fullscreenenter"",""0"",""2210""
","
","null","<p></p>","null","","","","","","","","","","","","","","","","","","","","","","",""
"","do_trial","236","984683","0.0-126.0-0.0","""event"",""trial"",""time""
""fullscreenenter"",""0"",""2210""
","
","
","""event"",""trial"",""time""
""fullscreenenter"",""0"",""2210""
","
","251.89999997615814","","","","","","","","51","0,1,0","1","countryside","64","probe-139","0.07177539957518997","0.5720832830077643","0.27834976105264747","0","","","","","","","",""
"","html-keyboard-response","237","985686","0.0-126.0-1.0","""event"",""trial"",""time""
""fullscreenenter"",""0"",""2210""
","
","
","""event"",""trial"",""time""
""fullscreenenter"",""0"",""2210""
","
","null","<p></p>","null","","","","","","","","","","","","","","","","","","","","","","",""
"","do_trial","238","990592","0.0-127.0-0.0","""event"",""trial"",""time""
""fullscreenenter"",""0"",""2210""
","
","
","""event"",""trial"",""time""
""fullscreenenter"",""0"",""2210""
","
","366.60000002384186","","","","","","","","51","0,0,0","1","countryside","65","probe-209","0.1775323112481749","0.5948696665034305","0.23914710359711325","0","","","","","","","",""
"","html-keyboard-response","239","991595","0.0-127.0-1.0","""event"",""trial"",""time""
""fullscreenenter"",""0"",""2210""
","
","
","""event"",""trial"",""time""
""fullscreenenter"",""0"",""2210""
","
","null","<p></p>","null","","","","","","","","","","","","","","","","","","","","","","",""
"","do_trial","240","996413","0.0-128.0-0.0","""event"",""trial"",""time""
""fullscreenenter"",""0"",""2210""
","
","
","""event"",""trial"",""time""
""fullscreenenter"",""0"",""2210""
","
","281.80000001192093","","","","","","","","50","0,0,1","1","countryside","66","probe-59","0.0943109488381549","0.6345909879709456","0.2805242138644653","0","","","","","","","",""
"","html-keyboard-response","241","997417","0.0-128.0-1.0","""event"",""trial"",""time""
""fullscreenenter"",""0"",""2210""
","
","
","""event"",""trial"",""time""
""fullscreenenter"",""0"",""2210""
","
","null","<p></p>","null","","","","","","","","","","","","","","","","","","","","","","",""
"","do_trial","242","1002425","0.0-129.0-0.0","""event"",""trial"",""time""
""fullscreenenter"",""0"",""2210""
","
","
","""event"",""trial"",""time""
""fullscreenenter"",""0"",""2210""
","
","449.89999997615814","","","","","","","","50","0,1,0","1","countryside","67","probe-190","0.14331230928293803","0.508427077900394","0.2787218718041133","1","","","","","","","",""
"","html-keyboard-response","243","1003429","0.0-129.0-1.0","""event"",""trial"",""time""
""fullscreenenter"",""0"",""2210""
","
","
","""event"",""trial"",""time""
""fullscreenenter"",""0"",""2210""
","
","null","<p></p>","null","","","","","","","","","","","","","","","","","","","","","","",""
"","do_trial","244","1007998","0.0-130.0-0.0","""event"",""trial"",""time""
""fullscreenenter"",""0"",""2210""
","
","
","""event"",""trial"",""time""
""fullscreenenter"",""0"",""2210""
","
","31.600000023841858","","","","","","","","50","0,1,0","1","countryside","68","probe-201","0.15343377083704943","0.5438834080199864","0.18434750069928907","1","","","","","","","",""
"","html-keyboard-response","245","1009007","0.0-130.0-1.0","""event"",""trial"",""time""
""fullscreenenter"",""0"",""2210""
","
","
","""event"",""trial"",""time""
""fullscreenenter"",""0"",""2210""
","
","null","<p></p>","null","","","","","","","","","","","","","","","","","","","","","","",""
"","do_trial","246","1013826","0.0-131.0-0.0","""event"",""trial"",""time""
""fullscreenenter"",""0"",""2210""
","
","
","""event"",""trial"",""time""
""fullscreenenter"",""0"",""2210""
","
","281.5","","","","","","","","50","0,0,0","1","countryside","69","probe-105","0.2377357672903451","0.6731142558404949","0.10809536259109734","0","","","","","","","",""
"","html-keyboard-response","247","1014830","0.0-131.0-1.0","""event"",""trial"",""time""
""fullscreenenter"",""0"",""2210""
","
","
","""event"",""trial"",""time""
""fullscreenenter"",""0"",""2210""
","
","null","<p></p>","null","","","","","","","","","","","","","","","","","","","","","","",""
"","do_bye","248","1016339","0.0-132.0-0.0","""event"",""trial"",""time""
""fullscreenenter"",""0"",""2210""
","
","
","""event"",""trial"",""time""
""fullscreenenter"",""0"",""2210""
","
","null","","","","","","","","null","","","","","","","","","","","","","","","","",""
"","break","249","1019424","0.0-132.0-1.0","""event"",""trial"",""time""
""fullscreenenter"",""0"",""2210""
","
","
","""event"",""trial"",""time""
""fullscreenenter"",""0"",""2210""
","
","3082","<div class='center'><p>Time to take a quick break! You have 2 minutes to rest, but you can move on sooner if you'd like.</p><p> Press the <b>space bar</b> to continue.</p></div>","32","","","","","","","","","","","","","","","","","","","","","","",""
"","do_travel","250","1028427","0.0-133.0-0.0","""event"",""trial"",""time""
""fullscreenenter"",""0"",""2210""
","
","
","""event"",""trial"",""time""
""fullscreenenter"",""0"",""2210""
","
","null","","","","","","","","null","","","","","","","","","","","","","","","","",""
"","do_welcome","251","1032441","0.0-133.0-1.0","""event"",""trial"",""time""
""fullscreenenter"",""0"",""2210""
","
","
","""event"",""trial"",""time""
""fullscreenenter"",""0"",""2210""
","
","null","","","","","","","","null","","","","","","","","","","","","","","","","",""
"","do_trial","252","1037811","0.0-134.0-0.0","""event"",""trial"",""time""
""fullscreenenter"",""0"",""2210""
","
","
","""event"",""trial"",""time""
""fullscreenenter"",""0"",""2210""
","
","832.3000000119209","","","","","","","","49","0,1,0","2","mountain","70","probe-101","0.31555899263068626","1","0.2404647397875939","0","","","","","","","",""
"","html-keyboard-response","253","1038814","0.0-134.0-1.0","""event"",""trial"",""time""
""fullscreenenter"",""0"",""2210""
","
","
","""event"",""trial"",""time""
""fullscreenenter"",""0"",""2210""
","
","null","<p></p>","null","","","","","","","","","","","","","","","","","","","","","","",""
"","do_trial","254","1043624","0.0-135.0-0.0","""event"",""trial"",""time""
""fullscreenenter"",""0"",""2210""
","
","
","""event"",""trial"",""time""
""fullscreenenter"",""0"",""2210""
","
","270.4000000357628","","","","","","","","49","0,1,0","2","mountain","71","probe-63","0.2358575491955284","1","0.3008674363775411","0","","","","","","","",""
"","html-keyboard-response","255","1044627","0.0-135.0-1.0","""event"",""trial"",""time""
""fullscreenenter"",""0"",""2210""
","
","
","""event"",""trial"",""time""
""fullscreenenter"",""0"",""2210""
","
","null","<p></p>","null","","","","","","","","","","","","","","","","","","","","","","",""
"","do_trial","256","1049889","0.0-136.0-0.0","""event"",""trial"",""time""
""fullscreenenter"",""0"",""2210""
","
","
","""event"",""trial"",""time""
""fullscreenenter"",""0"",""2210""
","
","720","","","","","","","","49","0,1,1","2","mountain","72","probe-182","0.18935119068282752","0.7994697258826879","0.3070847877227007","0","","","","","","","",""
"","html-keyboard-response","257","1050892","0.0-136.0-1.0","""event"",""trial"",""time""
""fullscreenenter"",""0"",""2210""
","
","
","""event"",""trial"",""time""
""fullscreenenter"",""0"",""2210""
","
","null","<p></p>","null","","","","","","","","","","","","","","","","","","","","","","",""
"","do_trial","258","1055898","0.0-137.0-0.0","""event"",""trial"",""time""
""fullscreenenter"",""0"",""2210""
","
","
","""event"",""trial"",""time""
""fullscreenenter"",""0"",""2210""
","
","470.80000001192093","","","","","","","","50","0,1,0","2","mountain","73","probe-52","0.20964719735766957","0.7466627928639362","0.19854963245718413","1","","","","","","","",""
"","html-keyboard-response","259","1056902","0.0-137.0-1.0","""event"",""trial"",""time""
""fullscreenenter"",""0"",""2210""
","
","
