"success","trial_type","trial_index","time_elapsed","internal_node_id","rt","stimulus","key_press","subject_id","participant_id","age","gender","prompt","response","choice_outcomes","context_n","context_img_id","trial_n","probe_img_id","pR_red","pR_white","pR_black","outcome","contextArray_ind","validImageProbes","invalidImageProbes","pRew_Red","pRew_White","pRew_Black","availableForMemProbe","choice_blocks"
"true","fullscreen","0","2809","0.0-0.0","","","","","","","","","","","","","","","","","","","","","","","","","",""
"","pavlovia","1","2811","0.0-1.0","","","","","","","","","","","","","","","","","","","","","","","","","",""
"","instruc1","2","58904","0.0-2.0","null","run_exp/static/audio/clip_1_welcome.m4a","null","66","","11","female","<div class='center'><p>Welcome! This is the first part of the experiment. It will last ~30 minutes. In this experiment, you are the head captain of a pirate ship traveling around the world to different islands. You will play a few different games during this experiment. Here is an overview of these games:</p><br><p>Part 1 (today)</p><p>1. Instructions, practice game, and quiz</p><p>2. Pick a pirate game on 6 different islands</p><br><p>Part 2 (1 day later)</p><p>3. Pick a pirate game and memory game</p><p>4. Where did I see this ship? game</p><p>5. Which pirate was the best? game</p><br><p>Part 3 (1 week later)</p><p>6. Alien space mining game</p><p>7. Memory game</p></div>","","","","","","","","","","","","","","","","","",""
"","html-keyboard-response","3","59067","0.0-3.0","158.09999990463257","<div class='center'><p>Welcome! This is the first part of the experiment. It will last ~30 minutes. In this experiment, you are the head captain of a pirate ship traveling around the world to different islands. You will play a few different games during this experiment. Here is an overview of these games:</p><br><p>Part 1 (today)</p><p>1. Instructions, practice game, and quiz</p><p>2. Pick a pirate game on 6 different islands</p><br><p>Part 2 (1 day later)</p><p>3. Pick a pirate game and memory game</p><p>4. Where did I see this ship? game</p><p>5. Which pirate was the best? game</p><br><p>Part 3 (1 week later)</p><p>6. Alien space mining game</p><p>7. Memory game</p><p><b>[Press the space bar to continue]</b></p></div>","32","","","","","","","","","","","","","","","","","","","","","","",""
"","instruc2","4","67077","0.0-4.0","null","run_exp/static/audio/clip_2_different_places.m4a","null","","","","","<div class='center'><p>Today, you’ll visit these 6 islands on your journey. You'll be able to see these islands from your ship.</p><p><img src='run_exp/static/images/contexts/all_contexts.png' height='500'></p></div>","","","","","","","","","","","","","","","","","",""
"","html-keyboard-response","5","67617","0.0-5.0","538.8000001907349","<div class='center'><p>Today, you’ll visit these 6 islands on your journey. You'll be able to see these islands from your ship.</p><p><img src='run_exp/static/images/contexts/all_contexts.png' height='500'></p><p><b>[Press the space bar to continue]</b></p></div>","32","","","","","","","","","","","","","","","","","","","","","","",""
"","instruc3","6","80196","0.0-6.0","null","run_exp/static/audio/clip_3_goal_of_game_1.m4a","null","","","","","<div class='center'><p> The pirates on your ship will rob other ships as they leave the island</p> These ships have just sold their things to people on the island, so they will be filled with lots and lots of gold.</p><p><img src='run_exp/static/images/tutorial/ship_center.png' height='400'></p></div>","","","","","","","","","","","","","","","","","",""
"","html-keyboard-response","7","82018","0.0-7.0","1820.6000003814697","<div class='center'><p> The pirates on your ship will rob other ships as they leave the island</p> These ships have just sold their things to people on the island, so they will be filled with lots and lots of gold.</p><p><img src='run_exp/static/images/tutorial/ship_center.png' height='400'></p><p><b>[Press the space bar to continue]</b></p></div>","32","","","","","","","","","","","","","","","","","","","","","","",""
"","instruc4","8","115258","0.0-8.0","null","run_exp/static/audio/clip_4_goal_of_game_2.m4a","null","","","","","<div class='center'><p>As the head captain, you do not have to rob any ships yourself.</p><p>Another pirate will be doing the robbing for you. </p><p>First, you will  choose a pirate to rob the next ship.</p><p><img src='run_exp/static/images/tutorial/pirates_all_crop.png' height='200'></p><p>Then, you'll see if the pirate successfully robbed the ship of their gold. If they were successful, then you'll  get a stack of gold coins like this:</p><p><img src='run_exp/static/images/tutorial/reward.png' height='150'></p><p> If they were <b>not</b> successful, then you'll get no gold coins, and you'll see a big red x like this: </p><p><img src='run_exp/static/images/tutorial/reward_no.png' height='150'></p><p> How much bonus money you make is based on how many gold coins you collect.</p><div>","","","","","","","","","","","","","","","","","",""
"","html-keyboard-response","9","116917","0.0-9.0","1658","<div class='center'><p>As the head captain, you do not have to rob any ships yourself.</p><p>Another pirate will be doing the robbing for you. </p><p>First, you will  choose a pirate to rob the next ship.</p><p><img src='run_exp/static/images/tutorial/pirates_all_crop.png' height='200'></p><p>Then, you'll see if the pirate successfully robbed the ship of their gold. If they were successful, then you'll  get a stack of gold coins like this:</p><p><img src='run_exp/static/images/tutorial/reward.png' height='150'></p><p> If they were <b>not</b> successful, then you'll get no gold coins, and you'll see a big red x like this: </p><p><img src='run_exp/static/images/tutorial/reward_no.png' height='150'></p><p> How much bonus money you make is based on how many gold coins you collect.</p<p><b>[Press the space bar to continue]</b></p></div>","32","","","","","","","","","","","","","","","","","","","","","","",""
"","instruc5","10","144444","0.0-10.0","27527.5","run_exp/static/audio/clip_5_probabilistic.m4a","49","","","","","<div class='center'><p>Even the most skilled pirate can not rob EVERY ship.</p><p> Some ships will have very strong protections against pirate attacks.</p><p> Blue beard, here, is very, very good at robbing ships, but he won't be successful every time he tries to rob one.</p><p> You can press the <b>‘1’</b> key on the keyboard to choose him.</p><p> Try choosing him 10 times to see how often he succeeds at robbing a ship. </p><p><img src='run_exp/static/images/tutorial/blue.png' height='500'></p></div>","","","","","","","","","","","","","","","","","",""
"","html-keyboard-response","11","145946","0.0-11.0","null","<div class='center'><p><img src='run_exp/static/images/tutorial/blue_win.png' height='500'></p></div>","null","","","","","","","","","","","","","","","","","","","","","","",""
"","html-keyboard-response","12","146627","0.0-12.0","679.9000000953674","<div class='center'><img src='run_exp/static/images/tutorial/blue.png' height='500'></p></div>","49","","","","","","","","","","","","","","","","","","","","","","",""
"","html-keyboard-response","13","148129","0.0-13.0","null","<div class='center'><p><img src='run_exp/static/images/tutorial/blue_win.png' height='500'></p></div>","null","","","","","","","","","","","","","","","","","","","","","","",""
"","html-keyboard-response","14","148899","0.0-14.0","769.2999997138977","<div class='center'><img src='run_exp/static/images/tutorial/blue.png' height='500'></p></div>","49","","","","","","","","","","","","","","","","","","","","","","",""
"","html-keyboard-response","15","150402","0.0-15.0","null","<div class='center'><p><img src='run_exp/static/images/tutorial/blue_win.png' height='500'></p></div>","null","","","","","","","","","","","","","","","","","","","","","","",""
"","html-keyboard-response","16","150812","0.0-16.0","409.1000003814697","<div class='center'><img src='run_exp/static/images/tutorial/blue.png' height='500'></p></div>","49","","","","","","","","","","","","","","","","","","","","","","",""
"","html-keyboard-response","17","152314","0.0-17.0","null","<div class='center'><p><img src='run_exp/static/images/tutorial/blue_no_win.png' height='500'></p></div>","null","","","","","","","","","","","","","","","","","","","","","","",""
"","html-keyboard-response","18","152679","0.0-18.0","364.19999980926514","<div class='center'><img src='run_exp/static/images/tutorial/blue.png' height='500'></p></div>","49","","","","","","","","","","","","","","","","","","","","","","",""
"","html-keyboard-response","19","154185","0.0-19.0","null","<div class='center'><p><img src='run_exp/static/images/tutorial/blue_win.png' height='500'></p></div>","null","","","","","","","","","","","","","","","","","","","","","","",""
"","html-keyboard-response","20","154524","0.0-20.0","338.2999997138977","<div class='center'><img src='run_exp/static/images/tutorial/blue.png' height='500'></p></div>","49","","","","","","","","","","","","","","","","","","","","","","",""
"","html-keyboard-response","21","156029","0.0-21.0","null","<div class='center'><p><img src='run_exp/static/images/tutorial/blue_win.png' height='500'></p></div>","null","","","","","","","","","","","","","","","","","","","","","","",""
"","html-keyboard-response","22","156482","0.0-22.0","452.09999990463257","<div class='center'><img src='run_exp/static/images/tutorial/blue.png' height='500'></p></div>","49","","","","","","","","","","","","","","","","","","","","","","",""
"","html-keyboard-response","23","157987","0.0-23.0","null","<div class='center'><p><img src='run_exp/static/images/tutorial/blue_win.png' height='500'></p></div>","null","","","","","","","","","","","","","","","","","","","","","","",""
"","html-keyboard-response","24","158326","0.0-24.0","338.30000019073486","<div class='center'><img src='run_exp/static/images/tutorial/blue.png' height='500'></p></div>","49","","","","","","","","","","","","","","","","","","","","","","",""
"","html-keyboard-response","25","159827","0.0-25.0","null","<div class='center'><p><img src='run_exp/static/images/tutorial/blue_no_win.png' height='500'></p></div>","null","","","","","","","","","","","","","","","","","","","","","","",""
"","html-keyboard-response","26","163456","0.0-26.0","3628.2999997138977","<div class='center'><img src='run_exp/static/images/tutorial/blue.png' height='500'></p></div>","49","","","","","","","","","","","","","","","","","","","","","","",""
"","html-keyboard-response","27","164958","0.0-27.0","null","<div class='center'><p><img src='run_exp/static/images/tutorial/blue_win.png' height='500'></p></div>","null","","","","","","","","","","","","","","","","","","","","","","",""
"","html-keyboard-response","28","165324","0.0-28.0","365.40000009536743","<div class='center'><img src='run_exp/static/images/tutorial/blue.png' height='500'></p></div>","49","","","","","","","","","","","","","","","","","","","","","","",""
"","html-keyboard-response","29","166830","0.0-29.0","null","<div class='center'><p><img src='run_exp/static/images/tutorial/blue_win.png' height='500'></p></div>","null","","","","","","","","","","","","","","","","","","","","","","",""
"","instruc6","30","173469","0.0-30.0","null","run_exp/static/audio/clip_6_blue_beard_outcome.m4a","null","","","","","<div class='center'><p> See, he succeeded in robbing the ships most of the time but not every time. </p></div>","","","","","","","","","","","","","","","","","",""
"","html-keyboard-response","31","176642","0.0-31.0","3172.5","<div class='center'><p> See, he succeeded in robbing the ships most of the time but not every time. </p><p><b>[Press the space bar to continue]</b></p></div>","32","","","","","","","","","","","","","","","","","","","","","","",""
"","audio-keyboard-response","32","195757","0.0-32.0","19113.900000095367","run_exp/static/audio/clip_7_pick_pirate.m4a","49","","","","","","","","","","","","","","","","","","","","","","",""
"","audio-keyboard-response","33","198029","0.0-33.0-0.0","2270.9000000953674","run_exp/static/audio/clip_8_chosen_pirate_win.m4a","32","","","","","","","","","","","","","","","","","","","","","","",""
"","audio-keyboard-response","34","200583","0.0-33.0-1.0","2553.199999809265","run_exp/static/audio/clip_9_pick_a_pirate_again.m4a","49","","","","","","","","","","","","","","","","","","","","","","",""
"","audio-keyboard-response","35","202439","0.0-34.0-0.0","1855.1000003814697","run_exp/static/audio/clip_10_chosen_pirate_loss.m4a","32","","","","","","","","","","","","","","","","","","","","","","",""
"","instruc9","36","209575","0.0-35.0-0.0","null","run_exp/static/audio/clip_11_time_out.m4a","null","","","","","<div class='center'><p>If you don’t make your choice fast enough, you’ll have to wait a few seconds before you can make another one. </p><p><img src='run_exp/static/images/miscellaneous/hurry_up.png' height='500'></p></div>","","","","","","","","","","","","","","","","","",""
"","html-keyboard-response","37","211091","0.0-35.0-1.0","1514.8999996185303","<div class='center'><p>If you don’t make your choice fast enough, you’ll have to wait a few seconds before you can make another one. </p><p><img src='run_exp/static/images/miscellaneous/hurry_up.png' height='500'></p><p><b>[Press the space bar to continue]</b></p></div>","32","","","","","","","","","","","","","","","","","","","","","","",""
"","instruc10","38","259730","0.0-35.0-2.0","null","run_exp/static/audio/clip_12_probe.m4a","null","","","","","<div class='center'><p>Once you've choose a pirate, you’ll be shown the ship they are robbing.</p><p>You will never rob the same ship twice. After all, ships that have already been robbed won’t have gold on them. </p><p>Ships can be told apart from one another by the image on them. See, this one has a travel mug on it. </p><p> You’ll have to remember which island you saw each ship on.You will win more bonus money if you remember correctly! To help you remember, you can imagine a story. For example, here, you could imagine a mug full of water in the desert. Or, as another example, if on the forest island, your pirate robbed a ship with an apple on it, you could imagine an apple falling from a tree in the forest. </p><p><img src='run_exp/static/images/tutorial/example_probe.png' height='500'></p></div>","","","","","","","","","","","","","","","","","",""
"","html-keyboard-response","39","262594","0.0-35.0-3.0","2863.199999809265","<div class='center'><p>Once you've choose a pirate, you’ll be shown the ship they are robbing.</p><p>You will never rob the same ship twice. After all, ships that have already been robbed won’t have gold on them. </p><p>Ships can be told apart from one another by the image on them. See, this one has a travel mug on it. </p><p> You’ll have to remember which island you saw each ship on.You will win more bonus money if you remember correctly! To help you remember, you can imagine a story. For example, here, you could imagine a mug full of water in the desert. Or, as another example, if on the forest island, your pirate robbed a ship with an apple on it, you could imagine an apple falling from a tree in the forest. </p><p><img src='run_exp/static/images/tutorial/example_probe.png' height='500'></p><p><b>[Press the space bar to continue]</b></p></div>","32","","","","","","","","","","","","","","","","","","","","","","",""
"","instruc11","40","283487","0.0-35.0-4.0","null","run_exp/static/audio/clip_13_changepoint.m4a","null","","","","","<div class='center'><p>How successful a pirate is at robbing ships will depend on the island you’re on.</p><p> A pirate may have visited this island many times before and gained a lot of practice robbing ships there.</p><p>So, they’re more likely to be successful than a pirate who has never visited the island before.</p></div>","","","","","","","","","","","","","","","","","",""
"","html-keyboard-response","41","284535","0.0-35.0-5.0","1047.0999999046326","<div class='center'><p>How successful a pirate is at robbing ships will depend on the island you’re on.</p><p> A pirate may have visited this island many times before and gained a lot of practice robbing ships there.</p><p>So, they’re more likely to be successful than a pirate who has never visited the island before.</p><p><b>[Press the space bar to continue]</b></p></div>","32","","","","","","","","","","","","","","","","","","","","","","",""
"","instruc12","42","312561","0.0-35.0-6.0","null","run_exp/static/audio/clip_14_drift.m4a","null","","","","","<div class='center'><p>How successful a pirate is at robbing ships can also change over the time spent on the island. </p><p> Ships may hear from islanders about the pirates coming and will improve their protections against the attack. This may make it harder to rob them.</p><p> Ships may also become lazy and weaken the strength of their protections. This may make it easier to rob them.</p><br><p>Things are always changing on the high seas! So, try your best to pay attention!</p><p><img src='run_exp/static/images/tutorial/contingency.png' height='500'></p></div>","","","","","","","","","","","","","","","","","",""
"","html-keyboard-response","43","313530","0.0-35.0-7.0","968.3000001907349","<div class='center'><p>How successful a pirate is at robbing ships can also change over the time spent on the island. </p><p> Ships may hear from islanders about the pirates coming and will improve their protections against the attack. This may make it harder to rob them.</p><p> Ships may also become lazy and weaken the strength of their protections. This may make it easier to rob them.</p><br><p>Things are always changing on the high seas! So, try your best to pay attention!</p><p><img src='run_exp/static/images/tutorial/contingency.png' height='500'></p><p><b>[Press the space bar to continue]</b></p></div>","32","","","","","","","","","","","","","","","","","","","","","","",""
"","instruc13","44","358188","0.0-35.0-8.0","null","run_exp/static/audio/clip_15_summary.m4a","null","","","","","<div class='center'><p>Let's go over the instructions quickly again. You have two important things to do: </p><b><p> 1. Pick the pirate who is the best at robbing ships on the current island. This way you'll collect more gold coins!</p></b><b><p> 2. Remember on which island a ship was robbed.</p> </b><p>The amount of bonus money you can win depends on both.</p><p><br><p>Let’s try a practice game. The game will start by showing you the pirates. First, pick a pirate using the <b> 1, 2, 3 </b> keys on your keyboard. When you are shown a ship, try to remember which island you’re on by making up a story.</p><p>This is just a practice game, so you’re not playing for money. </p><p> Good luck!</p></div>","","","","","","","","","","","","","","","","","",""
"","html-keyboard-response","45","358835","0.0-35.0-9.0","646.1999998092651","<div class='center'><p>Let's go over the instructions quickly again. You have two important things to do: </p><b><p> 1. Pick the pirate who is the best at robbing ships on the current island. This way you'll collect more gold coins!</p></b><b><p> 2. Remember on which island a ship was robbed.</p> </b><p>The amount of bonus money you can win depends on both.</p><p><br><p>Let’s try a practice game. The game will start by showing you the pirates. First, pick a pirate using the <b> 1, 2, 3 </b> keys on your keyboard. When you are shown a ship, try to remember which island you’re on by making up a story.</p><p>This is just a practice game, so you’re not playing for money. </p><p> Good luck!</p><p><b>[Press the space bar to continue]</b></p></div>","32","","","","","","","","","","","","","","","","","","","","","","",""
"","do_welcome","46","360339","0.0-35.0-10.0","null","","","","","","","","null","","","","","","","","","","","","","","","","",""
"","do_trial","47","366735","0.0-35.0-11.0","1889.9000000953674","","","","","","","","49","1,0,0","","","","","","","","","","","","","","","",""
"","html-keyboard-response","48","367739","0.0-36.0-0.0","null","<p></p>","null","","","","","","","","","","","","","","","","","","","","","","",""
"","do_trial","49","372654","0.0-36.0-1.0","407.5","","","","","","","","49","1,1,0","","","","","","","","","","","","","","","",""
"","html-keyboard-response","50","373656","0.0-37.0-0.0","null","<p></p>","null","","","","","","","","","","","","","","","","","","","","","","",""
"","do_trial","51","378730","0.0-37.0-1.0","565.3000001907349","","","","","","","","49","1,0,1","","","","","","","","","","","","","","","",""
"","html-keyboard-response","52","379734","0.0-38.0-0.0","null","<p></p>","null","","","","","","","","","","","","","","","","","","","","","","",""
"","do_trial","53","384737","0.0-38.0-1.0","495.2999997138977","","","","","","","","49","0,1,0","","","","","","","","","","","","","","","",""
"","html-keyboard-response","54","385743","0.0-39.0-0.0","null","<p></p>","null","","","","","","","","","","","","","","","","","","","","","","",""
"","do_trial","55","391083","0.0-39.0-1.0","831.3999996185303","","","","","","","","50","1,0,0","","","","","","","","","","","","","","","",""
"","do_bye","56","392589","0.0-40.0-0.0","null","","","","","","","","null","","","","","","","","","","","","","","","","",""
"","do_travel","57","398595","0.0-40.0-1.0","null","","","","","","","","null","","","","","","","","","","","","","","","","",""
"","do_welcome","58","400103","0.0-40.0-2.0","null","","","","","","","","null","","","","","","","","","","","","","","","","",""
"","do_trial","59","406066","0.0-40.0-3.0","1456.5","","","","","","","","49","1,0,0","","","","","","","","","","","","","","","",""
"","html-keyboard-response","60","407069","0.0-41.0-0.0","null","<p></p>","null","","","","","","","","","","","","","","","","","","","","","","",""
"","do_trial","61","411941","0.0-41.0-1.0","363.3999996185303","","","","","","","","49","1,0,1","","","","","","","","","","","","","","","",""
"","html-keyboard-response","62","412945","0.0-42.0-0.0","null","<p></p>","null","","","","","","","","","","","","","","","","","","","","","","",""
"","do_trial","63","418926","0.0-42.0-1.0","1473.9000000953674","","","","","","","","49","1,1,0","","","","","","","","","","","","","","","",""
"","html-keyboard-response","64","419932","0.0-43.0-0.0","null","<p></p>","null","","","","","","","","","","","","","","","","","","","","","","",""
"","do_trial","65","424954","0.0-43.0-1.0","516.0999999046326","","","","","","","","49","0,0,1","","","","","","","","","","","","","","","",""
"","html-keyboard-response","66","425955","0.0-44.0-0.0","null","<p></p>","null","","","","","","","","","","","","","","","","","","","","","","",""
"","do_trial","67","432315","0.0-44.0-1.0","1851","","","","","","","","50","1,0,1","","","","","","","","","","","","","","","",""
"","html-keyboard-response","68","434852","0.0-45.0-0.0","2535.5999999046326","<div class='center'><p><img src='run_exp/static/images/tutorial/prac_best_pirate.png'  height='500'></p></div>","49","","","","","","","","","","","","","","","","","","","","","","",""
"","html-keyboard-response","69","436562","0.0-46.0-0.0","1709.1999998092651","<div class='center'><p>That's correct! Red beard was the best.</p><p><b>[Press the space bar to continue]</b></p></div>","32","","","","","","","","","","","","","","","","","","","","","","",""
"","html-keyboard-response","70","442975","0.0-46.0-1.0","6412.599999904633","<div class='center'><p><img src='run_exp/static/images/tutorial/prac_source.png'  height='500'></p></div>","50","","","","","","","","","","","","","","","","","","","","","","",""
"","html-keyboard-response","71","445630","0.0-47.0-0.0","2653.7999997138977","<div class='center'><p>That's correct! You saw this ship on the cavern island.</p><p><b>[Press the space bar to continue]</b></p></div>","32","","","","","","","","","","","","","","","","","","","","","","",""
"","quiz_beginning","72","459221","0.0-47.0-1.0","null","run_exp/static/audio/clip_16_quiz_intro.m4a","null","","","","","<div class='center'><p>Good job on the practice game! Now, you will be asked some true or false questions to make sure you really understand the rules of the game.</p><p> Press <b>'1'</b> on the keyboard for true and press <b>'2'</b> for false.</p></div>","","","","","","","","","","","","","","","","","",""
"","audio-keyboard-response","73","464553","0.0-47.0-2.0","5331","run_exp/static/audio/clip_17_q1.m4a","50","","","","","","","","","","","","","","","","","","","","","","",""
"","correct","74","467534","0.0-48.0-0.0","null","run_exp/static/audio/clip_18_correct.m4a","null","","","","","<div class='center'><p>That's correct!</p></div>","","","","","","","","","","","","","","","","","",""
"","html-keyboard-response","75","467996","0.0-48.0-1.0","460.7999997138977","<div class='center'><p>That's correct!</p><p><b>[Press the space bar to continue]</b></p></div>","32","","","","","","","","","","","","","","","","","","","","","","",""
"","audio-keyboard-response","76","473328","0.0-48.0-2.0","5332.400000095367","run_exp/static/audio/clip_20_q2.m4a","50","","","","","","","","","","","","","","","","","","","","","","",""
"","correct","77","476288","0.0-49.0-0.0","null","run_exp/static/audio/clip_18_correct.m4a","null","","","","","<div class='center'><p>That's correct!</p></div>","","","","","","","","","","","","","","","","","",""
"","html-keyboard-response","78","476636","0.0-49.0-1.0","347.5","<div class='center'><p>That's correct!</p><p><b>[Press the space bar to continue]</b></p></div>","32","","","","","","","","","","","","","","","","","","","","","","",""
"","audio-keyboard-response","79","482621","0.0-49.0-2.0","5985","run_exp/static/audio/clip_22_q3.m4a","50","","","","","","","","","","","","","","","","","","","","","","",""
"","correct","80","485576","0.0-50.0-0.0","null","run_exp/static/audio/clip_18_correct.m4a","null","","","","","<div class='center'><p>That's correct!</p></div>","","","","","","","","","","","","","","","","","",""
"","html-keyboard-response","81","485940","0.0-50.0-1.0","363.5","<div class='center'><p>That's correct!</p><p><b>[Press the space bar to continue]</b></p></div>","32","","","","","","","","","","","","","","","","","","","","","","",""
"","audio-keyboard-response","82","488955","0.0-50.0-2.0","3014.5","run_exp/static/audio/clip_24_q4.m4a","49","","","","","","","","","","","","","","","","","","","","","","",""
"","correct","83","491938","0.0-51.0-0.0","null","run_exp/static/audio/clip_18_correct.m4a","null","","","","","<div class='center'><p>That's correct!</p></div>","","","","","","","","","","","","","","","","","",""
"","html-keyboard-response","84","492679","0.0-51.0-1.0","740.0999999046326","<div class='center'><p>That's correct!</p><p><b>[Press the space bar to continue]</b></p></div>","32","","","","","","","","","","","","","","","","","","","","","","",""
"","q_all_corr","85","499670","0.0-52.0-0.0","null","run_exp/static/audio/clip_27_quiz_all_correct.m4a","null","","","","","<div class='center'><p>Good job! You’re now ready to move on to the real game!</p></div>","","","","","","","","","","","","","","","","","",""
"","html-keyboard-response","86","500216","0.0-52.0-1.0","545.4000000953674","<div class='center'><p>Good job! You’re now ready to move on to the real game!</p><p><b>[Press the space bar to continue]</b></p></div>","32","","","","","","","","","","","","","","","","","","","","","","",""
"","do_welcome","87","501720","0.0-53.0-0.0","null","","","","","","","","null","","","","","","","","","","","","","","","","",""
"","do_trial","88","507667","0.0-54.0-0.0","1408.5999999046326","","","","","","","","49","0,0,0","0","countryside","0","probe-98","0.6","0.3","0.1","0","","","","","","","",""
"","html-keyboard-response","89","508671","0.0-54.0-1.0","null","<p></p>","null","","","","","","","","","","","","","","","","","","","","","","",""
"","do_trial","90","513709","0.0-55.0-0.0","500.09999990463257","","","","","","","","50","0,0,0","0","countryside","1","probe-33","0.693369615695035","0.29421346367335166","0.23940664538784473","0","","","","","","","",""
"","html-keyboard-response","91","514715","0.0-55.0-1.0","null","<p></p>","null","","","","","","","","","","","","","","","","","","","","","","",""
"","do_trial","92","520450","0.0-56.0-0.0","1195.1999998092651","","","","","","","","51","0,0,0","0","countryside","2","probe-96","0.6891270364861026","0.18767431243477967","0.15103601159849986","0","","","","","","","",""
"","html-keyboard-response","93","521451","0.0-56.0-1.0","null","<p></p>","null","","","","","","","","","","","","","","","","","","","","","","",""
"","do_trial","94","526508","0.0-57.0-0.0","522.3000001907349","","","","","","","","49","1,0,0","0","countryside","3","probe-195","0.6739305204236101","0.27197702813259605","0.16354977784710323","1","","","","","","","",""
"","html-keyboard-response","95","527512","0.0-57.0-1.0","null","<p></p>","null","","","","","","","","","","","","","","","","","","","","","","",""
"","do_trial","96","533804","0.0-58.0-0.0","1752.0999999046326","","","","","","","","49","0,0,0","0","countryside","4","probe-166","0.6907513242684382","0.27672195638835073","0.14875640880405028","0","","","","","","","",""
"","html-keyboard-response","97","534808","0.0-58.0-1.0","null","<p></p>","null","","","","","","","","","","","","","","","","","","","","","","",""
"","do_trial","98","540193","0.0-59.0-0.0","844.9000000953674","","","","","","","","50","0,0,1","0","countryside","5","probe-101","0.5335329787871392","0.15631789532755527","0.05912471357564873","0","","","","","","","",""
"","html-keyboard-response","99","541199","0.0-59.0-1.0","null","<p></p>","null","","","","","","","","","","","","","","","","","","","","","","",""
"","do_trial","100","548154","0.0-60.0-0.0","2419.7999997138977","","","","","","","","51","0,0,0","0","countryside","6","probe-11","0.604886157415745","0.08927517390453442","0.08353737471228133","0","","","","","","","",""
"","html-keyboard-response","101","549156","0.0-60.0-1.0","null","<p></p>","null","","","","","","","","","","","","","","","","","","","","","","",""
"","do_trial","102","556382","0.0-61.0-0.0","2686.5999999046326","","","","","","","","49","1,0,0","0","countryside","7","probe-54","0.7336408903311494","0.21576193365637536","0.12772354497115931","1","","","","","","","",""
"","html-keyboard-response","103","557385","0.0-61.0-1.0","null","<p></p>","null","","","","","","","","","","","","","","","","","","","","","","",""
"","do_trial","104","564694","0.0-62.0-0.0","2771.5999999046326","","","","","","","","50","1,0,0","0","countryside","8","probe-41","0.7365197150338741","0.19974362431496645","0.16635800610964097","0","","","","","","","",""
"","html-keyboard-response","105","565698","0.0-62.0-1.0","null","<p></p>","null","","","","","","","","","","","","","","","","","","","","","","",""
"","do_trial","106","571739","0.0-63.0-0.0","null","","","","","","","","null","1,0,0","0","countryside","9","probe-146","0.7707727234844822","0.31001402294744235","0.21013697770526915","","","","","","","","",""
"","html-keyboard-response","107","572742","0.0-63.0-1.0","null","<p></p>","null","","","","","","","","","","","","","","","","","","","","","","",""
"","do_trial","108","578666","0.0-64.0-0.0","1386.9000000953674","","","","","","","","49","0,1,1","0","countryside","10","probe-215","0.687681184102029","0.26957276657655804","0.05857412053252691","0","","","","","","","",""
"","html-keyboard-response","109","579669","0.0-64.0-1.0","null","<p></p>","null","","","","","","","","","","","","","","","","","","","","","","",""
"","do_trial","110","584866","0.0-65.0-0.0","659.7999997138977","","","","","","","","50","1,1,0","0","countryside","11","probe-61","0.6575828325524162","0.387827160304313","0.06201825396278375","1","","","","","","","",""
"","html-keyboard-response","111","585868","0.0-65.0-1.0","null","<p></p>","null","","","","","","","","","","","","","","","","","","","","","","",""
"","do_trial","112","590875","0.0-66.0-0.0","468","","","","","","","","50","1,1,0","0","countryside","12","probe-07","0.6074861700910351","0.4416739789449426","0.05904811399648919","1","","","","","","","",""
"","html-keyboard-response","113","591879","0.0-66.0-1.0","null","<p></p>","null","","","","","","","","","","","","","","","","","","","","","","",""
"","do_trial","114","596935","0.0-67.0-0.0","521.5999999046326","","","","","","","","50","1,0,0","0","countryside","13","probe-137","0.6056810874925066","0.5164332800790927","0.06734267315471659","0","","","","","","","",""
"","html-keyboard-response","115","597938","0.0-67.0-1.0","null","<p></p>","null","","","","","","","","","","","","","","","","","","","","","","",""
"","do_trial","116","603015","0.0-68.0-0.0","537.5","","","","","","","","51","1,1,0","0","countryside","14","probe-15","0.6075881598641514","0.44353944239251497","0.14412770176067688","0","","","","","","","",""
"","html-keyboard-response","117","604017","0.0-68.0-1.0","null","<p></p>","null","","","","","","","","","","","","","","","","","","","","","","",""
"","do_trial","118","609200","0.0-69.0-0.0","646","","","","","","","","49","1,1,0","0","countryside","15","probe-118","0.6994504789422114","0.25908054279429266","0.17731083452288526","1","","","","","","","",""
"","html-keyboard-response","119","610206","0.0-69.0-1.0","null","<p></p>","null","","","","","","","","","","","","","","","","","","","","","","",""
"","do_trial","120","616016","0.0-70.0-0.0","1275","","","","","","","","49","0,0,0","0","countryside","16","probe-167","0.5782640615293603","0.17326288201268814","0.1211400189368053","0","","","","","","","",""
"","html-keyboard-response","121","617018","0.0-70.0-1.0","null","<p></p>","null","","","","","","","","","","","","","","","","","","","","","","",""
"","do_trial","122","622230","0.0-71.0-0.0","672.4000000953674","","","","","","","","50","0,0,1","0","countryside","17","probe-160","0.6419056220963285","0.2976595208156628","0.21893243285039762","0","","","","","","","",""
"","html-keyboard-response","123","623233","0.0-71.0-1.0","null","<p></p>","null","","","","","","","","","","","","","","","","","","","","","","",""
"","do_trial","124","629385","0.0-72.0-0.0","1612.8999996185303","","","","","","","","49","1,0,0","0","countryside","18","probe-209","0.5460356338629603","0.24229634753448973","0.1788396780641929","1","","","","","","","",""
"","html-keyboard-response","125","630388","0.0-72.0-1.0","null","<p></p>","null","","","","","","","","","","","","","","","","","","","","","","",""
"","do_trial","126","636383","0.0-73.0-0.0","1454.6999998092651","","","","","","","","49","0,0,0","0","countryside","19","probe-151","0.6216460174473827","0.22962837964683502","0.14078970741852984","0","","","","","","","",""
"","html-keyboard-response","127","637387","0.0-73.0-1.0","null","<p></p>","null","","","","","","","","","","","","","","","","","","","","","","",""
"","do_trial","128","643605","0.0-74.0-0.0","1678.5","","","","","","","","50","1,1,0","0","countryside","20","probe-145","0.6365143361222596","0.4268530421559665","0.17108898977164383","1","","","","","","","",""
"","html-keyboard-response","129","644608","0.0-74.0-1.0","null","<p></p>","null","","","","","","","","","","","","","","","","","","","","","","",""
"","do_trial","130","649890","0.0-75.0-0.0","746.0999999046326","","","","","","","","50","1,1,1","0","countryside","21","probe-194","0.6315500582109848","0.3612628656759811","0.07788198306656315","1","","","","","","","",""
"","html-keyboard-response","131","650895","0.0-75.0-1.0","null","<p></p>","null","","","","","","","","","","","","","","","","","","","","","","",""
"","do_trial","132","657078","0.0-76.0-0.0","1648.1000003814697","","","","","","","","50","1,0,0","0","countryside","22","probe-35","0.7096445539032663","0.32929038554237955","0.11201814173090661","0","","","","","","","",""
"","html-keyboard-response","133","658082","0.0-76.0-1.0","null","<p></p>","null","","","","","","","","","","","","","","","","","","","","","","",""
"","do_trial","134","664705","0.0-77.0-0.0","2088.9000000953674","","","","","","","","51","1,0,0","0","countryside","23","probe-178","0.5906554983975679","0.4084288304588576","0.10268164000924594","0","","","","","","","",""
"","html-keyboard-response","135","665709","0.0-77.0-1.0","null","<p></p>","null","","","","","","","","","","","","","","","","","","","","","","",""
"","do_trial","136","671349","0.0-78.0-0.0","1100","","","","","","","","49","1,0,0","0","countryside","24","probe-191","0.47175348586086713","0.4376199977660625","0.2488132440373387","1","","","","","","","",""
"","html-keyboard-response","137","672350","0.0-78.0-1.0","null","<p></p>","null","","","","","","","","","","","","","","","","","","","","","","",""
"","do_trial","138","677365","0.0-79.0-0.0","477.40000009536743","","","","","","","","50","1,1,0","0","countryside","25","probe-45","0.49948615933775214","0.3942755631919757","0.19520279009153632","1","","","","","","","",""
"","html-keyboard-response","139","678368","0.0-79.0-1.0","null","<p></p>","null","","","","","","","","","","","","","","","","","","","","","","",""
"","do_trial","140","683397","0.0-80.0-0.0","489.5","","","","","","","","51","0,1,0","0","countryside","26","probe-116","0.5487877350627098","0.3266338219966845","0.08427110686372787","0","","","","","","","",""
"","html-keyboard-response","141","684399","0.0-80.0-1.0","null","<p></p>","null","","","","","","","","","","","","","","","","","","","","","","",""
"","do_trial","142","690169","0.0-81.0-0.0","1231.0999999046326","","","","","","","","49","0,0,0","0","countryside","27","probe-172","0.4517909853928162","0.3247357875809776","0.07999698037942796","0","","","","","","","",""
"","html-keyboard-response","143","691175","0.0-81.0-1.0","null","<p></p>","null","","","","","","","","","","","","","","","","","","","","","","",""
"","do_trial","144","697455","0.0-82.0-0.0","1745.2999997138977","","","","","","","","50","1,0,0","0","countryside","28","probe-111","0.38790567187632086","0.3577889556584022","0.17129336722317726","0","","","","","","","",""
"","html-keyboard-response","145","698459","0.0-82.0-1.0","null","<p></p>","null","","","","","","","","","","","","","","","","","","","","","","",""
"","do_trial","146","704635","0.0-83.0-0.0","1639.4000000953674","","","","","","","","50","0,0,0","0","countryside","29","probe-169","0.44064465488188903","0.2939495461308438","0.15063296586026595","0","","","","","","","",""
"","html-keyboard-response","147","705639","0.0-83.0-1.0","null","<p></p>","null","","","","","","","","","","","","","","","","","","","","","","",""
"","do_bye","148","707147","0.0-84.0-0.0","null","","","","","","","","null","","","","","","","","","","","","","","","","",""
"","do_travel","149","713148","0.0-85.0-0.0","null","","","","","","","","null","","","","","","","","","","","","","","","","",""
"","do_welcome","150","714651","0.0-85.0-1.0","null","","","","","","","","null","","","","","","","","","","","","","","","","",""
"","do_trial","151","720782","0.0-86.0-0.0","1591.6000003814697","","","","","","","","49","1,0,0","1","highway","30","probe-186","1","0.24974175627511977","0.11611582149326473","1","","","","","","","",""
"","html-keyboard-response","152","721786","0.0-86.0-1.0","null","<p></p>","null","","","","","","","","","","","","","","","","","","","","","","",""
"","do_trial","153","726685","0.0-87.0-0.0","362.7999997138977","","","","","","","","49","1,0,0","1","highway","31","probe-72","1","0.19601358778990846","0.13866140130797328","1","","","","","","","",""
"","html-keyboard-response","154","727691","0.0-87.0-1.0","null","<p></p>","null","","","","","","","","","","","","","","","","","","","","","","",""
"","do_trial","155","732616","0.0-88.0-0.0","386.59999990463257","","","","","","","","49","1,0,1","1","highway","32","probe-94","1","0.34915857343928147","0.3387791553014247","1","","","","","","","",""
"","html-keyboard-response","156","733619","0.0-88.0-1.0","null","<p></p>","null","","","","","","","","","","","","","","","","","","","","","","",""
"","do_trial","157","738508","0.0-89.0-0.0","352.8999996185303","","","","","","","","49","1,0,0","1","highway","33","probe-174","0.7634193250448105","0.30392731683338564","0.35818065041345054","1","","","","","","","",""
"","html-keyboard-response","158","739511","0.0-89.0-1.0","null","<p></p>","null","","","","","","","","","","","","","","","","","","","","","","",""
"","do_trial","159","744428","0.0-90.0-0.0","379.69999980926514","","","","","","","","49","0,0,1","1","highway","34","probe-198","0.7563327551171116","0.2986246145653262","0.23147949313599717","0","","","","","","","",""
"","html-keyboard-response","160","745429","0.0-90.0-1.0","null","<p></p>","null","","","","","","","","","","","","","","","","","","","","","","",""
"","do_trial","161","751337","0.0-91.0-0.0","1368.4000000953674","","","","","","","","49","1,0,0","1","highway","35","probe-29","0.8379928460413213","0.2901385315780622","0.24801396203043558","1","","","","","","","",""
"","html-keyboard-response","162","752340","0.0-91.0-1.0","null","<p></p>","null","","","","","","","","","","","","","","","","","","","","","","",""
"","do_trial","163","757667","0.0-92.0-0.0","791.5999999046326","","","","","","","","49","0,0,0","1","highway","36","probe-77","0.7675630576735287","0.2167449517402259","0.22084369551042263","0","","","","","","","",""
"","html-keyboard-response","164","758670","0.0-92.0-1.0","null","<p></p>","null","","","","","","","","","","","","","","","","","","","","","","",""
"","do_trial","165","764376","0.0-93.0-0.0","1166.5","","","","","","","","49","0,1,0","1","highway","37","probe-213","0.6762204481204189","0.15403657221464173","0.16817363546217987","0","","","","","","","",""
"","html-keyboard-response","166","765382","0.0-93.0-1.0","null","<p></p>","null","","","","","","","","","","","","","","","","","","","","","","",""
"","do_trial","167","770249","0.0-94.0-0.0","327","","","","","","","","49","1,0,0","1","highway","38","probe-79","0.6077677429365672","0.06584278292111216","0.09987004811959033","1","","","","","","","",""
"","html-keyboard-response","168","771250","0.0-94.0-1.0","null","<p></p>","null","","","","","","","","","","","","","","","","","","","","","","",""
"","do_trial","169","776455","0.0-95.0-0.0","669.5","","","","","","","","49","1,0,1","1","highway","39","probe-122","0.5636499849675908","0.22026998525141747","0.18073675469189376","1","","","","","","","",""
"","html-keyboard-response","170","777458","0.0-95.0-1.0","null","<p></p>","null","","","","","","","","","","","","","","","","","","","","","","",""
"","do_trial","171","784278","0.0-96.0-0.0","2279.800000190735","","","","","","","","49","0,0,0","1","highway","40","probe-80","0.566847877540521","0.1706493025869197","0.22714438894918432","0","","","","","","","",""
"","html-keyboard-response","172","785283","0.0-96.0-1.0","null","<p></p>","null","","","","","","","","","","","","","","","","","","","","","","",""
"","do_trial","173","790308","0.0-97.0-0.0","484.59999990463257","","","","","","","","49","0,1,0","1","highway","41","probe-84","0.5919197339396137","0.12755559243866624","0.13056057120046718","0","","","","","","","",""
"","html-keyboard-response","174","791311","0.0-97.0-1.0","null","<p></p>","null","","","","","","","","","","","","","","","","","","","","","","",""
"","do_trial","175","797349","0.0-98.0-0.0","null","","","","","","","","null","0,0,1","1","highway","42","probe-50","0.3785395165841263","0.21506130173367385","0.34502783034180906","","","","","","","","",""
"","html-keyboard-response","176","798350","0.0-98.0-1.0","null","<p></p>","null","","","","","","","","","","","","","","","","","","","","","","",""
"","do_trial","177","803582","0.0-99.0-0.0","694.1999998092651","","","","","","","","49","0,0,0","1","highway","43","probe-34","0.2502760348231643","0.21626665812371607","0.4640140036136697","0","","","","","","","",""
"","html-keyboard-response","178","804585","0.0-99.0-1.0","null","<p></p>","null","","","","","","","","","","","","","","","","","","","","","","",""
"","do_trial","179","810412","0.0-100.0-0.0","1287.4000000953674","","","","","","","","49","0,1,0","1","highway","44","probe-73","0.10430237258113195","0.1961088410530899","0.5431008157076342","0","","","","","","","",""
"","html-keyboard-response","180","811414","0.0-100.0-1.0","null","<p></p>","null","","","","","","","","","","","","","","","","","","","","","","",""
"","do_trial","181","817904","0.0-101.0-0.0","1950.9000000953674","","","","","","","","49","1,1,1","1","highway","45","probe-01","0.09670063795196095","0.23480860968517497","0.5603383796717096","1","","","","","","","",""
"","html-keyboard-response","182","818910","0.0-101.0-1.0","null","<p></p>","null","","","","","","","","","","","","","","","","","","","","","","",""
"","do_trial","183","826375","0.0-102.0-0.0","2924.199999809265","","","","","","","","49","0,1,1","1","highway","46","probe-112","0.054794982665330665","0.5036097913670186","0.5450402589877572","0","","","","","","","",""
"","html-keyboard-response","184","827380","0.0-102.0-1.0","null","<p></p>","null","","","","","","","","","","","","","","","","","","","","","","",""
"","do_trial","185","833809","0.0-103.0-0.0","1892.5999999046326","","","","","","","","50","0,0,1","1","highway","47","probe-86","0.09289556576652257","0.2651326835040977","0.6225824911628178","0","","","","","","","",""
"","html-keyboard-response","186","834814","0.0-103.0-1.0","null","<p></p>","null","","","","","","","","","","","","","","","","","","","","","","",""
"","do_trial","187","840514","0.0-104.0-0.0","1162.9000000953674","","","","","","","","49","0,0,1","1","highway","48","probe-199","0.1035087600112742","0.22735021085085755","0.6872121064659077","0","","","","","","","",""
"","html-keyboard-response","188","841517","0.0-104.0-1.0","null","<p></p>","null","","","","","","","","","","","","","","","","","","","","","","",""
"","do_trial","189","846970","0.0-105.0-0.0","918.3000001907349","","","","","","","","49","0,1,0","1","highway","49","probe-113","0.20542460796379303","0.22513369262360503","0.5896651817785455","0","","","","","","","",""
"","html-keyboard-response","190","847971","0.0-105.0-1.0","null","<p></p>","null","","","","","","","","","","","","","","","","","","","","","","",""
"","do_trial","191","854108","0.0-106.0-0.0","1597.0999999046326","","","","","","","","49","0,1,1","1","highway","50","probe-207","0.14327684070668575","0.2768561122044375","0.6114920253473798","0","","","","","","","",""
"","html-keyboard-response","192","855111","0.0-106.0-1.0","null","<p></p>","null","","","","","","","","","","","","","","","","","","","","","","",""
"","do_trial","193","861148","0.0-107.0-0.0","null","","","","","","","","null","0,0,0","1","highway","51","probe-130","0.1933545450374947","0.4070156435019493","0.6758157967709201","","","","","","","","",""
"","html-keyboard-response","194","862149","0.0-107.0-1.0","null","<p></p>","null","","","","","","","","","","","","","","","","","","","","","","",""
"","do_trial","195","867493","0.0-108.0-0.0","806.8999996185303","","","","","","","","49","0,0,1","1","highway","52","probe-214","0.08246624150167813","0.4643516804813605","0.5986920477653066","0","","","","","","","",""
"","html-keyboard-response","196","868498","0.0-108.0-1.0","null","<p></p>","null","","","","","","","","","","","","","","","","","","","","","","",""
"","do_trial","197","875591","0.0-109.0-0.0","2557.699999809265","","","","","","","","49","0,1,0","1","highway","53","probe-91","0.13603218177569035","0.5610728723160756","0.39915121222436867","0","","","","","","","",""
"","html-keyboard-response","198","876594","0.0-109.0-1.0","null","<p></p>","null","","","","","","","","","","","","","","","","","","","","","","",""
"","do_trial","199","882638","0.0-110.0-0.0","null","","","","","","","","null","0,1,0","1","highway","54","probe-223","0.12377456698455173","0.33948028232666244","0.5562009406852103","","","","","","","","",""
"","html-keyboard-response","200","883641","0.0-110.0-1.0","null","<p></p>","null","","","","","","","","","","","","","","","","","","","","","","",""
"","do_trial","201","888180","0.0-111.0-0.0","0.19999980926513672","","","","","","","","50","0,0,1","1","highway","55","probe-173","0.1146238411367769","0.35205973732342466","0.559354711179355","0","","","","","","","",""
"","html-keyboard-response","202","889184","0.0-111.0-1.0","null","<p></p>","null","","","","","","","","","","","","","","","","","","","","","","",""
"","do_trial","203","894200","0.0-112.0-0.0","480.2000002861023","","","","","","","","49","0,0,1","1","highway","56","probe-189","0.1352468635433433","0.31821415889831633","0.6600756053853831","0","","","","","","","",""
"","html-keyboard-response","204","895203","0.0-112.0-1.0","null","<p></p>","null","","","","","","","","","","","","","","","","","","","","","","",""
"","do_trial","205","900096","0.0-113.0-0.0","355.7999997138977","","","","","","","","51","1,0,0","1","highway","57","probe-165","0.2199740749021219","0.2007829073771069","0.7729287283000247","0","","","","","","","",""
"","html-keyboard-response","206","901099","0.0-113.0-1.0","null","<p></p>","null","","","","","","","","","","","","","","","","","","","","","","",""
"","do_trial","207","906419","0.0-114.0-0.0","783.1999998092651","","","","","","","","49","0,0,1","1","highway","58","probe-27","0.09172961012766621","0.1954462667982841","0.6779054006240813","0","","","","","","","",""
"","html-keyboard-response","208","907422","0.0-114.0-1.0","null","<p></p>","null","","","","","","","","","","","","","","","","","","","","","","",""
"","do_trial","209","914733","0.0-115.0-0.0","2773.5999999046326","","","","","","","","49","0,0,1","1","highway","59","probe-92","0.0932362022919759","0.16371998036884286","0.49896926024194843","0","","","","","","","",""
"","html-keyboard-response","210","915736","0.0-115.0-1.0","null","<p></p>","null","","","","","","","","","","","","","","","","","","","","","","",""
"","do_trial","211","921779","0.0-116.0-0.0","null","","","","","","","","null","0,1,0","1","highway","60","probe-47","0.09310615972162369","0.21021219798712104","0.5708651652082949","","","","","","","","",""
"","html-keyboard-response","212","922783","0.0-116.0-1.0","null","<p></p>","null","","","","","","","","","","","","","","","","","","","","","","",""
"","do_trial","213","927908","0.0-117.0-0.0","586.8000001907349","","","","","","","","49","0,1,1","1","highway","61","probe-149","0.1478612868494704","0.3095553626494879","0.6275348183401467","0","","","","","","","",""
"","html-keyboard-response","214","928913","0.0-117.0-1.0","null","<p></p>","null","","","","","","","","","","","","","","","","","","","","","","",""
"","do_trial","215","935691","0.0-118.0-0.0","2242","","","","","","","","50","1,0,1","1","highway","62","probe-32","0.07851924766728524","0.2862795465716529","0.6310383973865828","0","","","","","","","",""
"","html-keyboard-response","216","936694","0.0-118.0-1.0","null","<p></p>","null","","","","","","","","","","","","","","","","","","","","","","",""
"","do_trial","217","942195","0.0-119.0-0.0","962.8000001907349","","","","","","","","49","0,1,1","1","highway","63","probe-144","0.22034683305358457","0.08995166031849873","0.6350926548688144","0","","","","","","","",""
"","html-keyboard-response","218","943198","0.0-119.0-1.0","null","<p></p>","null","","","","","","","","","","","","","","","","","","","","","","",""
"","do_trial","219","948665","0.0-120.0-0.0","928.7999997138977","","","","","","","","49","0,0,0","1","highway","64","probe-90","0.24747955735101385","0.13919286598279296","0.45219245532677416","0","","","","","","","",""
"","html-keyboard-response","220","949668","0.0-120.0-1.0","null","<p></p>","null","","","","","","","","","","","","","","","","","","","","","","",""
"","do_trial","221","955244","0.0-121.0-0.0","1039.4000000953674","","","","","","","","49","0,0,0","1","highway","65","probe-226","0.3443483177864533","0.18071801298728446","0.41126641400558867","0","","","","","","","",""
"","html-keyboard-response","222","956245","0.0-121.0-1.0","null","<p></p>","null","","","","","","","","","","","","","","","","","","","","","","",""
"","do_trial","223","961717","0.0-122.0-0.0","931.9000000953674","","","","","","","","49","0,0,0","1","highway","66","probe-95","0.3012867565275576","0.1892831734288076","0.5777113631219967","0","","","","","","","",""
"","html-keyboard-response","224","962721","0.0-122.0-1.0","null","<p></p>","null","","","","","","","","","","","","","","","","","","","","","","",""
"","do_trial","225","968013","0.0-123.0-0.0","755.5","","","","","","","","49","0,1,1","1","highway","67","probe-183","0.14254486555583157","0.151135967080654","0.6073874247595067","0","","","","","","","",""
"","html-keyboard-response","226","969019","0.0-123.0-1.0","null","<p></p>","null","","","","","","","","","","","","","","","","","","","","","","",""
"","do_trial","227","975528","0.0-124.0-0.0","1973.2999997138977","","","","","","","","51","1,0,1","1","highway","68","probe-60","0.28041941308812607","0.3496358499010718","0.5600438994292385","1","","","","","","","",""
"","html-keyboard-response","228","976533","0.0-124.0-1.0","null","<p></p>","null","","","","","","","","","","","","","","","","","","","","","","",""
"","do_trial","229","981255","0.0-125.0-0.0","185.40000009536743","","","","","","","","50","0,0,1","1","highway","69","probe-133","0.14119001711825035","0.3095428947127435","0.5916777098430486","0","","","","","","","",""
"","html-keyboard-response","230","982258","0.0-125.0-1.0","null","<p></p>","null","","","","","","","","","","","","","","","","","","","","","","",""
"","do_bye","231","983762","0.0-126.0-0.0","null","","","","","","","","null","","","","","","","","","","","","","","","","",""
"","do_travel","232","989767","0.0-127.0-0.0","null","","","","","","","","null","","","","","","","","","","","","","","","","",""
"","do_welcome","233","991276","0.0-127.0-1.0","null","","","","","","","","null","","","","","","","","","","","","","","","","",""
"","do_trial","234","996614","0.0-128.0-0.0","799.3000001907349","","","","","","","","50","0,0,1","2","coast","70","probe-136","0.10868040218994594","0.25477412948047523","1","0","","","","","","","",""
"","html-keyboard-response","235","997617","0.0-128.0-1.0","null","<p></p>","null","","","","","","","","","","","","","","","","","","","","","","",""
"","do_trial","236","1002734","0.0-129.0-0.0","578.0999999046326","","","","","","","","50","0,0,1","2","coast","71","probe-206","0.09256608672213894","0.17118756211170932","1","0","","","","","","","",""
"","html-keyboard-response","237","1003738","0.0-129.0-1.0","null","<p></p>","null","","","","","","","","","","","","","","","","","","","","","","",""
"","do_trial","238","1009484","0.0-130.0-0.0","1207.7000002861023","","","","","","","","50","1,0,1","2","coast","72","probe-82","0.1263449654972975","0.2963002476912181","0.8426987392217059","0","","","","","","","",""
"","html-keyboard-response","239","1010489","0.0-130.0-1.0","null","<p></p>","null","","","","","","","","","","","","","","","","","","","","","","",""
"","do_trial","240","1015669","0.0-131.0-0.0","644.1999998092651","","","","","","","","50","0,0,1","2","coast","73","probe-117","0.12030499146932949","0.2531919951787539","0.8247731582505421","0","","","","","","","",""
"","html-keyboard-response","241","1016671","0.0-131.0-1.0","null","<p></p>","null","","","","","","","","","","","","","","","","","","","","","","",""
"","do_trial","242","1021483","0.0-132.0-0.0","278.2999997138977","","","","","","","","51","0,1,0","2","coast","74","probe-36","0.13591108875592453","0.24470790862412564","0.6497416415947285","0","","","","","","","",""
"","html-keyboard-response","243","1022486","0.0-132.0-1.0","null","<p></p>","null","","","","","","","","","","","","","","","","","","","","","","",""
"","do_trial","244","1027099","0.0-133.0-0.0","76.5","","","","","","","","51","0,1,0","2","coast","75","probe-103","0.13434798545038032","0.3797769933843383","0.6208136281900049","0","","","","","","","",""
"","html-keyboard-response","245","1028102","0.0-133.0-1.0","null","<p></p>","null","","","","","","","","","","","","","","","","","","","","","","",""
"","do_trial","246","1032694","0.0-134.0-0.0","52.40000009536743","","","","","","","","49","0,0,1","2","coast","76","probe-64","0.2560077897289094","0.26701434719183004","0.6518291349281357","0","","","","","","","",""
"","html-keyboard-response","247","1033697","0.0-134.0-1.0","null","<p></p>","null","","","","","","","","","","","","","","","","","","","","","","",""
"","do_trial","248","1038472","0.0-135.0-0.0","238.2000002861023","","","","","","","","49","0,0,1","2","coast","77","probe-187","0.23102958197033613","0.22123911154782291","0.6859564274333877","0","","","","","","","",""
"","html-keyboard-response","249","1039473","0.0-135.0-1.0","null","<p></p>","null","","","","","","","","","","","","","","","","","","","","","","",""
"","do_trial","250","1044820","0.0-136.0-0.0","807.1999998092651","","","","","","","","49","0,1,0","2","coast","78","probe-134","0.26286076358083","0.25591457787888905","0.7722247193251996","0","","","","","","","",""
"","html-keyboard-response","251","1045824","0.0-136.0-1.0","null","<p></p>","null","","","","","","","","","","","","","","","","","","","","","","",""
"","do_trial","252","1050361","0.0-137.0-0.0","0.20000028610229492","","","","","","","","50","0,0,1","2","coast","79","probe-26","0.16448717352290562","0.3544056512751784","0.7109269425642907","0","","","","","","","",""
"","html-keyboard-response","253","1051362","0.0-137.0-1.0","null","<p></p>","null","","","","","","","","","","","","","","","","","","","","","","",""
"","do_trial","254","1056034","0.0-138.0-0.0","135.60000038146973","","","","","","","","49","0,1,0","2","coast","80","probe-153","0.2079004832451104","0.2901686069665546","0.6427472614446623","0","","","","","","","",""
"","html-keyboard-response","255","1057036","0.0-138.0-1.0","null","<p></p>","null","","","","","","","","","","","","","","","","","","","","","","",""
"","do_trial","256","1062190","0.0-139.0-0.0","615.2999997138977","","","","","","","","50","0,0,1","2","coast","81","probe-129","0.18802006271617244","0.23601879062837744","0.6897656877596531","0","","","","","","","",""
"","html-keyboard-response","257","1063194","0.0-139.0-1.0","null","<p></p>","null","","","","","","","","","","","","","","","","","","","","","","",""
"","do_trial","258","1068019","0.0-140.0-0.0","283.7000002861023","","","","","","","","50","1,0,0","2","coast","82","probe-109","0.3168071538487271","0.11945634709080345","0.6760092304944189","0","","","","","","","",""
"","html-keyboard-response","259","1069025","0.0-140.0-1.0","null","<p></p>","null","","","","","","","","","","","","","","","","","","","","","","",""
"","do_trial","260","1073698","0.0-141.0-0.0","135.80000019073486","","","","","","","","50","0,0,1","2","coast","83","probe-204","0.39917788939650733","0.24658504054416605","0.45943485692106556","0","","","","","","","",""
"","html-keyboard-response","261","1074699","0.0-141.0-1.0","null","<p></p>","null","","","","","","","","","","","","","","","","","","","","","","",""
"","do_trial","262","1079466","0.0-142.0-0.0","229.90000009536743","","","","","","","","49","0,0,0","2","coast","84","probe-67","0.47218501566110055","0.186252751875279","0.24997539383073059","0","","","","","","","",""
"","html-keyboard-response","263","1080469","0.0-142.0-1.0","null","<p></p>","null","","","","","","","","","","","","","","","","","","","","","","",""
"","do_trial","264","1085524","0.0-143.0-0.0","515.7000002861023","","","","","","","","51","0,1,1","2","coast","85","probe-140","0.5980849563321938","0.1482754002626923","0.2731829786576348","1","","","","","","","",""
"","html-keyboard-response","265","1086530","0.0-143.0-1.0","null","<p></p>","null","","","","","","","","","","","","","","","","","","","","","","",""
"","do_trial","266","1091159","0.0-144.0-0.0","90.09999990463257","","","","","","","","49","1,0,0","2","coast","86","probe-161","0.6249824046147652","0.16743822027183686","0.16475620109276776","1","","","","","","","",""
"","html-keyboard-response","267","1092162","0.0-144.0-1.0","null","<p></p>","null","","","","","","","","","","","","","","","","","","","","","","",""
"","do_trial","268","1097021","0.0-145.0-0.0","320.7000002861023","","","","","","","","50","0,0,0","2","coast","87","probe-37","0.6126133149980205","0.14557363714418223","0.21576970879361937","0","","","","","","","",""
"","html-keyboard-response","269","1098024","0.0-145.0-1.0","null","<p></p>","null","","","","","","","","","","","","","","","","","","","","","","",""
"","do_trial","270","1102755","0.0-146.0-0.0","195.59999990463257","","","","","","","","51","0,0,0","2","coast","88","probe-119","0.6040360108717514","0.13494177808986135","0.14132233803548883","0","","","","","","","",""
"","html-keyboard-response","271","1103758","0.0-146.0-1.0","null","<p></p>","null","","","","","","","","","","","","","","","","","","","","","","",""
"","do_trial","272","1108841","0.0-147.0-0.0","548.0999999046326","","","","","","","","50","1,0,0","2","coast","89","probe-25","0.554169283660958","0.2193941497340937","0.1336015956932686","0","","","","","","","",""
"","html-keyboard-response","273","1109842","0.0-147.0-1.0","null","<p></p>","null","","","","","","","","","","","","","","","","","","","","","","",""
"","do_trial","274","1115066","0.0-148.0-0.0","686.2000002861023","","","","","","","","49","1,0,0","2","coast","90","probe-220","0.5870862600437913","0.20386924773952825","0.08735650781208727","1","","","","","","","",""
"","html-keyboard-response","275","1116070","0.0-148.0-1.0","null","<p></p>","null","","","","","","","","","","","","","","","","","","","","","","",""
"","do_trial","276","1123210","0.0-149.0-0.0","2603.800000190735","","","","","","","","49","1,1,0","2","coast","91","probe-02","0.5660014031582298","0.0939410444593496","0.23457729907333233","1","","","","","","","",""
"","html-keyboard-response","277","1124212","0.0-149.0-1.0","null","<p></p>","null","","","","","","","","","","","","","","","","","","","","","","",""
"","do_trial","278","1128746","0.0-150.0-0.0","0.20000028610229492","","","","","","","","50","1,0,0","2","coast","92","probe-218","0.6711112374954893","0.0928114829079183","0.2837496247531246","0","","","","","","","",""
"","html-keyboard-response","279","1129749","0.0-150.0-1.0","null","<p></p>","null","","","","","","","","","","","","","","","","","","","","","","",""
"","do_trial","280","1135794","0.0-151.0-0.0","null","","","","","","","","null","1,1,0","2","coast","93","probe-135","0.7707495175835135","0.19901434932920928","0.32990626200435313","","","","","","","","",""
"","html-keyboard-response","281","1136797","0.0-151.0-1.0","null","<p></p>","null","","","","","","","","","","","","","","","","","","","","","","",""
"","do_trial","282","1142840","0.0-152.0-0.0","null","","","","","","","","null","1,1,1","2","coast","94","probe-04","0.7625589440293858","0.3171652272013218","0.28405341510620646","","","","","","","","",""
"","html-keyboard-response","283","1143843","0.0-152.0-1.0","null","<p></p>","null","","","","","","","","","","","","","","","","","","","","","","",""
"","do_trial","284","1148477","0.0-153.0-0.0","98","","","","","","","","50","1,1,0","2","coast","95","probe-196","0.7906677949099533","0.22592743657814396","0.28247177748162594","1","","","","","","","",""
"","html-keyboard-response","285","1149481","0.0-153.0-1.0","null","<p></p>","null","","","","","","","","","","","","","","","","","","","","","","",""
"","do_trial","286","1155524","0.0-154.0-0.0","null","","","","","","","","null","1,0,1","2","coast","96","probe-30","0.6923617168940028","0.09489608496680232","0.31489921310297464","","","","","","","","",""
"","html-keyboard-response","287","1156527","0.0-154.0-1.0","null","<p></p>","null","","","","","","","","","","","","","","","","","","","","","","",""
"","do_trial","288","1162532","0.0-155.0-0.0","1465","","","","","","","","49","0,0,0","2","coast","97","probe-57","0.6724339269098843","0.18576957347619036","0.3315607666466471","0","","","","","","","",""
"","html-keyboard-response","289","1163535","0.0-155.0-1.0","null","<p></p>","null","","","","","","","","","","","","","","","","","","","","","","",""
"","do_trial","290","1169300","0.0-156.0-0.0","1230","","","","","","","","50","0,0,1","2","coast","98","probe-123","0.5505470043595648","0.14759038828863788","0.35426797636079166","0","","","","","","","",""
"","html-keyboard-response","291","1170304","0.0-156.0-1.0","null","<p></p>","null","","","","","","","","","","","","","","","","","","","","","","",""
"","do_trial","292","1175492","0.0-157.0-0.0","649.4000000953674","","","","","","","","50","1,0,0","2","coast","99","probe-81","0.5685192533121435","0.19606378947635997","0.3007372407609569","0","","","","","","","",""
"","html-keyboard-response","293","1176495","0.0-157.0-1.0","null","<p></p>","null","","","","","","","","","","","","","","","","","","","","","","",""
"","do_trial","294","1181702","0.0-158.0-0.0","668.5","","","","","","","","50","1,0,0","2","coast","100","probe-175","0.4862047388717602","0.1620618958813369","0.21033607356598694","0","","","","","","","",""
"","html-keyboard-response","295","1182707","0.0-158.0-1.0","null","<p></p>","null","","","","","","","","","","","","","","","","","","","","","","",""
"","do_trial","296","1188093","0.0-159.0-0.0","845.6999998092651","","","","","","","","50","1,0,0","2","coast","101","probe-142","0.6064509097620133","0.06463084240662927","0.21223098228551504","0","","","","","","","",""
"","html-keyboard-response","297","1189096","0.0-159.0-1.0","null","<p></p>","null","","","","","","","","","","","","","","","","","","","","","","",""
"","do_trial","298","1195201","0.0-160.0-0.0","1567.5","","","","","","","","49","1,0,1","2","coast","102","probe-163","0.5307640561992761","0.09058099516856634","0.2815074521062993","1","","","","","","","",""
"","html-keyboard-response","299","1196204","0.0-160.0-1.0","null","<p></p>","null","","","","","","","","","","","","","","","","","","","","","","",""
"","do_trial","300","1202240","0.0-161.0-0.0","null","","","","","","","","null","1,0,0","2","coast","103","probe-120","0.6645112525342812","0.0777484397537335","0.413017044627363","","","","","","","","",""
"","html-keyboard-response","301","1203242","0.0-161.0-1.0","null","<p></p>","null","","","","","","","","","","","","","","","","","","","","","","",""
"","do_trial","302","1207806","0.0-162.0-0.0","24.199999809265137","","","","","","","","51","1,0,1","2","coast","104","probe-125","0.6097283284535567","0.085374214899302","0.46213076242345613","1","","","","","","","",""
"","html-keyboard-response","303","1208808","0.0-162.0-1.0","null","<p></p>","null","","","","","","","","","","","","","","","","","","","","","","",""
"","do_trial","304","1214844","0.0-163.0-0.0","null","","","","","","","","null","0,0,1","2","coast","105","probe-192","0.6126802544547326","0.20399054696797023","0.44177603224043255","","","","","","","","",""
"","html-keyboard-response","305","1215845","0.0-163.0-1.0","null","<p></p>","null","","","","","","","","","","","","","","","","","","","","","","",""
"","do_trial","306","1220527","0.0-164.0-0.0","140.40000009536743","","","","","","","","49","1,0,1","2","coast","106","probe-38","0.5573073798068621","0.10470787691634438","0.3904215759126028","1","","","","","","","",""
"","html-keyboard-response","307","1221533","0.0-164.0-1.0","null","<p></p>","null","","","","","","","","","","","","","","","","","","","","","","",""
"","do_trial","308","1226203","0.0-165.0-0.0","135.80000019073486","","","","","","","","49","1,0,0","2","coast","107","probe-141","0.5923558198862726","0.16362076916005344","0.25256199926605716","1","","","","","","","",""
"","html-keyboard-response","309","1227207","0.0-165.0-1.0","null","<p></p>","null","","","","","","","","","","","","","","","","","","","","","","",""
"","do_trial","310","1232942","0.0-166.0-0.0","1200.9000000953674","","","","","","","","51","0,0,0","2","coast","108","probe-59","0.6315973032831378","0.08934662961472174","0.3346805461267557","0","","","","","","","",""
"","html-keyboard-response","311","1233943","0.0-166.0-1.0","null","<p></p>","null","","","","","","","","","","","","","","","","","","","","","","",""
"","do_trial","312","1238715","0.0-167.0-0.0","235.30000019073486","","","","","","","","51","1,0,1","2","coast","109","probe-48","0.6734531065886674","0.12868897284280834","0.3398240566127075","1","","","","","","","",""
"","html-keyboard-response","313","1239719","0.0-167.0-1.0","null","<p></p>","null","","","","","","","","","","","","","","","","","","","","","","",""
"","do_bye","314","1241227","0.0-168.0-0.0","null","","","","","","","","null","","","","","","","","","","","","","","","","",""
"","do_travel","315","1247230","0.0-169.0-0.0","null","","","","","","","","null","","","","","","","","","","","","","","","","",""
"","do_welcome","316","1248738","0.0-169.0-1.0","null","","","","","","","","null","","","","","","","","","","","","","","","","",""
"","do_trial","317","1255883","0.0-170.0-0.0","2609.5","","","","","","","","49","1,0,0","3","mountain","110","probe-08","1","0.15953948572633245","0.3456213017774609","1","","","","","","","",""
"","html-keyboard-response","318","1256886","0.0-170.0-1.0","null","<p></p>","null","","","","","","","","","","","","","","","","","","","","","","",""
"","do_trial","319","1262322","0.0-171.0-0.0","895.4000000953674","","","","","","","","49","1,0,1","3","mountain","111","probe-66","1","0.054559632594568405","0.47279967789203026","1","","","","","","","",""
"","html-keyboard-response","320","1263325","0.0-171.0-1.0","null","<p></p>","null","","","","","","","","","","","","","","","","","","","","","","",""
"","do_trial","321","1268493","0.0-172.0-0.0","633.7999997138977","","","","","","","","49","1,0,0","3","mountain","112","probe-171","0.9024784714373648","0.05882720102186331","0.3586395885328196","1","","","","","","","",""
"","html-keyboard-response","322","1269496","0.0-172.0-1.0","null","<p></p>","null","","","","","","","","","","","","","","","","","","","","","","",""
"","do_trial","323","1274547","0.0-173.0-0.0","515","","","","","","","","49","1,0,0","3","mountain","113","probe-105","0.75876082599805","0.11031777536547473","0.27363210100754826","1","","","","","","","",""
"","html-keyboard-response","324","1275550","0.0-173.0-1.0","null","<p></p>","null","","","","","","","","","","","","","","","","","","","","","","",""
"","do_trial","325","1281746","0.0-174.0-0.0","1661.5","","","","","","","","49","1,1,0","3","mountain","114","probe-225","0.6731778694800891","0.14131518476234506","0.3935645278294381","1","","","","","","","",""
"","html-keyboard-response","326","1282749","0.0-174.0-1.0","null","<p></p>","null","","","","","","","","","","","","","","","","","","","","","","",""
"","do_trial","327","1288744","0.0-175.0-0.0","1459.4000000953674","","","","","","","","49","1,0,0","3","mountain","115","probe-06","0.6825915152006098","0.099331352305581","0.30800757973383336","1","","","","","","","",""
"","html-keyboard-response","328","1289745","0.0-175.0-1.0","null","<p></p>","null","","","","","","","","","","","","","","","","","","","","","","",""
"","do_trial","329","1294599","0.0-176.0-0.0","313.90000009536743","","","","","","","","49","1,0,0","3","mountain","116","probe-51","0.5305352615828849","0.22215643282592518","0.2939112309813301","1","","","","","","","",""
"","html-keyboard-response","330","1295601","0.0-176.0-1.0","null","<p></p>","null","","","","","","","","","","","","","","","","","","","","","","",""
"","do_trial","331","1301967","0.0-177.0-0.0","1826.2000002861023","","","","","","","","49","1,0,0","3","mountain","117","probe-210","0.5020967267036404","0.09630609202075999","0.261765863502412","1","","","","","","","",""
"","html-keyboard-response","332","1302971","0.0-177.0-1.0","null","<p></p>","null","","","","","","","","","","","","","","","","","","","","","","",""
"","do_trial","333","1308152","0.0-178.0-0.0","643.2000002861023","","","","","","","","49","0,0,0","3","mountain","118","probe-106","0.5286370177405713","0.08720338382963945","0.2622026655910278","0","","","","","","","",""
"","html-keyboard-response","334","1309156","0.0-178.0-1.0","null","<p></p>","null","","","","","","","","","","","","","","","","","","","","","","",""
"","do_trial","335","1313712","0.0-179.0-0.0","16.800000190734863","","","","","","","","49","0,0,0","3","mountain","119","probe-217","0.5334182222552465","0.18310157241855557","0.3468811754386668","0","","","","","","","",""
"","html-keyboard-response","336","1314714","0.0-179.0-1.0","null","<p></p>","null","","","","","","","","","","","","","","","","","","","","","","",""
"","do_trial","337","1320530","0.0-180.0-0.0","1274.4000000953674","","","","","","","","49","0,1,0","3","mountain","120","probe-124","0.36977138713938545","0.2745996678070382","0.28981583309155096","0","","","","","","","",""
"","html-keyboard-response","338","1321536","0.0-180.0-1.0","null","<p></p>","null","","","","","","","","","","","","","","","","","","","","","","",""
"","do_trial","339","1327007","0.0-181.0-0.0","934.5999999046326","","","","","","","","49","1,0,0","3","mountain","121","probe-227","0.36131453702428884","0.337453298063634","0.38098160108881646","1","","","","","","","",""
"","html-keyboard-response","340","1328010","0.0-181.0-1.0","null","<p></p>","null","","","","","","","","","","","","","","","","","","","","","","",""
"","do_trial","341","1333547","0.0-182.0-0.0","1000.6999998092651","","","","","","","","49","0,0,0","3","mountain","122","probe-104","0.19007162052431817","0.49529009607365354","0.28000948070270554","0","","","","","","","",""
"","html-keyboard-response","342","1334550","0.0-182.0-1.0","null","<p></p>","null","","","","","","","","","","","","","","","","","","","","","","",""
"","do_trial","343","1340959","0.0-183.0-0.0","1871","","","","","","","","49","1,1,0","3","mountain","123","probe-108","0.17045319377996065","0.6310023372734652","0.41559766910803303","1","","","","","","","",""
"","html-keyboard-response","344","1341962","0.0-183.0-1.0","null","<p></p>","null","","","","","","","","","","","","","","","","","","","","","","",""
"","do_trial","345","1348159","0.0-184.0-0.0","1658.3999996185303","","","","","","","","49","0,0,1","3","mountain","124","probe-158","0.1653202830771285","0.7947618285011694","0.23554769592456892","0","","","","","","","",""
"","html-keyboard-response","346","1349163","0.0-184.0-1.0","null","<p></p>","null","","","","","","","","","","","","","","","","","","","","","","",""
"","do_trial","347","1354773","0.0-185.0-0.0","1073.9000000953674","","","","","","","","49","0,1,0","3","mountain","125","probe-22","0.0963302518513244","0.6423630175438219","0.26048768007440826","0","","","","","","","",""
"","html-keyboard-response","348","1355776","0.0-185.0-1.0","null","<p></p>","null","","","","","","","","","","","","","","","","","","","","","","",""
"","do_trial","349","1361355","0.0-186.0-0.0","1041.4000000953674","","","","","","","","49","0,1,0","3","mountain","126","probe-150","0.11873889864033847","0.6169921228850773","0.06705705496955307","0","","","","","","","",""
"","html-keyboard-response","350","1362358","0.0-186.0-1.0","null","<p></p>","null","","","","","","","","","","","","","","","","","","","","","","",""
"","do_trial","351","1367756","0.0-187.0-0.0","861","","","","","","","","49","0,1,0","3","mountain","127","probe-224","0.1768353863318723","0.6106444291776887","0.10350181992573684","0","","","","","","","",""
"","html-keyboard-response","352","1368759","0.0-187.0-1.0","null","<p></p>","null","","","","","","","","","","","","","","","","","","","","","","",""
"","do_trial","353","1375824","0.0-188.0-0.0","2526.5","","","","","","","","49","0,1,1","3","mountain","128","probe-40","0.1576662124258036","0.38043985371088085","0.17341502946537418","0","","","","","","","",""
"","html-keyboard-response","354","1376826","0.0-188.0-1.0","null","<p></p>","null","","","","","","","","","","","","","","","","","","","","","","",""
"","do_trial","355","1382863","0.0-189.0-0.0","null","","","","","","","","null","0,0,0","3","mountain","129","probe-205","0.1023094710857982","0.4652257565741802","0.19237366471103975","","","","","","","","",""
"","html-keyboard-response","356","1383866","0.0-189.0-1.0","null","<p></p>","null","","","","","","","","","","","","","","","","","","","","","","",""
"","do_trial","357","1388525","0.0-190.0-0.0","119.7999997138977","","","","","","","","49","0,0,0","3","mountain","130","probe-156","0.2508403321232064","0.5014358608646554","0.23186986602237372","0","","","","","","","",""
"","html-keyboard-response","358","1389529","0.0-190.0-1.0","null","<p></p>","null","","","","","","","","","","","","","","","","","","","","","","",""
"","do_trial","359","1396352","0.0-191.0-0.0","2288.4000000953674","","","","","","","","49","1,1,0","3","mountain","131","probe-14","0.22677350071962568","0.6086175159474951","0.2857475383511567","1","","","","","","","",""
"","html-keyboard-response","360","1397354","0.0-191.0-1.0","null","<p></p>","null","","","","","","","","","","","","","","","","","","","","","","",""
"","do_trial","361","1403532","0.0-192.0-0.0","1639.3000001907349","","","","","","","","49","0,1,1","3","mountain","132","probe-188","0.12079855189285273","0.4795604066101714","0.3441145268133818","0","","","","","","","",""
"","html-keyboard-response","362","1404535","0.0-192.0-1.0","null","<p></p>","null","","","","","","","","","","","","","","","","","","","","","","",""
"","do_trial","363","1410574","0.0-193.0-0.0","null","","","","","","","","null","0,0,0","3","mountain","133","probe-202","0.15581054469502498","0.593937302181984","0.36286297582444293","","","","","","","","",""
"","html-keyboard-response","364","1411580","0.0-193.0-1.0","null","<p></p>","null","","","","","","","","","","","","","","","","","","","","","","",""
"","do_trial","365","1417570","0.0-194.0-0.0","1453.4000000953674","","","","","","","","49","0,0,1","3","mountain","134","probe-56","0.06025931862974395","0.5791942554618876","0.3155991238050035","0","","","","","","","",""
"","html-keyboard-response","366","1418575","0.0-194.0-1.0","null","<p></p>","null","","","","","","","","","","","","","","","","","","","","","","",""
"","do_trial","367","1424331","0.0-195.0-0.0","1219.7000002861023","","","","","","","","49","0,0,0","3","mountain","135","probe-185","0.16565254471169027","0.7489763542060649","0.31122027520333584","0","","","","","","","",""
"","html-keyboard-response","368","1425335","0.0-195.0-1.0","null","<p></p>","null","","","","","","","","","","","","","","","","","","","","","","",""
"","do_trial","369","1430385","0.0-196.0-0.0","513.7000002861023","","","","","","","","49","0,0,1","3","mountain","136","probe-100","0.11066310378668279","0.5946927017941978","0.27749313748988547","0","","","","","","","",""
"","html-keyboard-response","370","1431389","0.0-196.0-1.0","null","<p></p>","null","","","","","","","","","","","","","","","","","","","","","","",""
"","do_trial","371","1437550","0.0-197.0-0.0","1625.2000002861023","","","","","","","","50","0,0,0","3","mountain","137","probe-211","0.08407055512586312","0.6300024915383098","0.1279677795438231","0","","","","","","","",""
"","html-keyboard-response","372","1438553","0.0-197.0-1.0","null","<p></p>","null","","","","","","","","","","","","","","","","","","","","","","",""
"","do_trial","373","1444631","0.0-198.0-0.0","1538.9000000953674","","","","","","","","50","0,1,0","3","mountain","138","probe-53","0.05416756004583151","0.6065604807244914","0.21743579222015913","1","","","","","","","",""
"","html-keyboard-response","374","1445636","0.0-198.0-1.0","null","<p></p>","null","","","","","","","","","","","","","","","","","","","","","","",""
"","do_trial","375","1451424","0.0-199.0-0.0","1243.6999998092651","","","","","","","","50","0,1,0","3","mountain","139","probe-88","0.0685330939837814","0.6895355389683354","0.25607816734719785","1","","","","","","","",""
"","html-keyboard-response","376","1452429","0.0-199.0-1.0","null","<p></p>","null","","","","","","","","","","","","","","","","","","","","","","",""
"","do_trial","377","1457332","0.0-200.0-0.0","363.80000019073486","","","","","","","","49","0,1,1","3","mountain","140","probe-69","0.10092035661520977","0.642277319505233","0.3609380063139428","0","","","","","","","",""
"","html-keyboard-response","378","1458336","0.0-200.0-1.0","null","<p></p>","null","","","","","","","","","","","","","","","","","","","","","","",""
"","do_trial","379","1462980","0.0-201.0-0.0","104.5","","","","","","","","49","0,1,0","3","mountain","141","probe-203","0.054931373306225925","0.6418689145749078","0.41771820522709874","0","","","","","","","",""
"","html-keyboard-response","380","1463982","0.0-201.0-1.0","null","<p></p>","null","","","","","","","","","","","","","","","","","","","","","","",""
"","do_trial","381","1468647","0.0-202.0-0.0","127.69999980926514","","","","","","","","50","0,0,1","3","mountain","142","probe-78","0.07365629053057425","0.6065618190371329","0.4165956711329388","0","","","","","","","",""
"","html-keyboard-response","382","1469650","0.0-202.0-1.0","null","<p></p>","null","","","","","","","","","","","","","","","","","","","","","","",""
"","do_trial","383","1474371","0.0-203.0-0.0","186","","","","","","","","49","1,0,0","3","mountain","143","probe-55","0.18143753374211163","0.46941063944750566","0.5274228740831594","1","","","","","","","",""
"","html-keyboard-response","384","1475377","0.0-203.0-1.0","null","<p></p>","null","","","","","","","","","","","","","","","","","","","","","","",""
"","do_trial","385","1479941","0.0-204.0-0.0","27.199999809265137","","","","","","","","49","0,1,0","3","mountain","144","probe-148","0.06590273689338604","0.4259192711231864","0.6360944179078091","0","","","","","","","",""
"","html-keyboard-response","386","1480943","0.0-204.0-1.0","null","<p></p>","null","","","","","","","","","","","","","","","","","","","","","","",""
"","do_trial","387","1485679","0.0-205.0-0.0","199","","","","","","","","49","0,0,1","3","mountain","145","probe-76","0.11282725303138928","0.43646939231131304","0.5370279530396534","0","","","","","","","",""
"","html-keyboard-response","388","1486685","0.0-205.0-1.0","null","<p></p>","null","","","","","","","","","","","","","","","","","","","","","","",""
"","do_trial","389","1492275","0.0-206.0-0.0","1050.5","","","","","","","","50","1,1,0","3","mountain","146","probe-219","0.11801631675026215","0.4417120214577867","0.3319259928387012","1","","","","","","","",""
"","html-keyboard-response","390","1493277","0.0-206.0-1.0","null","<p></p>","null","","","","","","","","","","","","","","","","","","","","","","",""
"","do_trial","391","1497968","0.0-207.0-0.0","152.40000009536743","","","","","","","","51","0,0,0","3","mountain","147","probe-139","0.10477657371193953","0.7426429093018645","0.32213018524414394","0","","","","","","","",""
"","html-keyboard-response","392","1498975","0.0-207.0-1.0","null","<p></p>","null","","","","","","","","","","","","","","","","","","","","","","",""
"","do_trial","393","1503746","0.0-208.0-0.0","234.40000009536743","","","","","","","","51","1,0,0","3","mountain","148","probe-09","0.07610144281503008","0.5192241068460229","0.23277213907809277","0","","","","","","","",""
"","html-keyboard-response","394","1504751","0.0-208.0-1.0","null","<p></p>","null","","","","","","","","","","","","","","","","","","","","","","",""
"","do_trial","395","1509992","0.0-209.0-0.0","703.1999998092651","","","","","","","","49","0,0,1","3","mountain","149","probe-23","0.05106435209691362","0.5930486101812303","0.2419831170622633","0","","","","","","","",""
"","html-keyboard-response","396","1510998","0.0-209.0-1.0","null","<p></p>","null","","","","","","","","","","","","","","","","","","","","","","",""
"","do_bye","397","1512502","0.0-210.0-0.0","null","","","","","","","","null","","","","","","","","","","","","","","","","",""
"","do_travel","398","1518505","0.0-211.0-0.0","null","","","","","","","","null","","","","","","","","","","","","","","","","",""
"","do_welcome","399","1520008","0.0-211.0-1.0","null","","","","","","","","null","","","","","","","","","","","","","","","","",""
"","do_trial","400","1527048","0.0-212.0-0.0","2501.5999999046326","","","","","","","","49","0,1,0","4","forest","150","probe-228","0.10658348070236137","1","0.2105628373778695","0","","","","","","","",""
"","html-keyboard-response","401","1528051","0.0-212.0-1.0","null","<p></p>","null","","","","","","","","","","","","","","","","","","","","","","",""
"","do_trial","402","1533505","0.0-213.0-0.0","915.9000000953674","","","","","","","","49","0,1,0","4","forest","151","probe-177","0.09615999530780174","1","0.25790266941455114","0","","","","","","","",""
"","html-keyboard-response","403","1534506","0.0-213.0-1.0","null","<p></p>","null","","","","","","","","","","","","","","","","","","","","","","",""
"","do_trial","404","1539983","0.0-214.0-0.0","941.2999997138977","","","","","","","","50","0,1,0","4","forest","152","probe-229","0.05885391337968926","0.8485102423873164","0.2763075949264981","1","","","","","","","",""
"","html-keyboard-response","405","1540989","0.0-214.0-1.0","null","<p></p>","null","","","","","","","","","","","","","","","","","","","","","","",""
"","do_trial","406","1546308","0.0-215.0-0.0","781.6999998092651","","","","","","","","49","0,1,0","4","forest","153","probe-159","0.07000231116414614","0.7975667139354523","0.28554850787420444","0","","","","","","","",""
"","html-keyboard-response","407","1547314","0.0-215.0-1.0","null","<p></p>","null","","","","","","","","","","","","","","","","","","","","","","",""
"","do_trial","408","1553376","0.0-216.0-0.0","1521.5","","","","","","","","50","0,1,1","4","forest","154","probe-28","0.10824523654096084","0.7049143928692414","0.4064262869299068","1","","","","","","","",""
"","html-keyboard-response","409","1554379","0.0-216.0-1.0","null","<p></p>","null","","","","","","","","","","","","","","","","","","","","","","",""
"","do_trial","410","1560981","0.0-217.0-0.0","2061.800000190735","","","","","","","","49","0,0,0","4","forest","155","probe-31","0.18009808488706144","0.6239637954346872","0.3853458295256984","0","","","","","","","",""
"","html-keyboard-response","411","1561983","0.0-217.0-1.0","null","<p></p>","null","","","","","","","","","","","","","","","","","","","","","","",""
"","do_trial","412","1566583","0.0-218.0-0.0","61","","","","","","","","50","1,0,0","4","forest","156","probe-216","0.21866253121278856","0.6209393335921831","0.36540804349032935","0","","","","","","","",""
"","html-keyboard-response","413","1567587","0.0-218.0-1.0","null","<p></p>","null","","","","","","","","","","","","","","","","","","","","","","",""
"","do_trial","414","1572230","0.0-219.0-0.0","105","","","","","","","","51","0,1,1","4","forest","157","probe-18","0.055812344548708454","0.7091901223429352","0.27719050854459587","1","","","","","","","",""
"","html-keyboard-response","415","1573232","0.0-219.0-1.0","null","<p></p>","null","","","","","","","","","","","","","","","","","","","","","","",""
"","do_trial","416","1577953","0.0-220.0-0.0","184.89999961853027","","","","","","","","51","0,1,0","4","forest","158","probe-127","0.20479125072663748","0.6615984627476638","0.27701917047149016","0","","","","","","","",""
"","html-keyboard-response","417","1578958","0.0-220.0-1.0","null","<p></p>","null","","","","","","","","","","","","","","","","","","","","","","",""
"","do_trial","418","1583781","0.0-221.0-0.0","285.69999980926514","","","","","","","","51","0,0,0","4","forest","159","probe-63","0.09339056830215559","0.5481128393697398","0.2721712384882882","0","","","","","","","",""
"","html-keyboard-response","419","1584784","0.0-221.0-1.0","null","<p></p>","null","","","","","","","","","","","","","","","","","","","","","","",""
"","do_trial","420","1589427","0.0-222.0-0.0","107.69999980926514","","","","","","","","51","1,1,0","4","forest","160","probe-42","0.2541954833799622","0.4622664312935351","0.2749124071414047","0","","","","","","","",""
"","html-keyboard-response","421","1590429","0.0-222.0-1.0","null","<p></p>","null","","","","","","","","","","","","","","","","","","","","","","",""
"","do_trial","422","1595338","0.0-223.0-0.0","369.7000002861023","","","","","","","","50","0,0,0","4","forest","161","probe-10","0.16473161176723888","0.5204111890198044","0.09246315771411666","0","","","","","","","",""
"","html-keyboard-response","423","1596340","0.0-223.0-1.0","null","<p></p>","null","","","","","","","","","","","","","","","","","","","","","","",""
"","do_trial","424","1603393","0.0-224.0-0.0","2513.5","","","","","","","","50","0,0,0","4","forest","162","probe-201","0.3176195763669737","0.3357863224324277","0.20549726298583437","0","","","","","","","",""
"","html-keyboard-response","425","1604400","0.0-224.0-1.0","null","<p></p>","null","","","","","","","","","","","","","","","","","","","","","","",""
"","do_trial","426","1609511","0.0-225.0-0.0","574.6999998092651","","","","","","","","50","1,1,0","4","forest","163","probe-03","0.4074131585741237","0.3586860052473708","0.2463270302214064","1","","","","","","","",""
"","html-keyboard-response","427","1610513","0.0-225.0-1.0","null","<p></p>","null","","","","","","","","","","","","","","","","","","","","","","",""
"","do_trial","428","1616219","0.0-226.0-0.0","1165.3000001907349","","","","","","","","50","1,0,1","4","forest","164","probe-168","0.43713803579251964","0.321022970615348","0.22108006414064732","0","","","","","","","",""
"","html-keyboard-response","429","1617223","0.0-226.0-1.0","null","<p></p>","null","","","","","","","","","","","","","","","","","","","","","","",""
"","do_trial","430","1622210","0.0-227.0-0.0","451.5","","","","","","","","51","0,0,1","4","forest","165","probe-97","0.44932712224801463","0.21019538911399824","0.284200260180986","1","","","","","","","",""
"","html-keyboard-response","431","1623215","0.0-227.0-1.0","null","<p></p>","null","","","","","","","","","","","","","","","","","","","","","","",""
"","do_trial","432","1629258","0.0-228.0-0.0","null","","","","","","","","null","1,0,0","4","forest","166","probe-16","0.46109795612857873","0.39465485232643716","0.12954098475436573","","","","","","","","",""
"","html-keyboard-response","433","1630260","0.0-228.0-1.0","null","<p></p>","null","","","","","","","","","","","","","","","","","","","","","","",""
"","do_trial","434","1636301","0.0-229.0-0.0","null","","","","","","","","null","0,0,0","4","forest","167","probe-182","0.4594048428970039","0.35957253606259315","0.17958906072867795","","","","","","","","",""
"","html-keyboard-response","435","1637305","0.0-229.0-1.0","null","<p></p>","null","","","","","","","","","","","","","","","","","","","","","","",""
"","do_trial","436","1644015","0.0-230.0-0.0","2172.2000002861023","","","","","","","","49","1,0,0","4","forest","168","probe-221","0.5959773749137061","0.189709409695486","0.2479381262592784","1","","","","","","","",""
"","html-keyboard-response","437","1645021","0.0-230.0-1.0","null","<p></p>","null","","","","","","","","","","","","","","","","","","","","","","",""
"","do_trial","438","1651768","0.0-231.0-0.0","2209.2999997138977","","","","","","","","50","1,0,0","4","forest","169","probe-21","0.5529307345235177","0.19546889222117017","0.0744058111107571","0","","","","","","","",""
"","html-keyboard-response","439","1652771","0.0-231.0-1.0","null","<p></p>","null","","","","","","","","","","","","","","","","","","","","","","",""
"","do_trial","440","1657705","0.0-232.0-0.0","398.09999990463257","","","","","","","","50","1,0,0","4","forest","170","probe-52","0.5610712587521477","0.31633820863294543","0.11195206005389226","0","","","","","","","",""
"","html-keyboard-response","441","1658707","0.0-232.0-1.0","null","<p></p>","null","","","","","","","","","","","","","","","","","","","","","","",""
"","do_trial","442","1664744","0.0-233.0-0.0","null","","","","","","","","null","1,0,0","4","forest","171","probe-46","0.6898658371982626","0.3859227242658394","0.07593732498864586","","","","","","","","",""
"","html-keyboard-response","443","1665746","0.0-233.0-1.0","null","<p></p>","null","","","","","","","","","","","","","","","","","","","","","","",""
"","do_trial","444","1671789","0.0-234.0-0.0","null","","","","","","","","null","1,0,0","4","forest","172","probe-197","0.6934896772884003","0.30855340424387956","0.14994004669645378","","","","","","","","",""
"","html-keyboard-response","445","1672791","0.0-234.0-1.0","null","<p></p>","null","","","","","","","","","","","","","","","","","","","","","","",""
"","do_trial","446","1678830","0.0-235.0-0.0","null","","","","","","","","null","0,0,0","4","forest","173","probe-62","0.6115794071904604","0.2296559362654392","0.0855986748234497","","","","","","","","",""
"","html-keyboard-response","447","1679831","0.0-235.0-1.0","null","<p></p>","null","","","","","","","","","","","","","","","","","","","","","","",""
"","do_trial","448","1686697","0.0-236.0-0.0","2329.9000000953674","","","","","","","","50","1,0,0","4","forest","174","probe-44","0.6017532121043356","0.29745914785299526","0.08606664419138532","0","","","","","","","",""
"","html-keyboard-response","449","1687703","0.0-236.0-1.0","null","<p></p>","null","","","","","","","","","","","","","","","","","","","","","","",""
"","do_trial","450","1693012","0.0-237.0-0.0","769.4000000953674","","","","","","","","50","1,1,0","4","forest","175","probe-99","0.6245529378356813","0.20553007677253576","0.07699375638904395","1","","","","","","","",""
"","html-keyboard-response","451","1694018","0.0-237.0-1.0","null","<p></p>","null","","","","","","","","","","","","","","","","","","","","","","",""
"","do_trial","452","1699713","0.0-238.0-0.0","1159.1999998092651","","","","","","","","51","1,0,0","4","forest","176","probe-12","0.7872585862859935","0.2581261057950633","0.06864041446253602","0","","","","","","","",""
"","html-keyboard-response","453","1700714","0.0-238.0-1.0","null","<p></p>","null","","","","","","","","","","","","","","","","","","","","","","",""
"","do_trial","454","1707678","0.0-239.0-0.0","2428.5","","","","","","","","51","1,1,0","4","forest","177","probe-114","0.6090064836664054","0.424010603470549","0.0923796076334838","0","","","","","","","",""
"","html-keyboard-response","455","1708682","0.0-239.0-1.0","null","<p></p>","null","","","","","","","","","","","","","","","","","","","","","","",""
"","do_trial","456","1713792","0.0-240.0-0.0","569.8000001907349","","","","","","","","50","0,0,1","4","forest","178","probe-115","0.44520352707071353","0.3405605245444332","0.1010336947094782","0","","","","","","","",""
"","html-keyboard-response","457","1714794","0.0-240.0-1.0","null","<p></p>","null","","","","","","","","","","","","","","","","","","","","","","",""
"","do_trial","458","1720236","0.0-241.0-0.0","904.8000001907349","","","","","","","","51","1,0,0","4","forest","179","probe-193","0.5345180633474935","0.2846894978832716","0.1961615015719342","0","","","","","","","",""
"","html-keyboard-response","459","1721237","0.0-241.0-1.0","null","<p></p>","null","","","","","","","","","","","","","","","","","","","","","","",""
"","do_trial","460","1727279","0.0-242.0-0.0","null","","","","","","","","null","0,0,0","4","forest","180","probe-68","0.5260306266349845","0.3520098458378431","0.1658030454354615","","","","","","","","",""
"","html-keyboard-response","461","1728286","0.0-242.0-1.0","null","<p></p>","null","","","","","","","","","","","","","","","","","","","","","","",""
"","do_trial","462","1732836","0.0-243.0-0.0","13.799999713897705","","","","","","","","49","1,0,0","4","forest","181","probe-93","0.5265882275226192","0.3255597012902091","0.06062614822517604","1","","","","","","","",""
"","html-keyboard-response","463","1733838","0.0-243.0-1.0","null","<p></p>","null","","","","","","","","","","","","","","","","","","","","","","",""
"","do_trial","464","1740511","0.0-244.0-0.0","2133.2999997138977","","","","","","","","49","0,0,0","4","forest","182","probe-138","0.45275515394081156","0.32000955992411373","0.07051544995300706","0","","","","","","","",""
"","html-keyboard-response","465","1741514","0.0-244.0-1.0","null","<p></p>","null","","","","","","","","","","","","","","","","","","","","","","",""
"","do_trial","466","1746449","0.0-245.0-0.0","396.09999990463257","","","","","","","","50","0,1,1","4","forest","183","probe-208","0.6085913918909946","0.3552251547432281","0.24331764159140168","1","","","","","","","",""
"","html-keyboard-response","467","1747454","0.0-245.0-1.0","null","<p></p>","null","","","","","","","","","","","","","","","","","","","","","","",""
"","do_trial","468","1753345","0.0-246.0-0.0","1354.0999999046326","","","","","","","","49","1,0,0","4","forest","184","probe-110","0.6723030724010021","0.35899530827019677","0.2009300636934704","1","","","","","","","",""
"","html-keyboard-response","469","1754346","0.0-246.0-1.0","null","<p></p>","null","","","","","","","","","","","","","","","","","","","","","","",""
"","do_trial","470","1760094","0.0-247.0-0.0","1211.9000000953674","","","","","","","","50","0,0,0","4","forest","185","probe-180","0.4971820277340347","0.4236321616113605","0.2935761051946863","0","","","","","","","",""
"","html-keyboard-response","471","1761098","0.0-247.0-1.0","null","<p></p>","null","","","","","","","","","","","","","","","","","","","","","","",""
"","do_trial","472","1766465","0.0-248.0-0.0","826.2999997138977","","","","","","","","49","0,1,0","4","forest","186","probe-89","0.7238285794584891","0.26480944705416565","0.24462766012950612","0","","","","","","","",""
"","html-keyboard-response","473","1767471","0.0-248.0-1.0","null","<p></p>","null","","","","","","","","","","","","","","","","","","","","","","",""
"","do_trial","474","1773325","0.0-249.0-0.0","1317.3000001907349","","","","","","","","49","1,0,0","4","forest","187","probe-75","0.5450985046476953","0.18774389478772643","0.07608431742050822","1","","","","","","","",""
"","html-keyboard-response","475","1774328","0.0-249.0-1.0","null","<p></p>","null","","","","","","","","","","","","","","","","","","","","","","",""
"","do_trial","476","1779601","0.0-250.0-0.0","738.4000000953674","","","","","","","","49","1,0,1","4","forest","188","probe-147","0.7120071427371043","0.2256173755994232","0.08781292051505021","1","","","","","","","",""
"","html-keyboard-response","477","1780607","0.0-250.0-1.0","null","<p></p>","null","","","","","","","","","","","","","","","","","","","","","","",""
