"success","trial_type","trial_index","time_elapsed","internal_node_id","interactions","blur_events","focus_events","fullscreenenter_events","fullscreenexit_events"
"true","fullscreen","0","6877","0.0-0.0","""event"",""trial"",""time""
""fullscreenenter"",""0"",""5950""
","
","
","""event"",""trial"",""time""
""fullscreenenter"",""0"",""5950""
","
"
"","pavlovia","1","6884","0.0-1.0","""event"",""trial"",""time""
""fullscreenenter"",""0"",""5950""
""fullscreenexit"",""2"",""122264""
""blur"",""2"",""219640""
""focus"",""2"",""221080""
""blur"",""2"",""294076""
""focus"",""2"",""295369""
""blur"",""2"",""377631""
""focus"",""2"",""379259""
""blur"",""2"",""439451""
""focus"",""2"",""440948""
""blur"",""2"",""493012""
""focus"",""2"",""495669""
""blur"",""2"",""496279""
","""event"",""trial"",""time""
""blur"",""2"",""219640""
""blur"",""2"",""294076""
""blur"",""2"",""377631""
""blur"",""2"",""439451""
""blur"",""2"",""493012""
""blur"",""2"",""496279""
","""event"",""trial"",""time""
""focus"",""2"",""221080""
""focus"",""2"",""295369""
""focus"",""2"",""379259""
""focus"",""2"",""440948""
""focus"",""2"",""495669""
","""event"",""trial"",""time""
""fullscreenenter"",""0"",""5950""
","""event"",""trial"",""time""
""fullscreenexit"",""2"",""122264""
"
