"success","trial_type","trial_index","time_elapsed","internal_node_id","rt","stimulus","key_press","subject_id","response","choice_outcomes","context_n","context_img_id","trial_n","probe_img_id","pR_red","pR_white","pR_black","outcome","is_valid","image_to_show","probed_trial","probed_context","correct","context_id"
"true","fullscreen","0","4898","0.0-0.0","","","","","","","","","","","","","","","","","","","",""
"","pavlovia","1","4904","0.0-1.0","","","","","","","","","","","","","","","","","","","",""
"","html-keyboard-response","2","14191","0.0-2.0","9286.300000000745","<div class='center'><p>Welcome! This experiment will last ~1 hour. In this experiment, you are the head captain of a pirate ship traveling around the world to different places. You will complete several different tasks during this experiment. Here is an overview of these tasks:</p><br><p>1. Tutorial and quiz</p><p>2. Pick a pirate game in 6 different places</p><p>3. Pick a pirate game and memory game</p><p>4. Final questions and payment</p><br><p>If you complete the entire experiment, you will receive $15 and a possible bonus payment.</p><p><b>[Press the space bar to begin the tutorial]</b></p></div>","32","610c6f42aa768ab53196875d","","","","","","","","","","","","","","","",""
"","html-keyboard-response","3","22806","0.0-3.0","8613.599999999627","<div class='center'><p>You are the head captain of a pirate ship.</p><p> Your pirates rob other ships as they leave the marketplace port.</p> These ships have just sold all their goods at the marketplace, so they have lots and lots of gold on them.</p><p><img src='run_exp/static/images/ship_center.png' height='400'></p><p><b>[Press the space bar to continue]</b></p></div>","32","","","","","","","","","","","","","","","","",""
"","html-keyboard-response","4","34361","0.0-4.0","11554.599999999627","<div class='center'><p>As the head captain, you do not have to rob any ships yourself.</p><p>You get to choose which pirate you want to rob the next ship. </p><p>If they are successful at robbing the ship, then you will get gold coins.</p><p> If they are not successful, then you will get no gold coins.</p><p> The more coins you collect, the more bonus money you will win. So, choose your pirate wisely.</p><p><img src='run_exp/static/images/goal.png' height='400'></p><p><b>[Press the space bar to continue]</b></p><div>","32","","","","","","","","","","","","","","","","",""
"","html-keyboard-response","5","47445","0.0-5.0","13083.5","<div class='center'><p>Even the most skilled pirate will not be able to rob EVERY ship.</p><p> Some ships will have very strong defenses against attacks.</p><p> For example, blue beard, here,  is very good at robbing ships.</p><p> You can press the <b>‘1’</b> button on the keyboard to choose him.</p><p> Try choosing him 10 times to see how often he is successful at robbing ships. </p><p><img src='run_exp/static/images/blue.png' height='500'></p></div>","49","","","","","","","","","","","","","","","","",""
"","html-keyboard-response","6","48949","0.0-6.0","null","<br><br><br><br><p><img src='run_exp/static/images/blue_win.png' height='500'></p>","null","","","","","","","","","","","","","","","","",""
"","html-keyboard-response","7","50426","0.0-7.0","1476.2000000001863","<br><br><br><br><p><img src='run_exp/static/images/blue.png' height='500'></p>","49","","","","","","","","","","","","","","","","",""
"","html-keyboard-response","8","51928","0.0-8.0","null","<br><br><br><br><p><img src='run_exp/static/images/blue_win.png' height='500'></p>","null","","","","","","","","","","","","","","","","",""
"","html-keyboard-response","9","54308","0.0-9.0","2378.899999999441","<br><br><br><br><p><img src='run_exp/static/images/blue.png' height='500'></p>","49","","","","","","","","","","","","","","","","",""
"","html-keyboard-response","10","55810","0.0-10.0","null","<br><br><br><br><p><img src='run_exp/static/images/blue_win.png' height='500'></p>","null","","","","","","","","","","","","","","","","",""
"","html-keyboard-response","11","57267","0.0-11.0","1456.3999999994412","<br><br><br><br><p><img src='run_exp/static/images/blue.png' height='500'></p>","49","","","","","","","","","","","","","","","","",""
"","html-keyboard-response","12","58773","0.0-12.0","null","<br><br><br><br><p><img src='run_exp/static/images/blue_no_win.png' height='500'></p>","null","","","","","","","","","","","","","","","","",""
"","html-keyboard-response","13","61609","0.0-13.0","2834.600000000559","<br><br><br><br><p><img src='run_exp/static/images/blue.png' height='500'></p>","49","","","","","","","","","","","","","","","","",""
"","html-keyboard-response","14","63115","0.0-14.0","null","<br><br><br><br><p><img src='run_exp/static/images/blue_win.png' height='500'></p>","null","","","","","","","","","","","","","","","","",""
"","html-keyboard-response","15","65210","0.0-15.0","2094","<br><br><br><br><p><img src='run_exp/static/images/blue.png' height='500'></p>","49","","","","","","","","","","","","","","","","",""
"","html-keyboard-response","16","66711","0.0-16.0","null","<br><br><br><br><p><img src='run_exp/static/images/blue_win.png' height='500'></p>","null","","","","","","","","","","","","","","","","",""
"","html-keyboard-response","17","67494","0.0-17.0","782","<br><br><br><br><p><img src='run_exp/static/images/blue.png' height='500'></p>","49","","","","","","","","","","","","","","","","",""
"","html-keyboard-response","18","68998","0.0-18.0","null","<br><br><br><br><p><img src='run_exp/static/images/blue_win.png' height='500'></p>","null","","","","","","","","","","","","","","","","",""
"","html-keyboard-response","19","69416","0.0-19.0","417.30000000074506","<br><br><br><br><p><img src='run_exp/static/images/blue.png' height='500'></p>","49","","","","","","","","","","","","","","","","",""
"","html-keyboard-response","20","70922","0.0-20.0","null","<br><br><br><br><p><img src='run_exp/static/images/blue_no_win.png' height='500'></p>","null","","","","","","","","","","","","","","","","",""
"","html-keyboard-response","21","72150","0.0-21.0","1227.1000000005588","<br><br><br><br><p><img src='run_exp/static/images/blue.png' height='500'></p>","49","","","","","","","","","","","","","","","","",""
"","html-keyboard-response","22","73653","0.0-22.0","null","<br><br><br><br><p><img src='run_exp/static/images/blue_win.png' height='500'></p>","null","","","","","","","","","","","","","","","","",""
"","html-keyboard-response","23","74322","0.0-23.0","668","<br><br><br><br><p><img src='run_exp/static/images/blue.png' height='500'></p>","49","","","","","","","","","","","","","","","","",""
"","html-keyboard-response","24","75828","0.0-24.0","null","<br><br><br><br><p><img src='run_exp/static/images/blue_win.png' height='500'></p>","null","","","","","","","","","","","","","","","","",""
"","html-keyboard-response","25","79733","0.0-25.0","3904.7000000001863","<div class='center'><p> See, he was successful at robbing the ships most of the time but not every time. </p><p><b>[Press the space bar to continue]</b></p></div>","32","","","","","","","","","","","","","","","","",""
"","html-keyboard-response","26","85561","0.0-26.0","5826.4000000003725","<div class='center'><p>In the game, you will get to choose which of three pirates you want to rob the next ship. <p>Press the <b>‘1’</b> button on your keyboard to pick the pirate with the red beard.</p><p> Press <b>‘2’</b> to pick the pirate with the white beard.</p><p> Press <b>‘3’</b> to pick the pirate with the black beard.</p><p>Try picking a pirate now!</p><p><img src='run_exp/static/images/all_pirates.png' height='500'></p></div>","50","","","","","","","","","","","","","","","","",""
"","html-keyboard-response","27","87384","0.0-27.0-0.0","1820.5","<div class='center'><p>This pirate was successful at robbing the ship!</p><p><img src='run_exp/static/images/white_win.png' height='500'></p><p><b>[Press the space bar to continue]</b></p></div>","32","","","","","","","","","","","","","","","","",""
"","html-keyboard-response","28","89442","0.0-27.0-1.0","2057.9000000003725","<div class='center'><p>Now try choosing another</p><p><img src='run_exp/static/images/all_pirates.png' height='500'></p></div>","49","","","","","","","","","","","","","","","","",""
"","html-keyboard-response","29","91400","0.0-28.0-0.0","1955.8999999994412","<div class='center'><p>This pirate was not successful at robbing the ship!</p><p><img src='run_exp/static/images/red_no_win.png' height='500'></p><p><b>[Press the space bar to continue]</b></p></div>","32","","","","","","","","","","","","","","","","",""
"","html-keyboard-response","30","91906","0.0-29.0-0.0","505.70000000018626","<div class='center'><p>You’ll stop at these 6 places on your journey.</p><p><img src='run_exp/static/images/all_contexts.png' height='500'></p><p><b>[Press the space bar to continue]</b></p></div>","32","","","","","","","","","","","","","","","","",""
"","html-keyboard-response","31","94820","0.0-29.0-1.0","2913.2999999998137","<div class='center'><p>How good a pirate is at robbing ships will depend on the current place.</p><p> Some pirates will have been to the place before, and will have more experience robbing ships there.</p><p>So, they will be more successful at stealing gold and bringing it back to you.</p><p><b>[Press the space bar to continue]</b></p></div>","32","","","","","","","","","","","","","","","","",""
"","html-keyboard-response","32","97317","0.0-29.0-2.0","2496.100000000559","<div class='center'><p>How successful a pirate is at robbing ships can also change in a place.<p> Ships may hear about the pirates coming and will improve their defenses. This may make it more difficult to rob them.</p><p> Ships may also grow lazy and lower their defenses. This may make it easier to rob them.</p><br><p>Things are always changing on the high seas! So, try your best to pay attention!</p><p><img src='run_exp/static/images/contingency.png' height='500'></p><p><b>[Press the space bar to continue]</b></p></div>","32","","","","","","","","","","","","","","","","",""
"","html-keyboard-response","33","103460","0.0-29.0-3.0","6142.299999999814","<div class='center'><p>Once you choose a pirate to rob a ship, you’ll be shown the ship they are robbing.</p><p>The ship will have a picture of the item they sold at the marketplace.</p><p> Try your best to remember the ship and where you saw the ship.</p><p> You’ll have to remember this for later, and remembering this correctly will help you win more bonus money!</p><p>You can remember the ship by remembering the item they sold at the marketplace</p><p>A helpful strategy is to try to come up with a story of the chosen pirate and ship’s item interacting with the scene.</p><p> For example, a ship might have sold travel mugs and you could imagine red beard walking through the city with a travel mug. </p><p>Or imagine an apple falling from a tree into white beard's hands in the forest.</p><p><img src='run_exp/static/images/example_probe.png' height='500'></p><p><b>[Press the space bar to continue]</b></p></div>","32","","","","","","","","","","","","","","","","",""
"","html-keyboard-response","34","106386","0.0-29.0-4.0","2924.5999999996275","<div class='center'><p>If you don’t make your choice fast enough, you’ll have to wait a few seconds before you can make another one. </p><p>You can’t win more gold. You just have to sit and wait.</p><p><img src='run_exp/static/images/hurry_up.png' height='500'></p><p><b>[Press the space bar to continue]</b></p></div>","32","","","","","","","","","","","","","","","","",""
"","html-keyboard-response","35","108895","0.0-29.0-5.0","2508.4000000003725","<div class='center'><p>Again, you have two important things to do: </p><b><p> 1. Pick the pirate who you think will be most successful at robbing the next ship.</p></b><b><p> 2. Remember where a pirate robbed a ship.</p> </b><p>Both are important in determining how much bonus money you’ll win.</p><br><p>Let’s try a practice game. The game will start by showing you the pirates. First pick a pirate using the <b> 1, 2, 3 </b> buttons on your keyboard. When you are shown a ship, try to remember the place you’re in by making up a story.</p><p> You only have 3 seconds to pick a pirate, so please make a choice quickly! If you are too slow, you’ll have to wait a bit during the time out.</p><p> Don’t feel rushed, but please do try to make a choice every time.</p><p>How good a pirate is at robbing a ship will change depending on the place they are in and how good the defenses are of the ship.</p> <p>This is just a practice game, so you’re not playing for money. </p><p>You’ll receive a bag which may or may not contain gold coins.</p><p> In the real game, though, you’ll be able to see whether or not you received the gold coins.</p><p> Good luck, remember press <b>'1'</b> to choose red beard, <b>'2'</b> to choose white beard, and <b>'3'</b> to choose black beard</p><p><b>[Press the space bar to begin the practice game]</b></p></div>","32","","","","","","","","","","","","","","","","",""
"","do_trial_prac","36","115997","0.0-29.0-6.0","2590.300000000745","","","","49","","","","","","","","","","","","","","",""
"","do_trial_prac","37","122614","0.0-29.0-7.0","2106.9000000003725","","","","50","","","","","","","","","","","","","","",""
"","do_trial_prac","38","128632","0.0-29.0-8.0","1507.8999999994412","","","","51","","","","","","","","","","","","","","",""
"","do_trial_prac","39","134538","0.0-29.0-9.0","1397","","","","49","","","","","","","","","","","","","","",""
"","do_trial_prac","40","139619","0.0-29.0-10.0","574.9000000003725","","","","49","","","","","","","","","","","","","","",""
"","html-keyboard-response","41","142803","0.0-29.0-11.0","3182.2999999998137","<div class='center'><p>Great job on the practice game!</p><p> Now, you will be asked you some true or false questions to make sure you really understand the rules of the game.</p><p> Press <b>'1'</b> on the keyboard for true and press <b>'2'</b> for false.</p><p><b>[Press the space bar to begin the quiz]</b></p></div>","32","","","","","","","","","","","","","","","","",""
"","html-keyboard-response","42","147067","0.0-29.0-12.0","4263.700000000186","<div class='center'><p>You win bonus money by making choices as fast as possible.</p><p>Press 1 for true and press  2 for false.</p></div>","49","","","","","","","","","","","","","","","","",""
"","html-keyboard-response","43","151274","0.0-30.0-0.0","4205.799999999814","<br><br><br><br><p>That’s incorrect! You win bonus money by collecting as many gold coins as possible!</p><p><b>[press the space bar to continue with the quiz]</b></p>","32","","","","","","","","","","","","","","","","",""
"","html-keyboard-response","44","156832","0.0-30.0-1.0","5557.399999999441","<div class='center'><p>You press the <b>‘3’</b> button on the keyboard to choose the red bearded pirate? </p><p>Press 1 for true and press  2 for false.</p></div>","50","","","","","","","","","","","","","","","","",""
"","html-keyboard-response","45","157878","0.0-31.0-0.0","1045.3999999994412","<br><br><br><br><p>That's correct!</p> <p><b>[press the space bar to continue with the quiz]</b></p>","32","","","","","","","","","","","","","","","","",""
"","html-keyboard-response","46","161286","0.0-31.0-1.0","3407.5","<div class='center'><p>A pirate will always be equally successful at robbing ships in each place</p><p>Press 1 for true and press  2 for false.</p></div>","50","","","","","","","","","","","","","","","","",""
"","html-keyboard-response","47","161827","0.0-32.0-0.0","539.7000000001863","<br><br><br><br><p>That's correct!</p> <p><b>[press the space bar to continue with the quiz]</b></p>","32","","","","","","","","","","","","","","","","",""
"","html-keyboard-response","48","163885","0.0-32.0-1.0","2057.5","<div class='center'><p>You should remember the place where a pirate robbed a ship.</p><p>Press 1 for true and press  2 for false.</p></div>","49","","","","","","","","","","","","","","","","",""
"","html-keyboard-response","49","164358","0.0-33.0-0.0","471.79999999981374","<br><br><br><br><p>That's correct!</p> <p><b>[press the space bar to continue with the quiz]</b></p>","32","","","","","","","","","","","","","","","","",""
"","html-keyboard-response","50","168094","0.0-34.0-0.0","3734.7999999998137","<br><br><br><br><p>Oops, you missed some questions. Now that you’ve heard the correct answers. Try the quiz again! If you fail the quiz too many times, you won’t be able to do the experiment. </p> <p><br>[press the space bar to repeat the quiz]</br></p>","32","","","","","","","","","","","","","","","","",""
"","html-keyboard-response","51","169578","0.0-34.0-1.0","1483.7000000001863","<div class='center'><p>You win bonus money by making choices as fast as possible.</p><p>Press 1 for true and press  2 for false.</p></div>","50","","","","","","","","","","","","","","","","",""
"","html-keyboard-response","52","170118","0.0-35.0-0.0","539.1000000005588","<br><br><br><br><p>That's correct!</p> <p><b>[press the space bar to continue with the quiz]</b></p>","32","","","","","","","","","","","","","","","","",""
"","html-keyboard-response","53","171232","0.0-35.0-1.0","1113.2000000001863","<div class='center'><p>You press the <b>‘3’</b> button on the keyboard to choose the red bearded pirate? </p><p>Press 1 for true and press  2 for false.</p></div>","50","","","","","","","","","","","","","","","","",""
"","html-keyboard-response","54","171637","0.0-36.0-0.0","403.90000000037253","<br><br><br><br><p>That's correct!</p> <p><b>[press the space bar to continue with the quiz]</b></p>","32","","","","","","","","","","","","","","","","",""
"","html-keyboard-response","55","172672","0.0-36.0-1.0","1034.4000000003725","<div class='center'><p>A pirate will always be equally successful at robbing ships in each place</p><p>Press 1 for true and press  2 for false.</p></div>","50","","","","","","","","","","","","","","","","",""
"","html-keyboard-response","56","173190","0.0-37.0-0.0","517.2000000001863","<br><br><br><br><p>That's correct!</p> <p><b>[press the space bar to continue with the quiz]</b></p>","32","","","","","","","","","","","","","","","","",""
"","html-keyboard-response","57","174551","0.0-37.0-1.0","1360.2000000001863","<div class='center'><p>You should remember the place where a pirate robbed a ship.</p><p>Press 1 for true and press  2 for false.</p></div>","49","","","","","","","","","","","","","","","","",""
"","html-keyboard-response","58","174957","0.0-38.0-0.0","390.09999999962747","<br><br><br><br><p>That's correct!</p> <p><b>[press the space bar to continue with the quiz]</b></p>","32","","","","","","","","","","","","","","","","",""
"","html-keyboard-response","59","175710","0.0-39.0-0.0","752.1000000005588","<br><br><br><br><p>Good job! You’re now ready to move on to the real game!</p> <p><br>[press the space bar to begin!]</br></p>","32","","","","","","","","","","","","","","","","",""
"","do_welcome","60","177218","0.0-40.0-0.0","null","","","","null","","","","","","","","","","","","","","",""
"","do_trial","61","183295","0.0-41.0-0.0","null","","","","null","1,1,1","0","coast","0","probe-133","1","0.4","0.1","","","","","","",""
"","do_trial","62","189844","0.0-42.0-0.0","981.5","","","","49","1,0,0","0","coast","1","probe-75","1","0.4153281986893709","0.06010020753253479","1","","","","","",""
"","do_trial","63","196480","0.0-43.0-0.0","1071.0999999996275","","","","51","1,0,1","0","coast","2","probe-65","1","0.3596199079890555","0.13245987970350803","1","","","","","",""
"","do_trial","64","202614","0.0-44.0-0.0","566.2999999998137","","","","50","1,0,0","0","coast","3","probe-74","1","0.4068194749636948","0.2277485848272098","0","","","","","",""
"","do_trial","65","209622","0.0-45.0-0.0","1437.2999999998137","","","","49","1,0,0","0","coast","4","probe-223","0.8825504870439447","0.3280459062734071","0.2176006984534844","1","","","","","",""
"","do_trial","66","216130","0.0-46.0-0.0","619.2999999998137","","","","49","1,1,0","0","coast","5","probe-203","0.9283609183807032","0.44007326279669856","0.15639163496957376","1","","","","","",""
"","do_trial","67","222320","0.0-47.0-0.0","620.1000000005588","","","","51","1,0,0","0","coast","6","probe-53","0.7730276496889763","0.4113920089049852","0.10082337849590405","0","","","","","",""
"","do_trial","68","228437","0.0-48.0-0.0","551.6000000005588","","","","50","0,0,0","0","coast","7","probe-47","0.7533121303234743","0.28557151662286523","0.09883824925335227","0","","","","","",""
"","do_trial","69","234921","0.0-49.0-0.0","916.2999999998137","","","","49","1,1,0","0","coast","8","probe-128","0.7940376052694553","0.3062710686390963","0.0899668293113694","1","","","","","",""
"","do_trial","70","242908","0.0-50.0-0.0","2418.100000000559","","","","51","1,1,0","0","coast","9","probe-120","0.8336183810014666","0.4369658731478961","0.16722991759982095","0","","","","","",""
"","do_trial","71","249002","0.0-51.0-0.0","528.2999999998137","","","","49","0,0,0","0","coast","10","probe-145","0.5292559818224909","0.2905950584391607","0.3478078805860938","0","","","","","",""
"","do_trial","72","255066","0.0-52.0-0.0","500.8999999994412","","","","51","1,0,0","0","coast","11","probe-217","0.42459585268091987","0.23624244864397753","0.46765078589422165","0","","","","","",""
"","do_trial","73","261212","0.0-53.0-0.0","578.2999999998137","","","","50","0,1,1","0","coast","12","probe-48","0.33173135301437867","0.2980625155792159","0.6288735229255046","1","","","","","",""
"","do_trial","74","267219","0.0-54.0-0.0","439.70000000018626","","","","49","0,0,1","0","coast","13","probe-05","0.2741152740430626","0.19782430362274883","0.5580024650419587","0","","","","","",""
"","do_trial","75","273508","0.0-55.0-0.0","719.4000000003725","","","","51","0,0,0","0","coast","14","probe-212","0.26745034127320244","0.3204459844692403","0.530456549775261","0","","","","","",""
"","do_trial","76","279749","0.0-56.0-0.0","678","","","","51","0,0,1","0","coast","15","probe-239","0.1368205924689127","0.45532700925949493","0.5730881786465081","1","","","","","",""
"","do_trial","77","285907","0.0-57.0-0.0","591.5","","","","50","0,0,1","0","coast","16","probe-193","0.10123607313771793","0.5271445481690252","0.7386565940720583","0","","","","","",""
"","do_trial","78","292033","0.0-58.0-0.0","564.2000000001863","","","","49","0,1,1","0","coast","17","probe-55","0.060825327773224046","0.5235357747964992","0.6386551199515322","0","","","","","",""
"","do_trial","79","297990","0.0-59.0-0.0","387.6000000005588","","","","51","0,0,1","0","coast","18","probe-201","0.10705480349297901","0.5609651686604469","0.7051283615042853","1","","","","","",""
"","do_trial","80","303941","0.0-60.0-0.0","385","","","","50","0,0,0","0","coast","19","probe-192","0.06439574474973112","0.41430709625498746","0.7098794053616433","0","","","","","",""
"","do_trial","81","310025","0.0-61.0-0.0","519","","","","49","0,0,0","0","coast","20","probe-160","0.05430238769090022","0.42445397779650224","0.7185387087309048","0","","","","","",""
"","do_trial","82","316035","0.0-62.0-0.0","439.90000000037253","","","","49","0,0,1","0","coast","21","probe-09","0.14640885470463313","0.33472766738022003","0.7897675368907381","0","","","","","",""
"","do_trial","83","322053","0.0-63.0-0.0","450","","","","51","0,1,1","0","coast","22","probe-230","0.19479866243995367","0.44534926392915697","0.7404340544665015","1","","","","","",""
"","do_trial","84","328285","0.0-64.0-0.0","666.7999999998137","","","","50","0,1,0","0","coast","23","probe-116","0.16341656268255514","0.3333826927184026","0.6462923865516331","1","","","","","",""
"","do_trial","85","334317","0.0-65.0-0.0","464.40000000037253","","","","49","0,0,1","0","coast","24","probe-72","0.16862546943655138","0.4107580874164297","0.44920497612549654","0","","","","","",""
"","do_trial","86","340302","0.0-66.0-0.0","416.1000000005588","","","","51","0,1,0","0","coast","25","probe-80","0.08223643236701365","0.512147164587009","0.5309861950101293","0","","","","","",""
"","do_trial","87","346298","0.0-67.0-0.0","429.5","","","","49","0,0,0","0","coast","26","probe-54","0.1384811317785018","0.35380704966822124","0.7123097324666892","0","","","","","",""
"","do_trial","88","352227","0.0-68.0-0.0","361.8999999994412","","","","50","0,1,0","0","coast","27","probe-117","0.24049577554213267","0.4316028351053889","0.7888705794779385","1","","","","","",""
"","do_trial","89","358369","0.0-69.0-0.0","574.7999999998137","","","","51","0,0,1","0","coast","28","probe-58","0.16408333202891331","0.5142883568568096","0.740316207432751","1","","","","","",""
"","do_trial","90","364299","0.0-70.0-0.0","363.40000000037253","","","","49","0,1,0","0","coast","29","probe-96","0.2000424915911572","0.4438719327192196","0.8661392467486602","0","","","","","",""
"","do_trial","91","370193","0.0-71.0-0.0","327.1000000005588","","","","50","0,1,1","0","coast","30","probe-51","0.18430787768648052","0.35532967584845165","0.7794010097737284","1","","","","","",""
"","do_trial","92","377743","0.0-72.0-0.0","1980.5","","","","51","1,1,1","0","coast","31","probe-175","0.1736983771977841","0.35732284094625494","0.829146239909662","1","","","","","",""
"","do_trial","93","384786","0.0-73.0-0.0","1475.7000000001863","","","","49","0,1,1","0","coast","32","probe-180","0.13057231808787112","0.4049272761302021","0.7240733869255498","0","","","","","",""
"","do_trial","94","391334","0.0-74.0-0.0","981.2000000001863","","","","49","0,1,1","0","coast","33","probe-155","0.07386796349954329","0.29044749173900447","0.7517379323303033","0","","","","","",""
"","do_trial","95","397330","0.0-75.0-0.0","427.40000000037253","","","","51","0,0,0","0","coast","34","probe-57","0.20165078572277842","0.368659583923135","0.6215263218456761","0","","","","","",""
"","do_trial","96","403292","0.0-76.0-0.0","396.20000000018626","","","","49","1,0,1","0","coast","35","probe-172","0.21529158432767542","0.27154754952819965","0.6990026879661327","1","","","","","",""
"","do_trial","97","410355","0.0-77.0-0.0","1497.8999999994412","","","","51","0,0,0","0","coast","36","probe-87","0.22518070267518975","0.41975815375799885","0.6543205728044765","0","","","","","",""
"","do_trial","98","416354","0.0-78.0-0.0","433.29999999981374","","","","50","0,0,1","0","coast","37","probe-240","0.17581350801724038","0.43522204967916894","0.612920888890038","0","","","","","",""
"","do_trial","99","424916","0.0-79.0-0.0","2994.800000000745","","","","51","1,1,0","0","coast","38","probe-149","0.23080339341098863","0.36967265409549394","0.7539606610478328","0","","","","","",""
"","do_trial","100","431024","0.0-80.0-0.0","539.5","","","","49","0,1,1","0","coast","39","probe-31","0.10816600107869356","0.4298102736192056","0.882390001098429","0","","","","","",""
"","do_bye","101","432534","0.0-81.0-0.0","null","","","","null","","","","","","","","","","","","","","",""
"","do_travel","102","438540","0.0-82.0-0.0","null","","","","null","","","","","","","","","","","","","","",""
"","do_welcome","103","440049","0.0-82.0-1.0","null","","","","null","","","","","","","","","","","","","","",""
"","do_trial","104","446999","0.0-83.0-0.0","1385.2999999998137","","","","51","0,0,1","1","mountain","40","probe-40","0.15709548803312304","0.26580223340854187","1","1","","","","","",""
"","do_trial","105","453027","0.0-84.0-0.0","463.5","","","","49","0,0,1","1","mountain","41","probe-136","0.19397068881588383","0.36027076806563996","1","0","","","","","",""
"","do_trial","106","459563","0.0-85.0-0.0","972.7999999998137","","","","50","0,0,1","1","mountain","42","probe-103","0.07833669009166602","0.31023929242328707","1","0","","","","","",""
"","do_trial","107","465830","0.0-86.0-0.0","700.2000000001863","","","","51","1,0,1","1","mountain","43","probe-153","0.11663200028269032","0.24459477876127722","1","1","","","","","",""
"","do_trial","108","471817","0.0-87.0-0.0","419.09999999962747","","","","49","0,1,1","1","mountain","44","probe-85","0.318381573851813","0.31640038024311534","0.874408422341474","0","","","","","",""
"","do_trial","109","478062","0.0-88.0-0.0","678.2999999998137","","","","50","0,0,0","1","mountain","45","probe-125","0.22060969952855217","0.4784553882169841","0.9117811707493355","0","","","","","",""
"","do_trial","110","483933","0.0-89.0-0.0","304","","","","49","0,1,1","1","mountain","46","probe-218","0.15343688516560045","0.4476335250787088","0.8325457596194007","0","","","","","",""
"","do_trial","111","491692","0.0-90.0-0.0","2197","","","","51","0,1,1","1","mountain","47","probe-111","0.17836708586951247","0.5853966420411996","0.8317800504345999","1","","","","","",""
"","do_trial","112","498223","0.0-91.0-0.0","961.2999999998137","","","","51","0,1,0","1","mountain","48","probe-221","0.05729624783381654","0.5101738668598593","0.8298258098712306","0","","","","","",""
"","do_trial","113","504544","0.0-92.0-0.0","755.1000000005588","","","","50","1,1,1","1","mountain","49","probe-88","0.13615142717699985","0.392182852465261","0.7515047547426652","1","","","","","",""
"","do_trial","114","510531","0.0-93.0-0.0","418","","","","49","1,0,1","1","mountain","50","probe-109","0.3971586926179373","0.3383520365070598","0.6183123844344462","1","","","","","",""
"","do_trial","115","516512","0.0-94.0-0.0","414.20000000018626","","","","50","1,0,0","1","mountain","51","probe-17","0.34524536513592985","0.1740276309217947","0.4856237801116609","0","","","","","",""
"","do_trial","116","522429","0.0-95.0-0.0","354.3999999994412","","","","51","1,0,1","1","mountain","52","probe-131","0.5735866036444041","0.13245480970128626","0.48006258006179947","1","","","","","",""
"","do_trial","117","528340","0.0-96.0-0.0","342.1000000005588","","","","49","0,0,0","1","mountain","53","probe-138","0.5581450747709453","0.13589815266504895","0.4446653647860205","0","","","","","",""
"","do_trial","118","535188","0.0-97.0-0.0","1284.1000000005588","","","","50","0,0,0","1","mountain","54","probe-104","0.6037892772135524","0.24793562933873134","0.35531421044507816","0","","","","","",""
"","do_trial","119","541409","0.0-98.0-0.0","655.5","","","","51","1,0,0","1","mountain","55","probe-61","0.6576944390220948","0.10577815397282567","0.2906934613828057","0","","","","","",""
"","do_trial","120","547326","0.0-99.0-0.0","351.79999999981374","","","","49","1,0,0","1","mountain","56","probe-07","0.8912191245421482","0.1039700514094045","0.20473350764685427","1","","","","","",""
"","do_trial","121","553247","0.0-100.0-0.0","354.30000000074506","","","","50","1,0,1","1","mountain","57","probe-110","0.9489929290447406","0.06199252240698472","0.34696145422247676","0","","","","","",""
"","do_trial","122","559804","0.0-101.0-0.0","994.2000000001863","","","","51","0,0,0","1","mountain","58","probe-71","0.8370884773370779","0.09965699865635749","0.47984621218915124","0","","","","","",""
"","do_trial","123","565691","0.0-102.0-0.0","319.3999999994412","","","","49","0,0,0","1","mountain","59","probe-02","0.8147408325359985","0.1618202544751658","0.41118357335734845","0","","","","","",""
"","do_trial","124","571615","0.0-103.0-0.0","362","","","","50","1,0,1","1","mountain","60","probe-238","0.7681998202269326","0.1077385509492681","0.33252729790766233","0","","","","","",""
"","do_trial","125","577402","0.0-104.0-0.0","218.20000000018626","","","","49","1,0,0","1","mountain","61","probe-231","0.6013597855325362","0.1628423260974742","0.33029168060897063","1","","","","","",""
"","do_trial","126","585941","0.0-105.0-0.0","2973.7000000001863","","","","51","1,0,0","1","mountain","62","probe-82","0.6346545350838939","0.2465659317937168","0.49623289221504285","0","","","","","",""
"","do_trial","127","591882","0.0-106.0-0.0","373.20000000018626","","","","49","1,1,1","1","mountain","63","probe-237","0.6011601043013298","0.2620698658582028","0.5844233023168823","1","","","","","",""
"","do_trial","128","598009","0.0-107.0-0.0","564.5","","","","50","0,1,0","1","mountain","64","probe-19","0.744573819021684","0.1904800422369366","0.60210418488857","1","","","","","",""
"","do_trial","129","603791","0.0-108.0-0.0","220.20000000018626","","","","51","1,0,1","1","mountain","65","probe-81","0.7230480051340692","0.1461938007159107","0.4450219543156005","1","","","","","",""
"","do_trial","130","609360","0.0-109.0-0.0","0.09999999962747097","","","","49","1,0,0","1","mountain","66","probe-102","0.8521448534144728","0.10852570334458576","0.4619733847977365","1","","","","","",""
"","do_trial","131","616194","0.0-110.0-0.0","1267.7000000001863","","","","51","0,0,0","1","mountain","67","probe-198","0.8359566579483013","0.09996675737601632","0.35239359871827786","0","","","","","",""
"","do_trial","132","622301","0.0-111.0-0.0","539.6999999992549","","","","49","0,0,0","1","mountain","68","probe-234","0.8060931941114547","0.09053239449389748","0.563216485324782","0","","","","","",""
"","do_trial","133","628238","0.0-112.0-0.0","374.70000000018626","","","","51","1,0,1","1","mountain","69","probe-235","0.9094341676913271","0.2386646965486431","0.5232511241207456","1","","","","","",""
"","do_trial","134","634497","0.0-113.0-0.0","691.4000000003725","","","","49","1,0,1","1","mountain","70","probe-20","0.70345703357498","0.12744316088057553","0.45422052941370733","1","","","","","",""
"","do_trial","135","640512","0.0-114.0-0.0","453.29999999981374","","","","50","0,0,0","1","mountain","71","probe-220","0.9145876448824639","0.19499460135022242","0.36692790442164536","0","","","","","",""
"","do_trial","136","647200","0.0-115.0-0.0","1121.4000000003725","","","","51","1,0,0","1","mountain","72","probe-236","0.9315993822572208","0.13036853006500912","0.38078849423210004","0","","","","","",""
"","do_trial","137","653609","0.0-116.0-0.0","845","","","","49","1,0,0","1","mountain","73","probe-27","0.9349669910244921","0.1991476120905996","0.3694097190600879","1","","","","","",""
"","do_trial","138","659559","0.0-117.0-0.0","387.5","","","","51","1,0,0","1","mountain","74","probe-148","0.8978763434351263","0.11706908651921122","0.34350413136363955","0","","","","","",""
"","do_trial","139","666719","0.0-118.0-0.0","1593.699999999255","","","","49","1,0,0","1","mountain","75","probe-46","0.8280427290822315","0.18591580701925664","0.37132754959517333","1","","","","","",""
"","do_trial","140","672748","0.0-119.0-0.0","461.90000000037253","","","","50","1,1,1","1","mountain","76","probe-56","0.7587186699780721","0.1577033305729527","0.4046750127685045","1","","","","","",""
"","do_trial","141","678846","0.0-120.0-0.0","527.7000000001863","","","","51","1,0,0","1","mountain","77","probe-209","0.8308794674980762","0.12350023033678253","0.4991096094139365","0","","","","","",""
"","do_trial","142","684839","0.0-121.0-0.0","428.29999999981374","","","","49","1,0,1","1","mountain","78","probe-32","0.8496995470286074","0.11616567055753282","0.6163067322632031","1","","","","","",""
"","do_trial","143","691042","0.0-122.0-0.0","636","","","","50","1,0,0","1","mountain","79","probe-42","0.9103901516798166","0.1250627857156627","0.6054232232249386","0","","","","","",""
"","do_bye","144","692552","0.0-123.0-0.0","null","","","","null","","","","","","","","","","","","","","",""
"","do_travel","145","698556","0.0-124.0-0.0","null","","","","null","","","","","","","","","","","","","","",""
"","do_welcome","146","700066","0.0-124.0-1.0","null","","","","null","","","","","","","","","","","","","","",""
"","do_trial","147","706420","0.0-125.0-0.0","786.0999999996275","","","","49","1,0,1","2","city","80","probe-144","1","0.06638156966286625","0.6478450219555562","1","","","","","",""
"","do_trial","148","712314","0.0-126.0-0.0","329","","","","51","1,0,0","2","city","81","probe-01","1","0.09101299031234848","0.6565955949162153","0","","","","","",""
"","do_trial","149","718302","0.0-127.0-0.0","420.79999999981374","","","","50","1,0,0","2","city","82","probe-98","1","0.11832244931797385","0.6939315364638919","0","","","","","",""
"","do_trial","150","724282","0.0-128.0-0.0","418.40000000037253","","","","49","1,0,1","2","city","83","probe-200","1","0.12296929466537586","0.4341270609322101","1","","","","","",""
"","do_trial","151","730672","0.0-129.0-0.0","824.7999999998137","","","","51","1,0,0","2","city","84","probe-83","0.9172468823001915","0.08883972071651922","0.3160321488184464","0","","","","","",""
"","do_trial","152","736601","0.0-130.0-0.0","364.19999999925494","","","","49","1,0,0","2","city","85","probe-84","0.6830445461959752","0.24985392125635372","0.3850730775358482","1","","","","","",""
"","do_trial","153","742680","0.0-131.0-0.0","512.7000000001863","","","","50","1,1,1","2","city","86","probe-129","0.90776872925744","0.26221787639159977","0.4066247477180243","1","","","","","",""
"","do_trial","154","748745","0.0-132.0-0.0","491.1000000005588","","","","51","1,0,0","2","city","87","probe-130","0.7854376592903579","0.2879088911614805","0.26031681656901356","0","","","","","",""
"","do_trial","155","754932","0.0-133.0-0.0","621.0999999996275","","","","49","1,0,0","2","city","88","probe-64","0.7428486367287094","0.27030423274971627","0.28365386221252065","1","","","","","",""
"","do_trial","156","760917","0.0-134.0-0.0","420","","","","50","1,0,1","2","city","89","probe-177","0.7962224156165928","0.19317686981675175","0.2696384185160673","0","","","","","",""
"","do_trial","157","767252","0.0-135.0-0.0","765.2000000001863","","","","51","1,1,0","2","city","90","probe-11","0.7207458936291018","0.43145588384728484","0.1463716418241363","0","","","","","",""
"","do_trial","158","773406","0.0-136.0-0.0","583.8999999994412","","","","49","0,0,0","2","city","91","probe-18","0.6140060071877939","0.5980540290097222","0.09118584532000788","0","","","","","",""
"","do_trial","159","779637","0.0-137.0-0.0","663.5999999996275","","","","51","0,1,0","2","city","92","probe-150","0.5728255523902233","0.5563336031899117","0.09433976257101477","0","","","","","",""
"","do_trial","160","785619","0.0-138.0-0.0","419.6000000005588","","","","49","1,1,0","2","city","93","probe-208","0.38908025318546363","0.63813139816663","0.11009653097158248","1","","","","","",""
"","do_trial","161","792318","0.0-139.0-0.0","1133","","","","51","1,1,0","2","city","94","probe-16","0.46952052030935704","0.7041754243710652","0.09119731097331206","0","","","","","",""
"","do_trial","162","800058","0.0-140.0-0.0","2172.600000000559","","","","49","0,1,0","2","city","95","probe-154","0.34662959310646024","0.6570195043243353","0.19460026365436625","0","","","","","",""
"","do_trial","163","806051","0.0-141.0-0.0","427.40000000037253","","","","50","0,1,0","2","city","96","probe-146","0.3469210327695207","0.7376019606324321","0.21573124605675542","1","","","","","",""
"","do_trial","164","813097","0.0-142.0-0.0","1477.5","","","","51","0,1,0","2","city","97","probe-79","0.3499384305548568","0.7604012108305753","0.15423423100043843","0","","","","","",""
"","do_trial","165","818666","0.0-143.0-0.0","0.09999999962747097","","","","49","0,1,1","2","city","98","probe-123","0.4926416173674671","0.7852791403733937","0.1740875521067664","0","","","","","",""
"","do_trial","166","824583","0.0-144.0-0.0","350.79999999981374","","","","50","1,1,0","2","city","99","probe-157","0.5059389019646612","0.6775552261741409","0.1644184582448488","1","","","","","",""
"","do_trial","167","830703","0.0-145.0-0.0","550.1000000005588","","","","49","1,1,0","2","city","100","probe-197","0.40774422228166396","0.7526623669828207","0.09030275535952313","1","","","","","",""
"","do_trial","168","836779","0.0-146.0-0.0","509.5","","","","51","0,1,0","2","city","101","probe-122","0.5271304454479525","0.746504469740627","0.20442935431771717","0","","","","","",""
"","do_trial","169","842850","0.0-147.0-0.0","null","","","","null","0,1,1","2","city","102","probe-214","0.48496098399345217","0.7703425679980466","0.282714709717373","","","","","","",""
"","do_trial","170","848851","0.0-148.0-0.0","433.79999999981374","","","","51","0,1,0","2","city","103","probe-199","0.4962993481470068","0.8033406886358815","0.10025380985673421","0","","","","","",""
"","do_trial","171","854610","0.0-149.0-0.0","191.3999999994412","","","","49","1,1,0","2","city","104","probe-216","0.511607075322171","0.7106755787194134","0.10668720105564326","1","","","","","",""
"","do_trial","172","860674","0.0-150.0-0.0","497.6000000005588","","","","51","0,0,1","2","city","105","probe-67","0.5643390335516528","0.8124910490431632","0.2153223428630226","1","","","","","",""
"","do_trial","173","866557","0.0-151.0-0.0","313.8999999994412","","","","50","1,1,1","2","city","106","probe-35","0.6005668270783643","0.7369790226221409","0.25436590858597363","1","","","","","",""
"","do_trial","174","872451","0.0-152.0-0.0","329.6000000005588","","","","49","1,1,0","2","city","107","probe-12","0.624979844548514","0.7979916548665985","0.1109622450565981","1","","","","","",""
"","do_trial","175","878483","0.0-153.0-0.0","465.90000000037253","","","","51","0,1,0","2","city","108","probe-141","0.551963854056988","0.6709331133403219","0.28057497540289816","0","","","","","",""
"","do_trial","176","884749","0.0-154.0-0.0","699.7000000001863","","","","51","1,1,0","2","city","109","probe-168","0.4743431365755804","0.5435633952052412","0.32359974311566786","0","","","","","",""
"","do_trial","177","890724","0.0-155.0-0.0","408.80000000074506","","","","50","0,1,0","2","city","110","probe-224","0.4354643362155068","0.62889032828327","0.22356896933187223","1","","","","","",""
"","do_trial","178","896492","0.0-156.0-0.0","205.70000000018626","","","","49","0,1,0","2","city","111","probe-13","0.24577774991951265","0.8057457301342311","0.19283848742061682","0","","","","","",""
"","do_trial","179","902118","0.0-157.0-0.0","61","","","","51","1,1,0","2","city","112","probe-126","0.27084883177892094","0.9000303355539104","0.22166103858543396","0","","","","","",""
"","do_trial","180","907914","0.0-158.0-0.0","229.20000000018626","","","","49","0,1,1","2","city","113","probe-113","0.2998871956352977","0.9426583763685225","0.3117537271176592","0","","","","","",""
"","do_trial","181","913877","0.0-159.0-0.0","390.5","","","","50","0,0,0","2","city","114","probe-213","0.34674297230236667","0.8971606629538603","0.20300863213069992","0","","","","","",""
"","do_trial","182","921258","0.0-160.0-0.0","1810.0999999996275","","","","51","0,1,0","2","city","115","probe-106","0.38359556637630976","0.9443937132280082","0.0735136284863255","0","","","","","",""
"","do_trial","183","927261","0.0-161.0-0.0","440.20000000018626","","","","49","1,1,0","2","city","116","probe-21","0.41522574150962405","0.9335391815280454","0.06527092144115729","1","","","","","",""
"","do_trial","184","933239","0.0-162.0-0.0","411.5","","","","50","1,1,0","2","city","117","probe-08","0.3399464731917988","0.789770532884113","0.10180656232981349","1","","","","","",""
"","do_trial","185","938898","0.0-163.0-0.0","89.40000000037253","","","","49","1,1,0","2","city","118","probe-24","0.506260355487617","0.7403924934610706","0.1126346115284283","1","","","","","",""
"","do_trial","186","944475","0.0-164.0-0.0","10.599999999627471","","","","51","0,1,0","2","city","119","probe-205","0.563862959898838","0.7199583562367328","0.16798654398892496","0","","","","","",""
"","do_bye","187","945983","0.0-165.0-0.0","null","","","","null","","","","","","","","","","","","","","",""
"","do_travel","188","951985","0.0-166.0-0.0","null","","","","null","","","","","","","","","","","","","","",""
"","do_welcome","189","953490","0.0-166.0-1.0","null","","","","null","","","","","","","","","","","","","","",""
"","do_trial","190","960870","0.0-167.0-0.0","1796.7999999998137","","","","49","1,1,0","3","countryside","120","probe-170","0.5441549412184572","1","0.2371363636886342","1","","","","","",""
"","do_trial","191","967249","0.0-168.0-0.0","811.7999999998137","","","","51","1,1,1","3","countryside","121","probe-139","0.6658664285881113","1","0.20090204115052834","1","","","","","",""
"","do_trial","192","973612","0.0-169.0-0.0","801.1000000005588","","","","49","1,1,0","3","countryside","122","probe-137","0.7003794063126162","1","0.22101226684925165","1","","","","","",""
"","do_trial","193","979176","0.0-170.0-0.0","0.10000000055879354","","","","51","1,1,0","3","countryside","123","probe-196","0.8223699203494118","1","0.2579887916920073","0","","","","","",""
"","do_trial","194","986023","0.0-171.0-0.0","1280.7000000001863","","","","51","1,1,0","3","countryside","124","probe-77","0.7655502792243195","0.7562994931279653","0.07031180228849451","0","","","","","",""
"","do_trial","195","992119","0.0-172.0-0.0","533.5","","","","51","0,1,0","3","countryside","125","probe-22","0.7519425234592498","0.7124209451093927","0.08885085345281192","0","","","","","",""
"","do_trial","196","999166","0.0-173.0-0.0","1476.1000000005588","","","","51","0,1,0","3","countryside","126","probe-94","0.6185687253600367","0.6870477594048601","0.08396522962509505","0","","","","","",""
"","do_trial","197","1005657","0.0-174.0-0.0","922","","","","49","1,1,0","3","countryside","127","probe-26","0.5999015281047503","0.8774477374789642","0.06442023158866275","1","","","","","",""
"","do_trial","198","1012385","0.0-175.0-0.0","1161.199999999255","","","","50","1,1,0","3","countryside","128","probe-167","0.49504119285270876","0.9063249718644343","0.10195736625830906","1","","","","","",""
"","do_trial","199","1018303","0.0-176.0-0.0","347.90000000037253","","","","51","1,1,1","3","countryside","129","probe-38","0.5198493886507758","0.8220701935285252","0.20981663089263805","1","","","","","",""
"","do_trial","200","1024207","0.0-177.0-0.0","337.79999999981374","","","","49","0,1,0","3","countryside","130","probe-06","0.4898530232175542","0.6443685840152705","0.4249427654072913","0","","","","","",""
"","do_trial","201","1030138","0.0-178.0-0.0","364.59999999962747","","","","51","1,0,1","3","countryside","131","probe-202","0.3925097671974801","0.49949634327261455","0.6942828232902183","1","","","","","",""
"","do_trial","202","1036135","0.0-179.0-0.0","428.90000000037253","","","","51","0,0,0","3","countryside","132","probe-70","0.4108572379999032","0.37272228214117387","0.7779357824984179","0","","","","","",""
"","do_trial","203","1042265","0.0-180.0-0.0","564.3000000007451","","","","51","0,0,1","3","countryside","133","probe-62","0.3066079226516576","0.19391979550929564","0.6590392831600932","1","","","","","",""
"","do_trial","204","1048026","0.0-181.0-0.0","194.20000000018626","","","","49","0,0,1","3","countryside","134","probe-69","0.35519303602130026","0.10518773269835094","0.6761840056215026","0","","","","","",""
"","do_trial","205","1053590","0.0-182.0-0.0","2.400000000372529","","","","50","1,0,1","3","countryside","135","probe-204","0.4113611366026653","0.0636448878785115","0.6995708711699702","0","","","","","",""
"","do_trial","206","1059625","0.0-183.0-0.0","468.29999999981374","","","","50","0,0,1","3","countryside","136","probe-134","0.4141116862195668","0.08822895668139168","0.784270114272958","0","","","","","",""
"","do_trial","207","1068064","0.0-184.0-0.0","2871.7999999998137","","","","49","0,0,1","3","countryside","137","probe-183","0.5142727693018567","0.08898559951841023","0.8549445046945455","0","","","","","",""
"","do_trial","208","1075173","0.0-185.0-0.0","1542.2999999998137","","","","51","1,0,1","3","countryside","138","probe-114","0.5150279410078773","0.07018047409259681","0.9213114765460074","1","","","","","",""
"","do_trial","209","1081112","0.0-186.0-0.0","370.5","","","","51","0,0,0","3","countryside","139","probe-162","0.3790681787961441","0.09520968872709488","0.664065645974067","0","","","","","",""
"","do_trial","210","1087378","0.0-187.0-0.0","698.2999999998137","","","","49","0,0,0","3","countryside","140","probe-99","0.3807862863015306","0.07589271420997622","0.5237165326955057","0","","","","","",""
"","do_trial","211","1093292","0.0-188.0-0.0","349.70000000018626","","","","50","1,0,0","3","countryside","141","probe-171","0.40457244034594586","0.2002639893585858","0.6800776094108467","0","","","","","",""
"","do_trial","212","1100617","0.0-189.0-0.0","1761","","","","49","1,1,0","3","countryside","142","probe-33","0.4590030257136272","0.30223999836825505","0.6966846779756836","1","","","","","",""
"","do_trial","213","1106688","0.0-190.0-0.0","null","","","","null","0,0,1","3","countryside","143","probe-228","0.38045933676135674","0.21645998364649616","0.696582022785453","","","","","","",""
"","do_trial","214","1112632","0.0-191.0-0.0","381.29999999981374","","","","51","0,0,1","3","countryside","144","probe-119","0.4007866917682984","0.12621265694540607","0.7659143065958515","1","","","","","",""
"","do_trial","215","1118270","0.0-192.0-0.0","73.5","","","","49","0,0,1","3","countryside","145","probe-152","0.4440116345234966","0.22816028137742797","0.8207694384895008","0","","","","","",""
"","do_trial","216","1124124","0.0-193.0-0.0","286.79999999981374","","","","50","0,1,1","3","countryside","146","probe-73","0.5020718970721046","0.15994344502047977","0.735765512366267","1","","","","","",""
"","do_trial","217","1130345","0.0-194.0-0.0","653.2000000001863","","","","51","1,1,1","3","countryside","147","probe-107","0.5491495793208492","0.20600480330821186","0.713770449086848","1","","","","","",""
"","do_trial","218","1138591","0.0-195.0-0.0","2677.300000000745","","","","49","0,0,1","3","countryside","148","probe-169","0.49664268892512936","0.12942872548420767","0.7664447192173139","0","","","","","",""
"","do_trial","219","1144733","0.0-196.0-0.0","575.2000000001863","","","","50","1,0,1","3","countryside","149","probe-207","0.35392015565296253","0.05423733834625166","0.7702520272352574","0","","","","","",""
"","do_trial","220","1150707","0.0-197.0-0.0","407.59999999962747","","","","51","1,0,0","3","countryside","150","probe-37","0.3705287486747138","0.1525809944654252","0.7297241457973833","0","","","","","",""
"","do_trial","221","1157132","0.0-198.0-0.0","856.3000000007451","","","","49","0,0,1","3","countryside","151","probe-233","0.4324957830915102","0.2342366273835517","0.7772871967849921","0","","","","","",""
"","do_trial","222","1164230","0.0-199.0-0.0","1531.5999999996275","","","","51","1,0,0","3","countryside","152","probe-95","0.48103043523020933","0.27821195267018667","0.7732962283682216","0","","","","","",""
"","do_trial","223","1171092","0.0-200.0-0.0","1295.9000000003725","","","","49","1,0,1","3","countryside","153","probe-151","0.4010562321712665","0.20621033379724193","0.7313552137576681","1","","","","","",""
"","do_trial","224","1177877","0.0-201.0-0.0","1218.2000000001863","","","","51","0,1,1","3","countryside","154","probe-34","0.3801910927182856","0.22862282221943717","0.7153896613910621","1","","","","","",""
"","do_trial","225","1183559","0.0-202.0-0.0","114.40000000037253","","","","50","1,0,1","3","countryside","155","probe-15","0.2154579297287425","0.24642231706117365","0.7190471752831955","0","","","","","",""
"","do_trial","226","1190950","0.0-203.0-0.0","1824.1000000005588","","","","51","0,0,0","3","countryside","156","probe-182","0.36549010342851207","0.17474566898490868","0.718148375725962","0","","","","","",""
"","do_trial","227","1196975","0.0-204.0-0.0","463.20000000018626","","","","49","0,0,1","3","countryside","157","probe-232","0.45124336074462423","0.1482450128070304","0.8782495572073475","0","","","","","",""
"","do_trial","228","1202932","0.0-205.0-0.0","386.59999999962747","","","","50","1,0,0","3","countryside","158","probe-101","0.4307990473135167","0.19918068035278041","0.679670815753741","0","","","","","",""
"","do_trial","229","1208889","0.0-206.0-0.0","395.3999999994412","","","","51","0,0,1","3","countryside","159","probe-52","0.4261831909532736","0.1307048014826245","0.5971429955668155","1","","","","","",""
"","do_bye","230","1210395","0.0-207.0-0.0","null","","","","null","","","","","","","","","","","","","","",""
"","do_travel","231","1216397","0.0-208.0-0.0","null","","","","null","","","","","","","","","","","","","","",""
"","do_welcome","232","1217909","0.0-208.0-1.0","null","","","","null","","","","","","","","","","","","","","",""
"","do_trial","233","1226433","0.0-209.0-0.0","2947","","","","49","0,0,1","4","forest","160","probe-132","0.5264433839428455","0.26375274252386705","1","0","","","","","",""
"","do_trial","234","1232303","0.0-210.0-0.0","303.20000000018626","","","","49","0,1,1","4","forest","161","probe-215","0.6107143387104373","0.2437506542636239","1","0","","","","","",""
"","do_trial","235","1238235","0.0-211.0-0.0","360.90000000037253","","","","49","0,0,1","4","forest","162","probe-90","0.41032036951491374","0.23895175408567507","1","0","","","","","",""
"","do_trial","236","1243894","0.0-212.0-0.0","89.09999999962747","","","","51","1,1,1","4","forest","163","probe-115","0.4716209891962166","0.0715810478053886","1","1","","","","","",""
"","do_trial","237","1249721","0.0-213.0-0.0","257","","","","51","0,0,1","4","forest","164","probe-29","0.4396553696239121","0.18024230134255853","0.9232950937192412","1","","","","","",""
"","do_trial","238","1255335","0.0-214.0-0.0","44.80000000074506","","","","49","0,0,1","4","forest","165","probe-25","0.5645814794599749","0.05976649332021611","0.9267672401529174","0","","","","","",""
"","do_trial","239","1260900","0.0-215.0-0.0","0.10000000055879354","","","","50","0,0,1","4","forest","166","probe-66","0.6022470360855025","0.15996880911937592","0.8596143615558655","0","","","","","",""
"","do_trial","240","1266466","0.0-216.0-0.0","0.20000000018626451","","","","50","0,0,0","4","forest","167","probe-124","0.49782027623139213","0.14472327843931765","0.8249300868307136","0","","","","","",""
"","do_trial","241","1272541","0.0-217.0-0.0","null","","","","null","0,1,1","4","forest","168","probe-86","0.410150620900783","0.2348946776934534","0.7653459526494014","","","","","","",""
"","do_trial","242","1278473","0.0-218.0-0.0","365.5","","","","51","1,0,1","4","forest","169","probe-187","0.3689194552159232","0.38833717361167497","0.8885855213180044","1","","","","","",""
"","do_trial","243","1285493","0.0-219.0-0.0","1457.5999999996275","","","","49","1,0,1","4","forest","170","probe-10","0.5561542863385807","0.42033557620037626","0.7167824583135258","1","","","","","",""
"","do_trial","244","1291257","0.0-220.0-0.0","196.20000000018626","","","","50","0,0,1","4","forest","171","probe-14","0.6471589064858696","0.2252643247056349","0.7225256746576776","0","","","","","",""
"","do_trial","245","1296867","0.0-221.0-0.0","48.5","","","","51","0,0,1","4","forest","172","probe-222","0.7248058812215222","0.20379018461265072","0.5480277657794965","1","","","","","",""
"","do_trial","246","1302969","0.0-222.0-0.0","535.8999999994412","","","","49","0,0,1","4","forest","173","probe-206","0.6831937246800149","0.160332835804781","0.48069420408708335","0","","","","","",""
"","do_trial","247","1308864","0.0-223.0-0.0","324.5","","","","51","1,0,1","4","forest","174","probe-161","0.6994266889704995","0.06499185536022467","0.5390811491952787","1","","","","","",""
"","do_trial","248","1315693","0.0-224.0-0.0","1261.2000000001863","","","","51","0,0,0","4","forest","175","probe-219","0.7509773157684912","0.08856872966447998","0.4735148154761377","0","","","","","",""
"","do_trial","249","1321666","0.0-225.0-0.0","407.59999999962747","","","","49","1,1,1","4","forest","176","probe-174","0.8331592005342507","0.12533226951868964","0.4879853618655004","1","","","","","",""
"","do_trial","250","1329347","0.0-226.0-0.0","2119.2000000001863","","","","51","1,1,1","4","forest","177","probe-108","0.7575460049516403","0.2953574464837355","0.49813615135011086","1","","","","","",""
"","do_trial","251","1335020","0.0-227.0-0.0","107.59999999962747","","","","49","1,1,0","4","forest","178","probe-142","0.710291990819464","0.21961104553691976","0.5143757568428708","1","","","","","",""
"","do_trial","252","1340950","0.0-228.0-0.0","363.20000000018626","","","","51","1,1,0","4","forest","179","probe-140","0.698305029714598","0.11940833967807521","0.48361897601757387","0","","","","","",""
"","do_trial","253","1346901","0.0-229.0-0.0","384.59999999962747","","","","49","0,0,1","4","forest","180","probe-39","0.7607175168275502","0.11965534023554118","0.5729588214430469","0","","","","","",""
"","do_trial","254","1352841","0.0-230.0-0.0","373.70000000018626","","","","50","1,0,1","4","forest","181","probe-93","0.8392215895828088","0.22774257086621497","0.4696100745089202","0","","","","","",""
"","do_trial","255","1359119","0.0-231.0-0.0","707.7000000001863","","","","51","1,1,0","4","forest","182","probe-60","0.880145662606586","0.24200261699391326","0.2812233014036258","0","","","","","",""
"","do_trial","256","1365634","0.0-232.0-0.0","947.8999999994412","","","","49","1,0,0","4","forest","183","probe-181","0.7847381788014498","0.26959432342964407","0.2713401640276541","1","","","","","",""
"","do_trial","257","1371468","0.0-233.0-0.0","272.09999999962747","","","","49","1,1,0","4","forest","184","probe-118","0.7622398356716361","0.2747832923443977","0.32464184810773866","1","","","","","",""
"","do_trial","258","1377142","0.0-234.0-0.0","109.29999999981374","","","","51","1,0,1","4","forest","185","probe-159","0.7961818222981885","0.1478511755183044","0.3543234727097473","1","","","","","",""
"","do_trial","259","1383203","0.0-235.0-0.0","494.1000000005588","","","","50","1,0,1","4","forest","186","probe-176","0.6952404899889564","0.16802470057646382","0.506114986828037","0","","","","","",""
"","do_trial","260","1388984","0.0-236.0-0.0","219.59999999962747","","","","49","1,0,0","4","forest","187","probe-04","0.7002833540802752","0.07583173057366793","0.47258081767064675","1","","","","","",""
"","do_trial","261","1395015","0.0-237.0-0.0","465.79999999981374","","","","51","1,0,0","4","forest","188","probe-97","0.739536318752876","0.08723465628385292","0.6384753742357228","0","","","","","",""
"","do_trial","262","1400666","0.0-238.0-0.0","84","","","","49","0,1,0","4","forest","189","probe-91","0.7120591000084339","0.33590070854862164","0.5568724026108365","0","","","","","",""
"","do_trial","263","1407102","0.0-239.0-0.0","866.3000000007451","","","","49","1,1,1","4","forest","190","probe-190","0.7116969286365916","0.3090013542402835","0.6262425900060629","1","","","","","",""
"","do_trial","264","1413701","0.0-240.0-0.0","1037.2999999998137","","","","49","1,0,1","4","forest","191","probe-166","0.9254700616928038","0.19282124538751788","0.46978041142809135","1","","","","","",""
"","do_trial","265","1421761","0.0-241.0-0.0","2490.5999999996275","","","","51","1,0,1","4","forest","192","probe-63","0.8439743227607526","0.19277444999917243","0.49111216391007534","1","","","","","",""
"","do_trial","266","1427701","0.0-242.0-0.0","373.79999999981374","","","","49","1,0,0","4","forest","193","probe-89","0.9056796187270435","0.18545959380096924","0.3375994728509357","1","","","","","",""
"","do_trial","267","1433629","0.0-243.0-0.0","363.20000000018626","","","","51","1,1,0","4","forest","194","probe-45","0.8386925324446406","0.18538287659673597","0.3963946800274581","0","","","","","",""
"","do_trial","268","1440291","0.0-244.0-0.0","1092.3999999994412","","","","50","1,0,0","4","forest","195","probe-163","0.8829689177427682","0.10531982204858388","0.3617299210844703","0","","","","","",""
"","do_trial","269","1446343","0.0-245.0-0.0","485.30000000074506","","","","49","1,0,0","4","forest","196","probe-100","0.9249372999702605","0.24095226990912794","0.27652791003836497","1","","","","","",""
"","do_trial","270","1453540","0.0-246.0-0.0","1631","","","","51","0,0,0","4","forest","197","probe-226","0.7435651664993305","0.20817894736359793","0.3576399093356888","0","","","","","",""
"","do_trial","271","1459821","0.0-247.0-0.0","712.9000000003725","","","","51","1,0,0","4","forest","198","probe-112","0.7615612984627314","0.0964725913726112","0.3627595663917188","0","","","","","",""
"","do_trial","272","1465779","0.0-248.0-0.0","396.09999999962747","","","","49","1,0,1","4","forest","199","probe-147","0.8053925081315985","0.07055816166066708","0.3622419412755387","1","","","","","",""
"","do_bye","273","1467289","0.0-249.0-0.0","null","","","","null","","","","","","","","","","","","","","",""
"","do_travel","274","1473295","0.0-250.0-0.0","null","","","","null","","","","","","","","","","","","","","",""
"","do_welcome","275","1474802","0.0-250.0-1.0","null","","","","null","","","","","","","","","","","","","","",""
"","do_trial","276","1481107","0.0-251.0-0.0","737.4000000003725","","","","51","1,0,1","5","highway","200","probe-28","1","0.3110556118783085","0.3499510373484821","1","","","","","",""
"","do_trial","277","1486976","0.0-252.0-0.0","304.79999999981374","","","","49","1,0,0","5","highway","201","probe-121","1","0.43795608656630336","0.37705867675623955","1","","","","","",""
"","do_trial","278","1493356","0.0-253.0-0.0","506.20000000018626","","","","51","1,1,0","5","highway","202","probe-194","1","0.49059987616845613","0.32115770947076405","0","","","","","",""
"","do_trial","279","1499444","0.0-254.0-0.0","506.5","","","","50","1,1,1","5","highway","203","probe-158","1","0.2679920539491258","0.31843742452203033","1","","","","","",""
"","do_trial","280","1505403","0.0-255.0-0.0","393.79999999981374","","","","51","1,0,1","5","highway","204","probe-76","0.8945830206443103","0.1708696975685822","0.31243782870671033","1","","","","","",""
"","do_trial","281","1511955","0.0-256.0-0.0","977.5","","","","49","1,0,1","5","highway","205","probe-179","0.8931382665221904","0.08517939503406796","0.4047380821047257","1","","","","","",""
"","do_trial","282","1517918","0.0-257.0-0.0","395.20000000018626","","","","49","1,0,1","5","highway","206","probe-210","0.7882628953311465","0.1922623874386499","0.3983122940325545","1","","","","","",""
"","do_trial","283","1523934","0.0-258.0-0.0","451.8999999994412","","","","51","1,0,1","5","highway","207","probe-23","0.7727468931919325","0.12406685315142149","0.3999282798867645","1","","","","","",""
"","do_trial","284","1529922","0.0-259.0-0.0","421.6000000005588","","","","51","0,0,1","5","highway","208","probe-03","0.7804734422667242","0.11119685791026697","0.3884520888565286","1","","","","","",""
"","do_trial","285","1535918","0.0-260.0-0.0","427.59999999962747","","","","51","1,0,0","5","highway","209","probe-186","0.696881746961983","0.12721291682466412","0.37989859652078284","0","","","","","",""
"","do_trial","286","1541813","0.0-261.0-0.0","326.3999999994412","","","","50","1,0,0","5","highway","210","probe-44","0.4107287197718135","0.29905513691726376","0.5170702232497782","0","","","","","",""
"","do_trial","287","1549391","0.0-262.0-0.0","2014.9000000003725","","","","49","0,0,0","5","highway","211","probe-188","0.36719418294386047","0.48889378903134423","0.47066941212742813","0","","","","","",""
"","do_trial","288","1555862","0.0-263.0-0.0","905.7000000001863","","","","51","0,1,0","5","highway","212","probe-41","0.255421614028258","0.7247181777502485","0.4414368489132236","0","","","","","",""
"","do_trial","289","1562195","0.0-264.0-0.0","761.0999999996275","","","","51","1,0,0","5","highway","213","probe-36","0.3461181557514305","0.8177221269913438","0.37609419530021543","0","","","","","",""
"","do_trial","290","1568113","0.0-265.0-0.0","354.3999999994412","","","","49","1,1,0","5","highway","214","probe-143","0.22084809040211617","0.7979649477009261","0.3890779301271277","1","","","","","",""
"","do_trial","291","1574985","0.0-266.0-0.0","1310.300000000745","","","","51","0,1,0","5","highway","215","probe-43","0.2522026170759614","0.8229172908111604","0.40128010645749257","0","","","","","",""
"","do_trial","292","1582727","0.0-267.0-0.0","2174.7999999998137","","","","49","1,1,0","5","highway","216","probe-68","0.20590917706591771","0.6919796487019216","0.2868405852309605","1","","","","","",""
"","do_trial","293","1588869","0.0-268.0-0.0","580","","","","50","0,1,0","5","highway","217","probe-59","0.15712325353493048","0.59825833718628","0.33193093919420974","1","","","","","",""
"","do_trial","294","1594836","0.0-269.0-0.0","397.20000000018626","","","","51","0,1,0","5","highway","218","probe-227","0.1484881933277599","0.6588187317496694","0.3068791604772467","0","","","","","",""
"","do_trial","295","1601260","0.0-270.0-0.0","853.6000000005588","","","","49","0,1,1","5","highway","219","probe-50","0.2354645633721107","0.7434697201150019","0.3299502438446438","0","","","","","",""
"","do_trial","296","1607243","0.0-271.0-0.0","416.90000000037253","","","","51","0,0,0","5","highway","220","probe-191","0.0751031737927528","0.7557840723365356","0.38970945751797226","0","","","","","",""
"","do_trial","297","1613951","0.0-272.0-0.0","1136.2000000001863","","","","49","0,1,0","5","highway","221","probe-184","0.1255326921869679","0.8907384369402065","0.4073336336164457","0","","","","","",""
"","do_trial","298","1619835","0.0-273.0-0.0","316.20000000018626","","","","50","0,1,0","5","highway","222","probe-211","0.11813160700066132","0.7801970850522874","0.21588313017647576","1","","","","","",""
"","do_trial","299","1625921","0.0-274.0-0.0","519.9000000003725","","","","51","0,1,0","5","highway","223","probe-195","0.092939405000815","0.8048537401055026","0.24993565797027933","0","","","","","",""
"","do_trial","300","1633322","0.0-275.0-0.0","1833.699999999255","","","","49","1,1,1","5","highway","224","probe-185","0.23516575788687813","0.812703870436376","0.2533046925930646","1","","","","","",""
"","do_trial","301","1639901","0.0-276.0-0.0","1013","","","","51","0,1,1","5","highway","225","probe-49","0.2109395230631103","0.8089273203420742","0.363269140680953","1","","","","","",""
"","do_trial","302","1645744","0.0-277.0-0.0","276.8999999994412","","","","49","0,1,0","5","highway","226","probe-164","0.1712386997154097","0.8370398491421289","0.3821330594108972","0","","","","","",""
"","do_trial","303","1652843","0.0-278.0-0.0","1531.2000000001863","","","","51","0,0,1","5","highway","227","probe-225","0.1607866660372766","0.8096869035914496","0.38959623832440526","1","","","","","",""
"","do_trial","304","1659087","0.0-279.0-0.0","675.6999999992549","","","","51","0,1,1","5","highway","228","probe-189","0.07096889016711141","0.8898735546589167","0.4923006297944076","1","","","","","",""
"","do_trial","305","1666361","0.0-280.0-0.0","1711.7000000001863","","","","49","0,1,0","5","highway","229","probe-30","0.13395302383898514","0.9144492979078527","0.3832196082295804","0","","","","","",""
"","do_trial","306","1672429","0.0-281.0-0.0","501.79999999981374","","","","51","1,1,0","5","highway","230","probe-135","0.17550644707544433","0.8159229783268279","0.37907710646296666","0","","","","","",""
"","do_trial","307","1678347","0.0-282.0-0.0","351","","","","50","0,1,0","5","highway","231","probe-156","0.0905701040530864","0.6955013654286926","0.5662294916442226","1","","","","","",""
"","do_trial","308","1684434","0.0-283.0-0.0","517.7000000001863","","","","49","0,1,0","5","highway","232","probe-105","0.08290818931923091","0.8286616101088348","0.5327824006277733","0","","","","","",""
"","do_trial","309","1690370","0.0-284.0-0.0","371.59999999962747","","","","51","0,1,1","5","highway","233","probe-127","0.11124626432991722","0.7686342515254535","0.523900388965325","1","","","","","",""
"","do_trial","310","1697244","0.0-285.0-0.0","1309.5999999996275","","","","50","0,1,0","5","highway","234","probe-178","0.22568472742487097","0.6487415346611275","0.5622508905981902","1","","","","","",""
"","do_trial","311","1704066","0.0-286.0-0.0","1255","","","","49","0,0,1","5","highway","235","probe-165","0.21111652991721333","0.8669638676224242","0.44961819091288574","0","","","","","",""
"","do_trial","312","1710254","0.0-287.0-0.0","620.5","","","","51","1,0,1","5","highway","236","probe-92","0.2628396712276882","0.8664790336934901","0.470115922329755","1","","","","","",""
"","do_trial","313","1715821","0.0-288.0-0.0","0.20000000018626451","","","","49","0,1,1","5","highway","237","probe-229","0.24393568321112888","0.9398650208629215","0.5216756640774586","0","","","","","",""
"","do_trial","314","1721559","0.0-289.0-0.0","171.70000000018626","","","","51","1,1,1","5","highway","238","probe-173","0.16994072237716024","0.6812842903566735","0.4968267364104613","1","","","","","",""
"","do_trial","315","1727398","0.0-290.0-0.0","270.79999999981374","","","","50","0,1,0","5","highway","239","probe-78","0.13516530995706394","0.7107300516225766","0.3576939856898847","1","","","","","",""
"","do_bye","316","1728904","0.0-291.0-0.0","null","","","","null","","","","","","","","","","","","","","",""
"","html-keyboard-response","317","1737025","0.0-291.0-1.0","8120","<div class='center'><p>You may take a break now!</p><p> Stretch for a little bit. Get a glass of water.</p><p> You have two minutes to rest. Then, the game will automatically move on.</p><p>If you’d like to get started on the second half of the experiment sooner, then press the <b>space bar</b></p></div>","32","","","","","","","","","","","","","","","","",""
"","html-keyboard-response","318","1744405","0.0-291.0-2.0","7379.4000000003725","<div class='center'><p>You’ve arrived at the final destination of your journey! Unfortunately, it’s very foggy out, so you won’t be able to see it in the distance like in previous places you've visited.</p><p>You’ll still be deciding which pirates you want to rob ships. However, because of the fog you also won’t be able to see the ship in the distance. </p><p><b>[Press the space bar to continue]</b></p></div>","32","","","","","","","","","","","","","","","","",""
"","html-keyboard-response","319","1752045","0.0-291.0-3.0","7638.299999999814","<div class='center'><p> Sometimes you’ll be asked if you’ve seen a ship before (see the example below). You will use the 5, 6, 7, 8 buttons on your keyboard to respond. </p><p> If you definitely did not see the ship, pick the the big red thumbs down by pressing <b>5</b>.</p><p> If you don’t think you saw it but aren’t sure, then pick the small red thumbs down by pressing <b>6</b>.</p><p> If you think you might have seen it, then pick the small green thumbs up by pressing <b>7</b>.</p><p> If you definitely did see this ship before, then pick the big thumb green thumbs up by pressing <b>8</b>.</p><p> If you recall correctly, then you’ll get a gold coin!</p><p><b>[Press the space bar to begin the next phase of the experiment]</b></p><p><img src='run_exp/static/images/example_recog_trial.png' height='500'></p></div>","32","","","","","","","","","","","","","","","","",""
"","do_welcome","320","1753550","0.0-291.0-4.0","null","","","","null","","","","","","","","","","","","","","",""
"","do_trial","321","1759224","0.0-292.0-0.0","2109.600000000559","","","","51","0,1,0","6","blank","240","null","0.18233939364211904","1","0.304003290439638","0","","","","","",""
"","do_trial","322","1765618","0.0-293.0-0.0","2827.2999999998137","","","","50","0,1,0","6","blank","241","null","0.11956002822738446","0.8267978244586752","0.4195397967411775","1","","","","","",""
"","do_trial","323","1770614","0.0-294.0-0.0","1429.6000000005588","","","","50","0,1,1","6","blank","242","null","0.18653716123386757","0.9363036162622566","0.5173811183651791","1","","","","","",""
"","do_recog","324","1776630","0.0-295.0-0.0","null","","","","null","","","","243","probe-221","","","","","1","[object Object]","48","1","0",""
"","do_trial","325","1780971","0.0-296.0-0.0","775.6000000005588","","","","51","0,1,0","6","blank","244","null","0.05816015905219615","0.8636755158516346","0.4584549237399861","0","","","","","",""
"","do_recog","326","1784136","0.0-297.0-0.0","1656.7999999998137","","","","56","","","","245","probe-38","","","","","1","[object Object]","129","3","1",""
"","do_trial","327","1790106","0.0-298.0-0.0","2407.100000000559","","","","49","0,1,0","6","blank","246","null","0.11345599077740529","0.9387651058355516","0.5459869457927726","0","","","","","",""
"","do_trial","328","1794789","0.0-299.0-0.0","1116.5","","","","50","0,1,1","6","blank","247","null","0.08122298705390842","0.9313260956794452","0.4381201269776746","1","","","","","",""
"","do_trial","329","1799280","0.0-300.0-0.0","922.8999999994412","","","","49","0,0,0","6","blank","248","null","0.1832743961533356","0.8469369206430759","0.28010759489682086","0","","","","","",""
"","do_recog","330","1803017","0.0-301.0-0.0","2225.2999999998137","","","","54","","","","249","probe-194","","","","","1","[object Object]","202","5","0",""
"","do_trial","331","1807570","0.0-302.0-0.0","984.9000000003725","","","","50","0,1,1","6","blank","250","null","0.0976194509485922","0.8485774569248205","0.35682194836310105","1","","","","","",""
"","do_recog","332","1811173","0.0-303.0-0.0","2091.399999999441","","","","54","","","","251","probe-250","","","","","0","[object Object]","null","null","1",""
"","do_trial","333","1815286","0.0-304.0-0.0","545.5","","","","50","0,1,1","6","blank","252","null","0.23827824795470437","0.8755104291617049","0.4384125736594558","1","","","","","",""
"","do_trial","334","1819294","0.0-305.0-0.0","441.5","","","","49","0,1,1","6","blank","253","null","0.21112159390811644","0.7612599972917335","0.6442780110342688","0","","","","","",""
"","do_trial","335","1823265","0.0-306.0-0.0","404.29999999981374","","","","51","1,1,0","6","blank","254","null","0.33825346905058623","0.4429809108993499","0.5239979179472934","0","","","","","",""
"","do_trial","336","1827406","0.0-307.0-0.0","571.7999999998137","","","","50","1,0,0","6","blank","255","null","0.56600244014568","0.3751715589208671","0.39389496129427926","0","","","","","",""
"","do_trial","337","1831465","0.0-308.0-0.0","493.29999999981374","","","","49","0,0,0","6","blank","256","null","0.8149330859655076","0.2539165334388107","0.4005883659788373","0","","","","","",""
"","do_recog","338","1835113","0.0-309.0-0.0","2137.899999999441","","","","56","","","","257","probe-248","","","","","0","[object Object]","null","null","0",""
"","do_trial","339","1840219","0.0-310.0-0.0","1539.2999999998137","","","","49","1,0,1","6","blank","258","null","0.8936374432782767","0.08778287901348429","0.5442895935659824","1","","","","","",""
"","do_trial","340","1844336","0.0-311.0-0.0","550.9000000003725","","","","49","1,0,1","6","blank","259","null","0.8976305014474061","0.06498939045955593","0.4548953573081711","1","","","","","",""
"","do_trial","341","1848765","0.0-312.0-0.0","865.8000000007451","","","","51","1,1,1","6","blank","260","null","0.8009356612881806","0.05303725983937689","0.43260366997507854","1","","","","","",""
"","do_trial","342","1852943","0.0-313.0-0.0","611.2999999998137","","","","51","1,0,0","6","blank","261","null","0.786667885569979","0.20662513454396997","0.5133277877395278","0","","","","","",""
"","do_recog","343","1856072","0.0-314.0-0.0","1618.5999999996275","","","","53","","","","262","probe-115","","","","","1","[object Object]","163","4","0",""
"","do_trial","344","1860399","0.0-315.0-0.0","764.5","","","","49","1,0,1","6","blank","263","null","0.858117522210892","0.10383066612107436","0.37305568952572726","1","","","","","",""
"","do_recog","345","1863777","0.0-316.0-0.0","1870.1000000005588","","","","55","","","","264","probe-77","","","","","1","[object Object]","124","3","1",""
"","do_trial","346","1867778","0.0-317.0-0.0","439.90000000037253","","","","49","1,0,1","6","blank","265","null","0.8259283849232816","0.09834087138523223","0.43643624146178106","1","","","","","",""
"","do_recog","347","1870991","0.0-318.0-0.0","1701.5","","","","56","","","","266","probe-29","","","","","1","[object Object]","164","4","1",""
"","do_trial","348","1875051","0.0-319.0-0.0","493.6000000005588","","","","50","0,0,0","6","blank","267","null","0.727865623546549","0.14557834116855714","0.373069381818082","0","","","","","",""
"","do_recog","349","1877866","0.0-320.0-0.0","1303.0999999996275","","","","56","","","","268","probe-01","","","","","1","[object Object]","81","2","1",""
"","do_trial","350","1882205","0.0-321.0-0.0","773.3999999994412","","","","50","0,0,0","6","blank","269","null","0.8616463082579696","0.11287104302016719","0.3129477870903208","0","","","","","",""
"","do_trial","351","1886840","0.0-322.0-0.0","1067.3999999994412","","","","51","1,0,1","6","blank","270","null","0.8570866121654426","0.09691177637997045","0.3619389911347235","1","","","","","",""
"","do_trial","352","1891397","0.0-323.0-0.0","988.3999999994412","","","","49","1,0,0","6","blank","271","null","0.858628929741407","0.09648761833562253","0.41820308870593215","1","","","","","",""
"","do_trial","353","1895814","0.0-324.0-0.0","854.2000000001863","","","","50","1,1,0","6","blank","272","null","0.7841178270003845","0.20217190031355275","0.2353892617475001","1","","","","","",""
"","do_trial","354","1900326","0.0-325.0-0.0","946.5999999996275","","","","51","0,0,1","6","blank","273","null","0.7343553838275056","0.2425437827109185","0.2376375704705928","1","","","","","",""
"","do_recog","355","1903570","0.0-326.0-0.0","1735.0999999996275","","","","54","","","","274","probe-196","","","","","1","[object Object]","123","3","0",""
"","do_trial","356","1907584","0.0-327.0-0.0","449.79999999981374","","","","50","0,0,0","6","blank","275","null","0.6344804753867324","0.17415043874152494","0.39313611133264703","0","","","","","",""
"","do_recog","357","1911432","0.0-328.0-0.0","2340.2000000001863","","","","56","","","","276","probe-84","","","","","1","[object Object]","85","2","1",""
"","do_trial","358","1915392","0.0-329.0-0.0","396.09999999962747","","","","49","1,0,0","6","blank","277","null","0.6790660007978238","0.10750421766946805","0.35453136948791175","1","","","","","",""
"","do_recog","359","1918154","0.0-330.0-0.0","1249.4000000003725","","","","55","","","","278","probe-242","","","","","0","[object Object]","null","null","0",""
"","do_trial","360","1922043","0.0-331.0-0.0","320.90000000037253","","","","51","1,0,0","6","blank","279","null","0.7300579152695503","0.05133405510208564","0.456033538587617","0","","","","","",""
"","do_recog","361","1924746","0.0-332.0-0.0","1191.0999999996275","","","","54","","","","280","probe-94","","","","","1","[object Object]","126","3","0",""
"","do_trial","362","1929479","0.0-333.0-0.0","1164.5","","","","49","1,0,0","6","blank","281","null","0.8122306988396383","0.13918613219477113","0.30392385596437577","1","","","","","",""
"","do_trial","363","1933866","0.0-334.0-0.0","820.7000000001863","","","","49","1,0,1","6","blank","282","null","0.9072177163618861","0.1934591492817177","0.40751855359542716","1","","","","","",""
"","do_trial","364","1937947","0.0-335.0-0.0","518.4000000003725","","","","50","1,0,1","6","blank","283","null","1","0.06682960364497355","0.30919374126368016","0","","","","","",""
"","do_recog","365","1940944","0.0-336.0-0.0","1489.5","","","","56","","","","284","probe-210","","","","","1","[object Object]","206","5","1",""
"","do_trial","366","1945050","0.0-337.0-0.0","537.5","","","","50","1,1,0","6","blank","285","null","0.8602984800312097","0.09642917886783968","0.46718166385900795","1","","","","","",""
"","do_trial","367","1949995","0.0-338.0-0.0","1382.0999999996275","","","","50","1,0,1","6","blank","286","null","0.720880893634458","0.055647860765272075","0.42527532076852476","0","","","","","",""
"","do_trial","368","1954005","0.0-339.0-0.0","441.20000000018626","","","","51","1,0,1","6","blank","287","null","0.7015664833366023","0.20761160367611745","0.4148512024241098","1","","","","","",""
"","do_trial","369","1958437","0.0-340.0-0.0","865.6000000005588","","","","51","1,0,0","6","blank","288","null","0.58155931398463","0.06585696784463613","0.4313247274676816","0","","","","","",""
"","do_trial","370","1962645","0.0-341.0-0.0","641","","","","49","1,0,0","6","blank","289","null","0.8360839783093568","0.06817810317764114","0.5219873381297292","1","","","","","",""
"","do_recog","371","1965494","0.0-342.0-0.0","1337.5","","","","54","","","","290","probe-218","","","","","1","[object Object]","46","1","0",""
"","do_trial","372","1969932","0.0-343.0-0.0","873.1000000005588","","","","50","1,1,1","6","blank","291","null","0.7911941059887307","0.08907779431691079","0.4763677819321898","1","","","","","",""
"","do_trial","373","1974290","0.0-344.0-0.0","789.8999999994412","","","","51","1,0,1","6","blank","292","null","0.8587778282870216","0.07590702683464727","0.23893351833200066","1","","","","","",""
"","do_trial","374","1978811","0.0-345.0-0.0","953.5","","","","50","1,0,0","6","blank","293","null","0.871389416854331","0.17801557022486825","0.33459889326410586","0","","","","","",""
"","do_recog","375","1981863","0.0-346.0-0.0","1540.199999999255","","","","56","","","","294","probe-144","","","","","1","[object Object]","80","2","1",""
"","do_trial","376","1986098","0.0-347.0-0.0","672.7000000001863","","","","50","1,0,0","6","blank","295","null","0.8223024445643118","0.09144785310366711","0.353919553272073","0","","","","","",""
"","do_trial","377","1990119","0.0-348.0-0.0","454","","","","51","1,1,0","6","blank","296","null","0.7284830730541184","0.23140961827623746","0.41642617427219614","0","","","","","",""
"","do_trial","378","1994146","0.0-349.0-0.0","459.5","","","","49","1,1,0","6","blank","297","null","0.7068835404344687","0.30032309825082837","0.35572273815226557","1","","","","","",""
"","do_recog","379","1997490","0.0-350.0-0.0","1832.0999999996275","","","","54","","","","298","probe-251","","","","","0","[object Object]","null","null","1",""
"","do_trial","380","2001515","0.0-351.0-0.0","459.29999999981374","","","","49","0,1,0","6","blank","299","null","0.4409233456795754","0.5493385268239593","0.2861488365944833","0","","","","","",""
"","do_recog","381","2004364","0.0-352.0-0.0","1337.5","","","","56","","","","300","probe-66","","","","","1","[object Object]","166","4","1",""
"","do_trial","382","2008345","0.0-353.0-0.0","412.79999999981374","","","","50","1,1,1","6","blank","301","null","0.17402373386379202","0.5900560711715555","0.25293611621217105","1","","","","","",""
"","do_trial","383","2014104","0.0-354.0-0.0","2192.5999999996275","","","","50","1,1,0","6","blank","302","null","0.08929509374246292","0.6166986631421232","0.3661925043164998","1","","","","","",""
"","do_trial","384","2018267","0.0-355.0-0.0","592.2999999998137","","","","49","0,1,0","6","blank","303","null","0.18799340134795528","0.565337280291492","0.4104499905657426","0","","","","","",""
"","do_recog","385","2021259","0.0-356.0-0.0","1483.2000000001863","","","","54","","","","304","probe-28","","","","","1","[object Object]","200","5","0",""
"","do_trial","386","2025860","0.0-357.0-0.0","1032.7999999998137","","","","51","0,1,0","6","blank","305","null","0.17196812162256134","0.529337794926946","0.36242347655048507","0","","","","","",""
"","do_trial","387","2030103","0.0-358.0-0.0","675.9000000003725","","","","51","0,1,0","6","blank","306","null","0.12241273524454839","0.5603998870645712","0.3467295290633633","0","","","","","",""
"","do_trial","388","2034051","0.0-359.0-0.0","381.79999999981374","","","","49","0,0,1","6","blank","307","null","0.11170550251469914","0.6794117723539279","0.4316270972471677","0","","","","","",""
"","do_trial","389","2038686","0.0-360.0-0.0","1066.7999999998137","","","","51","0,1,0","6","blank","308","null","0.09246565064895214","0.7046688301960303","0.46397723849490613","0","","","","","",""
"","do_recog","390","2041553","0.0-361.0-0.0","1360.0999999996275","","","","56","","","","309","probe-130","","","","","1","[object Object]","87","2","1",""
"","do_trial","391","2045511","0.0-362.0-0.0","392.70000000018626","","","","49","1,1,1","6","blank","310","null","0.10122258922347273","0.6867987632917513","0.4746560438513051","1","","","","","",""
"","do_recog","392","2048409","0.0-363.0-0.0","1385.9000000003725","","","","54","","","","311","probe-136","","","","","1","[object Object]","41","1","0",""
"","do_trial","393","2052399","0.0-364.0-0.0","424.5","","","","51","0,0,0","6","blank","312","null","0.10984732005046186","0.7491591133902903","0.39329942845443283","0","","","","","",""
"","do_trial","394","2056300","0.0-365.0-0.0","336.90000000037253","","","","51","0,1,1","6","blank","313","null","0.11421639165760683","0.6664018999679147","0.5097384868444272","1","","","","","",""
"","do_trial","395","2060320","0.0-366.0-0.0","453.20000000018626","","","","49","0,1,1","6","blank","314","null","0.06447811268631244","0.7103698742756066","0.566315215304555","0","","","","","",""
"","do_trial","396","2064326","0.0-367.0-0.0","438.40000000037253","","","","50","0,1,0","6","blank","315","null","0.136044437534846","0.8045061111311224","0.4881808598296277","1","","","","","",""
"","do_recog","397","2067102","0.0-368.0-0.0","1269.5999999996275","","","","56","","","","316","probe-132","","","","","1","[object Object]","160","4","1",""
"","do_trial","398","2071039","0.0-369.0-0.0","371.29999999981374","","","","51","0,1,0","6","blank","317","null","0.10443628679580291","0.7867301451770433","0.41087188540140757","0","","","","","",""
"","do_recog","399","2073921","0.0-370.0-0.0","1373.3999999994412","","","","56","","","","318","probe-158","","","","","1","[object Object]","203","5","1",""
"","do_trial","400","2077901","0.0-371.0-0.0","417","","","","51","0,1,0","6","blank","319","null","0.05491896143720435","0.7527858811625464","0.38154719473079757","0","","","","","",""
"","do_recog","401","2080912","0.0-372.0-0.0","1498.7999999998137","","","","55","","","","320","probe-103","","","","","1","[object Object]","42","1","1",""
"","do_trial","402","2084914","0.0-373.0-0.0","435.70000000018626","","","","49","0,1,1","6","blank","321","null","0.23538634332708291","0.6560065796690896","0.3008851747197835","0","","","","","",""
"","do_recog","403","2087795","0.0-374.0-0.0","1370.2999999998137","","","","54","","","","322","probe-23","","","","","1","[object Object]","207","5","0",""
"","do_trial","404","2091783","0.0-375.0-0.0","424.90000000037253","","","","51","0,1,0","6","blank","323","null","0.21230396184377426","0.6295389249703989","0.23128729489398495","0","","","","","",""
"","do_recog","405","2094716","0.0-376.0-0.0","1421.5","","","","56","","","","324","probe-76","","","","","1","[object Object]","204","5","1",""
"","do_trial","406","2098650","0.0-377.0-0.0","365.3999999994412","","","","50","1,1,0","6","blank","325","null","0.12136028229052004","0.7127166778512647","0.4376272135822012","1","","","","","",""
"","do_trial","407","2102678","0.0-378.0-0.0","461.5","","","","51","0,1,0","6","blank","326","null","0.15628762589665304","1","0.3456930384686219","0","","","","","",""
"","do_trial","408","2106593","0.0-379.0-0.0","348.29999999981374","","","","49","0,1,1","6","blank","327","null","0.188156897878864","0.8815814532209512","0.4759748504444083","0","","","","","",""
"","do_recog","409","2109734","0.0-380.0-0.0","1628.8999999994412","","","","54","","","","328","probe-170","","","","","1","[object Object]","120","3","0",""
"","do_trial","410","2113767","0.0-381.0-0.0","469.3999999994412","","","","51","0,1,0","6","blank","329","null","0.10962484364685712","0.8336904319968409","0.4008102042700748","0","","","","","",""
"","do_trial","411","2117900","0.0-382.0-0.0","565.7000000001863","","","","51","0,0,1","6","blank","330","null","0.16647580229040876","0.7863993340292238","0.4834163349931948","1","","","","","",""
"","do_trial","412","2122858","0.0-383.0-0.0","1394.8999999994412","","","","50","1,1,1","6","blank","331","null","0.23780170298412676","0.9060955078694655","0.44531257397525237","1","","","","","",""
"","do_trial","413","2127428","0.0-384.0-0.0","1001.3000000007451","","","","50","0,1,1","6","blank","332","null","0.32919647686828724","0.8233901327507798","0.4629398579523774","1","","","","","",""
"","do_trial","414","2131793","0.0-385.0-0.0","797.0999999996275","","","","51","0,1,0","6","blank","333","null","0.18655306141521308","0.8849527925966497","0.35997807232510454","0","","","","","",""
"","do_recog","415","2134582","0.0-386.0-0.0","1282.2000000001863","","","","56","","","","334","probe-40","","","","","1","[object Object]","40","1","1",""
"","do_trial","416","2138532","0.0-387.0-0.0","383.70000000018626","","","","49","1,1,1","6","blank","335","null","0.28672785557622565","0.7969814091834304","0.4571390171291998","1","","","","","",""
"","do_trial","417","2142864","0.0-388.0-0.0","762.7000000001863","","","","49","0,1,0","6","blank","336","null","0.23649154108857892","0.7372508610535647","0.3223093532861714","0","","","","","",""
"","do_recog","418","2145541","0.0-389.0-0.0","1169.9000000003725","","","","56","","","","337","probe-83","","","","","1","[object Object]","84","2","1",""
"","do_trial","419","2149490","0.0-390.0-0.0","382.3999999994412","","","","51","0,1,0","6","blank","338","null","0.1730229759630433","0.7009926526093646","0.30290189787925703","0","","","","","",""
"","do_trial","420","2153921","0.0-391.0-0.0","863.8000000007451","","","","50","0,1,0","6","blank","339","null","0.17828722587683035","0.6417105420698278","0.6382823053994633","1","","","","","",""
"","do_trial","421","2157917","0.0-392.0-0.0","428","","","","51","0,1,1","6","blank","340","null","0.31113624122644135","0.599268818979873","0.6273990526600716","1","","","","","",""
"","do_recog","422","2161067","0.0-393.0-0.0","1641.1000000005588","","","","55","","","","341","probe-22","","","","","1","[object Object]","125","3","1",""
"","do_trial","423","2165039","0.0-394.0-0.0","402","","","","49","1,0,1","6","blank","342","null","0.17466369470626666","0.46779970197427406","0.6166120164890372","1","","","","","",""
"","do_trial","424","2171497","0.0-395.0-0.0","2888.9000000003725","","","","49","0,0,1","6","blank","343","null","0.14350385108103145","0.4341829773138857","0.7164087260676419","0","","","","","",""
"","do_recog","425","2174645","0.0-396.0-0.0","1641.1000000005588","","","","54","","","","344","probe-90","","","","","1","[object Object]","162","4","0",""
"","do_trial","426","2180395","0.0-397.0-0.0","2184.800000000745","","","","49","0,0,1","6","blank","345","null","0.13084480590043848","0.41459272587921014","0.6034316383802196","0","","","","","",""
"","do_trial","427","2184479","0.0-398.0-0.0","515.1000000005588","","","","51","0,0,0","6","blank","346","null","0.2941053159361331","0.3531070954463769","0.6690802499822409","0","","","","","",""
"","do_trial","428","2188462","0.0-399.0-0.0","416","","","","50","0,1,1","6","blank","347","null","0.14211268280794648","0.38875768943572725","0.7637436521140457","1","","","","","",""
"","do_trial","429","2194007","0.0-400.0-0.0","1979.2000000001863","","","","51","0,1,1","6","blank","348","null","0.14209101940849875","0.28891045259976944","0.7478106039665333","1","","","","","",""
"","do_trial","430","2198205","0.0-401.0-0.0","627.2000000001863","","","","49","0,1,0","6","blank","349","null","0.1366702092228366","0.4006002487898606","0.7017791597181154","0","","","","","",""
"","do_recog","431","2201457","0.0-402.0-0.0","1742.0999999996275","","","","56","","","","350","probe-187","","","","","1","[object Object]","169","4","1",""
"","do_trial","432","2205382","0.0-403.0-0.0","358.20000000018626","","","","49","0,0,1","6","blank","351","null","0.20853259775082827","0.1394844966091469","0.6362445071742225","0","","","","","",""
"","do_recog","433","2209363","0.0-404.0-0.0","2473.5","","","","56","","","","352","probe-179","","","","","1","[object Object]","205","5","1",""
"","do_trial","434","2213246","0.0-405.0-0.0","316.70000000018626","","","","51","0,0,1","6","blank","353","null","0.1959220048276766","0.07029901919639495","0.5396922945776831","1","","","","","",""
"","do_recog","435","2219262","0.0-406.0-0.0","null","","","","null","","","","354","probe-177","","","","","1","[object Object]","89","2","0",""
"","do_trial","436","2223729","0.0-407.0-0.0","901.7999999998137","","","","51","0,0,1","6","blank","355","null","0.16312194095593405","0.13481866198874248","0.5012446500603666","1","","","","","",""
"","do_recog","437","2227199","0.0-408.0-0.0","1959","","","","55","","","","356","probe-258","","","","","0","[object Object]","null","null","0",""
"","do_trial","438","2231918","0.0-409.0-0.0","1157.2000000001863","","","","49","0,0,1","6","blank","357","null","0.12019550095680175","0.17639035955201807","0.6647019369422297","0","","","","","",""
"","do_recog","439","2237268","0.0-410.0-0.0","3838.7000000001863","","","","56","","","","358","probe-167","","","","","1","[object Object]","128","3","1",""
"","do_trial","440","2242451","0.0-411.0-0.0","1617.699999999255","","","","49","0,0,0","6","blank","359","null","0.11013948502635387","0.20935071119637594","0.7404508687984263","0","","","","","",""
"","do_trial","441","2246490","0.0-412.0-0.0","472.20000000018626","","","","51","0,0,1","6","blank","360","null","0.16358157788420497","0.23814442036656747","0.8163853087275874","1","","","","","",""
"","do_recog","442","2249517","0.0-413.0-0.0","1517.2000000001863","","","","54","","","","361","probe-139","","","","","1","[object Object]","121","3","0",""
"","do_trial","443","2253578","0.0-414.0-0.0","492.29999999981374","","","","51","1,1,1","6","blank","362","null","0.19959458107406455","0.42112967616993097","0.9046557983910769","1","","","","","",""
"","do_recog","444","2257156","0.0-415.0-0.0","2069.7000000001863","","","","54","","","","363","probe-215","","","","","1","[object Object]","161","4","0",""
"","do_trial","445","2261139","0.0-416.0-0.0","416.79999999981374","","","","51","0,0,1","6","blank","364","null","0.11593288106192727","0.33653301573996175","0.9483769884666151","1","","","","","",""
"","do_recog","446","2263635","0.0-417.0-0.0","988.5","","","","56","","","","365","probe-121","","","","","1","[object Object]","201","5","1",""
"","do_trial","447","2269449","0.0-418.0-0.0","2249.7000000001863","","","","49","0,1,1","6","blank","366","null","0.0961176388408798","0.41419952974652363","0.8787721232940343","0","","","","","",""
"","do_recog","448","2272016","0.0-419.0-0.0","1060.2000000001863","","","","54","","","","367","probe-153","","","","","1","[object Object]","43","1","0",""
"","do_trial","449","2276099","0.0-420.0-0.0","519","","","","51","0,1,1","6","blank","368","null","0.14937845405586858","0.3616891252589884","0.712268304627346","1","","","","","",""
"","do_recog","450","2278936","0.0-421.0-0.0","1328.800000000745","","","","54","","","","369","probe-111","","","","","1","[object Object]","47","1","0",""
"","do_trial","451","2282953","0.0-422.0-0.0","433.8999999994412","","","","50","0,0,1","6","blank","370","null","0.12834428554460672","0.3811569253770169","0.65769810456823","0","","","","","",""
"","do_recog","452","2285359","0.0-423.0-0.0","899.1000000005588","","","","56","","","","371","probe-98","","","","","1","[object Object]","82","2","1",""
"","do_trial","453","2289389","0.0-424.0-0.0","463.79999999981374","","","","49","0,0,1","6","blank","372","null","0.062168719052136875","0.4124646828328526","1","0","","","","","",""
"","do_recog","454","2292463","0.0-425.0-0.0","1560.6000000005588","","","","56","","","","373","probe-200","","","","","1","[object Object]","83","2","1",""
"","do_trial","455","2296509","0.0-426.0-0.0","479.20000000018626","","","","49","0,0,0","6","blank","374","null","0.09667312686447174","0.27368450686626355","0.8474034595788493","0","","","","","",""
"","do_recog","456","2299494","0.0-427.0-0.0","1472.8999999994412","","","","56","","","","375","probe-25","","","","","1","[object Object]","165","4","1",""
"","do_trial","457","2303530","0.0-428.0-0.0","469.70000000018626","","","","50","0,1,0","6","blank","376","null","0.12464360058477912","0.29541627470093906","0.657834064717085","1","","","","","",""
"","do_trial","458","2307636","0.0-429.0-0.0","539.2000000001863","","","","50","0,0,0","6","blank","377","null","0.07594020541043778","0.351809375368882","0.5942490734070713","0","","","","","",""
"","do_trial","459","2311630","0.0-430.0-0.0","425.8999999994412","","","","49","0,0,1","6","blank","378","null","0.06731170292265201","0.2508580592230462","0.7287502844409496","0","","","","","",""
"","do_recog","460","2314221","0.0-431.0-0.0","1079.2000000001863","","","","56","","","","379","probe-26","","","","","1","[object Object]","127","3","1",""
"","do_trial","461","2318264","0.0-432.0-0.0","477.5","","","","51","1,0,1","6","blank","380","null","0.13975998607768314","0.16191135966651557","0.7269994046748157","1","","","","","",""
"","do_recog","462","2321173","0.0-433.0-0.0","1398.2000000001863","","","","54","","","","381","probe-186","","","","","1","[object Object]","209","5","0",""
"","do_trial","463","2325321","0.0-434.0-0.0","581.0999999996275","","","","51","0,1,1","6","blank","382","null","0.22623150910643852","0.17595711067213116","0.6872267165671254","1","","","","","",""
"","do_trial","464","2329930","0.0-435.0-0.0","1046.2000000001863","","","","51","0,1,1","6","blank","383","null","0.07854565345098234","0.19014292677910277","0.6762313825217692","1","","","","","",""
"","do_trial","465","2334412","0.0-436.0-0.0","915.1000000005588","","","","49","1,1,1","6","blank","384","null","0.17348735927460404","0.29987235994262945","0.6149802448994851","1","","","","","",""
"","do_recog","466","2337194","0.0-437.0-0.0","1270.0999999996275","","","","56","","","","385","probe-137","","","","","1","[object Object]","122","3","1",""
"","do_trial","467","2342512","0.0-438.0-0.0","1749.800000000745","","","","50","0,0,1","6","blank","386","null","0.13916560409608136","0.37565932623035536","0.6642491438466498","0","","","","","",""
"","do_recog","468","2345508","0.0-439.0-0.0","1483.5999999996275","","","","56","","","","387","probe-85","","","","","1","[object Object]","44","1","1",""
"","do_trial","469","2350656","0.0-440.0-0.0","1579.7000000001863","","","","49","0,0,1","6","blank","388","null","0.11306426560724869","0.5123073101212137","0.6147366425349818","0","","","","","",""
"","do_recog","470","2353236","0.0-441.0-0.0","1068","","","","56","","","","389","probe-03","","","","","1","[object Object]","208","5","1",""
"","do_trial","471","2357157","0.0-442.0-0.0","357.3999999994412","","","","51","0,1,0","6","blank","390","null","0.18069775433722662","0.6746461511848436","0.5783864359098511","0","","","","","",""
"","do_recog","472","2359828","0.0-443.0-0.0","1159.5","","","","56","","","","391","probe-64","","","","","1","[object Object]","88","2","1",""
"","do_trial","473","2363887","0.0-444.0-0.0","491.8999999994412","","","","49","0,0,0","6","blank","392","null","0.11174656799199156","0.631590151015505","0.4590623054402176","0","","","","","",""
"","do_recog","474","2366427","0.0-445.0-0.0","1032.7999999998137","","","","55","","","","393","probe-88","","","","","1","[object Object]","49","1","1",""
"","do_trial","475","2370593","0.0-446.0-0.0","599.6000000005588","","","","50","0,1,1","6","blank","394","null","0.12469657856740515","0.7474667238207322","0.32033969469457946","1","","","","","",""
