"success","trial_type","trial_index","time_elapsed","internal_node_id","rt","stimulus","key_press","subject_id","participant_id","age","gender","prompt","response","choice_outcomes","context_n","context_img_id","trial_n","probe_img_id","pR_red","pR_white","pR_black","outcome","contextArray_ind","validImageProbes","invalidImageProbes","pRew_Red","pRew_White","pRew_Black","availableForMemProbe","choice_blocks"
"true","fullscreen","0","5578","0.0-0.0","","","","","","","","","","","","","","","","","","","","","","","","","",""
"","pavlovia","1","5587","0.0-1.0","","","","","","","","","","","","","","","","","","","","","","","","","",""
"","instruc1","2","56862","0.0-2.0","null","run_exp/static/audio/clip_1_welcome.m4a","null","140","251","8","Male","<div class='center'><p>Welcome! This is the first part of the experiment. It will last ~30 minutes. In this experiment, you are the head captain of a pirate ship traveling around the world to different islands. You will play a few different games during this experiment. Here is an overview of these games:</p><br><p>Part 1 (today)</p><p>1. Instructions, practice game, and quiz</p><p>2. Pick a pirate game on 6 different islands</p><br><p>Part 2 (1 day later)</p><p>3. Pick a pirate game and memory game</p><p>4. Where did I see this ship? game</p><p>5. Which pirate was the best? game</p><br><p>Part 3 (1 week later)</p><p>6. Memory game</p></div>","","","","","","","","","","","","","","","","","",""
"","html-keyboard-response","3","59683","0.0-3.0","2819.399999976158","<div class='center'><p>Welcome! This is the first part of the experiment. It will last ~30 minutes. In this experiment, you are the head captain of a pirate ship traveling around the world to different islands. You will play a few different games during this experiment. Here is an overview of these games:</p><br><p>Part 1 (today)</p><p>1. Instructions, practice game, and quiz</p><p>2. Pick a pirate game on 6 different islands</p><br><p>Part 2 (1 day later)</p><p>3. Pick a pirate game and memory game</p><p>4. Where did I see this ship? game</p><p>5. Which pirate was the best? game</p><br><p>Part 3 (1 week later)</p><p>6. Memory game</p><p><b>[Press the space bar to continue]</b></p></div>","32","","","","","","","","","","","","","","","","","","","","","","",""
"","instruc2","4","67730","0.0-4.0","null","run_exp/static/audio/clip_2_different_places.m4a","null","","","","","<div class='center'><p>Today, you’ll visit these 6 islands on your journey. You'll be able to see these islands from your ship.</p><p><img src='run_exp/static/images/contexts/all_contexts.png' height='500'></p></div>","","","","","","","","","","","","","","","","","",""
"","html-keyboard-response","5","69552","0.0-5.0","1820.5999999642372","<div class='center'><p>Today, you’ll visit these 6 islands on your journey. You'll be able to see these islands from your ship.</p><p><img src='run_exp/static/images/contexts/all_contexts.png' height='500'></p><p><b>[Press the space bar to continue]</b></p></div>","32","","","","","","","","","","","","","","","","","","","","","","",""
"","instruc3","6","82156","0.0-6.0","null","run_exp/static/audio/clip_3_goal_of_game_1.m4a","null","","","","","<div class='center'><p> The pirates on your ship will rob other ships as they leave the island</p> These ships have just sold their things to people on the island, so they will be filled with lots and lots of gold.</p><p><img src='run_exp/static/images/tutorial/ship_center.png' height='400'></p></div>","","","","","","","","","","","","","","","","","",""
"","html-keyboard-response","7","83644","0.0-7.0","1486.6000000238419","<div class='center'><p> The pirates on your ship will rob other ships as they leave the island</p> These ships have just sold their things to people on the island, so they will be filled with lots and lots of gold.</p><p><img src='run_exp/static/images/tutorial/ship_center.png' height='400'></p><p><b>[Press the space bar to continue]</b></p></div>","32","","","","","","","","","","","","","","","","","","","","","","",""
"","instruc4","8","116937","0.0-8.0","null","run_exp/static/audio/clip_4_goal_of_game_2.m4a","null","","","","","<div class='center'><p>As the head captain, you do not have to rob any ships yourself.</p><p>Another pirate will be doing the robbing for you. </p><p>First, you will  choose a pirate to rob the next ship.</p><p><img src='run_exp/static/images/tutorial/pirates_all_crop.png' height='200'></p><p>Then, you'll see if the pirate successfully robbed the ship of their gold. If they were successful, then you'll  get a stack of gold coins like this:</p><p><img src='run_exp/static/images/tutorial/reward.png' height='150'></p><p> If they were <b>not</b> successful, then you'll get no gold coins, and you'll see a big red x like this: </p><p><img src='run_exp/static/images/tutorial/reward_no.png' height='150'></p><p> How much bonus money you make is based on how many gold coins you collect.</p><div>","","","","","","","","","","","","","","","","","",""
"","html-keyboard-response","9","120765","0.0-9.0","3823.5","<div class='center'><p>As the head captain, you do not have to rob any ships yourself.</p><p>Another pirate will be doing the robbing for you. </p><p>First, you will  choose a pirate to rob the next ship.</p><p><img src='run_exp/static/images/tutorial/pirates_all_crop.png' height='200'></p><p>Then, you'll see if the pirate successfully robbed the ship of their gold. If they were successful, then you'll  get a stack of gold coins like this:</p><p><img src='run_exp/static/images/tutorial/reward.png' height='150'></p><p> If they were <b>not</b> successful, then you'll get no gold coins, and you'll see a big red x like this: </p><p><img src='run_exp/static/images/tutorial/reward_no.png' height='150'></p><p> How much bonus money you make is based on how many gold coins you collect.</p<p><b>[Press the space bar to continue]</b></p></div>","32","","","","","","","","","","","","","","","","","","","","","","",""
"","instruc5","10","151731","0.0-10.0","30937.69999998808","run_exp/static/audio/clip_5_probabilistic.m4a","49","","","","","<div class='center'><p>Even the most skilled pirate can not rob EVERY ship.</p><p> Some ships will have very strong protections against pirate attacks.</p><p> Blue beard, here, is very, very good at robbing ships, but he won't be successful every time he tries to rob one.</p><p> You can press the <b>‘1’</b> key on the keyboard to choose him.</p><p> Try choosing him 10 times to see how often he succeeds at robbing a ship. </p><p><img src='run_exp/static/images/tutorial/blue.png' height='500'></p></div>","","","","","","","","","","","","","","","","","",""
"","html-keyboard-response","11","153238","0.0-11.0","null","<div class='center'><p><img src='run_exp/static/images/tutorial/blue_win.png' height='500'></p></div>","null","","","","","","","","","","","","","","","","","","","","","","",""
"","html-keyboard-response","12","155637","0.0-12.0","2397","<div class='center'><img src='run_exp/static/images/tutorial/blue.png' height='500'></p></div>","49","","","","","","","","","","","","","","","","","","","","","","",""
"","html-keyboard-response","13","157151","0.0-13.0","null","<div class='center'><p><img src='run_exp/static/images/tutorial/blue_win.png' height='500'></p></div>","null","","","","","","","","","","","","","","","","","","","","","","",""
"","html-keyboard-response","14","157878","0.0-14.0","724.3000000119209","<div class='center'><img src='run_exp/static/images/tutorial/blue.png' height='500'></p></div>","49","","","","","","","","","","","","","","","","","","","","","","",""
"","html-keyboard-response","15","159381","0.0-15.0","null","<div class='center'><p><img src='run_exp/static/images/tutorial/blue_win.png' height='500'></p></div>","null","","","","","","","","","","","","","","","","","","","","","","",""
"","html-keyboard-response","16","159789","0.0-16.0","406.89999997615814","<div class='center'><img src='run_exp/static/images/tutorial/blue.png' height='500'></p></div>","49","","","","","","","","","","","","","","","","","","","","","","",""
"","html-keyboard-response","17","161292","0.0-17.0","null","<div class='center'><p><img src='run_exp/static/images/tutorial/blue_no_win.png' height='500'></p></div>","null","","","","","","","","","","","","","","","","","","","","","","",""
"","html-keyboard-response","18","161734","0.0-18.0","440.89999997615814","<div class='center'><img src='run_exp/static/images/tutorial/blue.png' height='500'></p></div>","49","","","","","","","","","","","","","","","","","","","","","","",""
"","html-keyboard-response","19","163244","0.0-19.0","null","<div class='center'><p><img src='run_exp/static/images/tutorial/blue_win.png' height='500'></p></div>","null","","","","","","","","","","","","","","","","","","","","","","",""
"","html-keyboard-response","20","163802","0.0-20.0","556.1999999880791","<div class='center'><img src='run_exp/static/images/tutorial/blue.png' height='500'></p></div>","49","","","","","","","","","","","","","","","","","","","","","","",""
"","html-keyboard-response","21","165311","0.0-21.0","null","<div class='center'><p><img src='run_exp/static/images/tutorial/blue_win.png' height='500'></p></div>","null","","","","","","","","","","","","","","","","","","","","","","",""
"","html-keyboard-response","22","165810","0.0-22.0","497","<div class='center'><img src='run_exp/static/images/tutorial/blue.png' height='500'></p></div>","49","","","","","","","","","","","","","","","","","","","","","","",""
"","html-keyboard-response","23","167322","0.0-23.0","null","<div class='center'><p><img src='run_exp/static/images/tutorial/blue_win.png' height='500'></p></div>","null","","","","","","","","","","","","","","","","","","","","","","",""
"","html-keyboard-response","24","167831","0.0-24.0","508.19999998807907","<div class='center'><img src='run_exp/static/images/tutorial/blue.png' height='500'></p></div>","49","","","","","","","","","","","","","","","","","","","","","","",""
"","html-keyboard-response","25","169353","0.0-25.0","null","<div class='center'><p><img src='run_exp/static/images/tutorial/blue_no_win.png' height='500'></p></div>","null","","","","","","","","","","","","","","","","","","","","","","",""
"","html-keyboard-response","26","169828","0.0-26.0","474","<div class='center'><img src='run_exp/static/images/tutorial/blue.png' height='500'></p></div>","49","","","","","","","","","","","","","","","","","","","","","","",""
"","html-keyboard-response","27","171343","0.0-27.0","null","<div class='center'><p><img src='run_exp/static/images/tutorial/blue_win.png' height='500'></p></div>","null","","","","","","","","","","","","","","","","","","","","","","",""
"","html-keyboard-response","28","171728","0.0-28.0","383.2000000476837","<div class='center'><img src='run_exp/static/images/tutorial/blue.png' height='500'></p></div>","49","","","","","","","","","","","","","","","","","","","","","","",""
"","html-keyboard-response","29","173242","0.0-29.0","null","<div class='center'><p><img src='run_exp/static/images/tutorial/blue_win.png' height='500'></p></div>","null","","","","","","","","","","","","","","","","","","","","","","",""
"","instruc6","30","180600","0.0-30.0","null","run_exp/static/audio/clip_6_blue_beard_outcome.m4a","null","","","","","<div class='center'><p> See, he succeeded in robbing the ships most of the time but not every time. </p></div>","","","","","","","","","","","","","","","","","",""
"","html-keyboard-response","31","181773","0.0-31.0","1172","<div class='center'><p> See, he succeeded in robbing the ships most of the time but not every time. </p><p><b>[Press the space bar to continue]</b></p></div>","32","","","","","","","","","","","","","","","","","","","","","","",""
"","audio-keyboard-response","32","213898","0.0-32.0","32122.19999998808","run_exp/static/audio/clip_7_pick_pirate.m4a","51","","","","","","","","","","","","","","","","","","","","","","",""
"","audio-keyboard-response","33","221283","0.0-33.0-0.0","7378.399999976158","run_exp/static/audio/clip_8_chosen_pirate_win.m4a","32","","","","","","","","","","","","","","","","","","","","","","",""
"","audio-keyboard-response","34","225569","0.0-33.0-1.0","4282.400000035763","run_exp/static/audio/clip_9_pick_a_pirate_again.m4a","49","","","","","","","","","","","","","","","","","","","","","","",""
"","audio-keyboard-response","35","232820","0.0-34.0-0.0","7227.900000035763","run_exp/static/audio/clip_10_chosen_pirate_loss.m4a","32","","","","","","","","","","","","","","","","","","","","","","",""
"","instruc9","36","240036","0.0-35.0-0.0","null","run_exp/static/audio/clip_11_time_out.m4a","null","","","","","<div class='center'><p>If you don’t make your choice fast enough, you’ll have to wait a few seconds before you can make another one. </p><p><img src='run_exp/static/images/miscellaneous/hurry_up.png' height='500'></p></div>","","","","","","","","","","","","","","","","","",""
"","html-keyboard-response","37","240756","0.0-35.0-1.0","717.5","<div class='center'><p>If you don’t make your choice fast enough, you’ll have to wait a few seconds before you can make another one. </p><p><img src='run_exp/static/images/miscellaneous/hurry_up.png' height='500'></p><p><b>[Press the space bar to continue]</b></p></div>","32","","","","","","","","","","","","","","","","","","","","","","",""
"","instruc10","38","289401","0.0-35.0-2.0","null","run_exp/static/audio/clip_12_probe.m4a","null","","","","","<div class='center'><p>Once you've choose a pirate, you’ll be shown the ship they are robbing.</p><p>You will never rob the same ship twice. After all, ships that have already been robbed won’t have gold on them. </p><p>Ships can be told apart from one another by the image on them. See, this one has a travel mug on it. </p><p> You’ll have to remember which island you saw each ship on.You will win more bonus money if you remember correctly! To help you remember, you can imagine a story. For example, here, you could imagine a mug full of water in the desert. Or, as another example, if on the forest island, your pirate robbed a ship with an apple on it, you could imagine an apple falling from a tree in the forest. </p><p><img src='run_exp/static/images/tutorial/example_probe.png' height='500'></p></div>","","","","","","","","","","","","","","","","","",""
"","html-keyboard-response","39","290714","0.0-35.0-3.0","1311.199999988079","<div class='center'><p>Once you've choose a pirate, you’ll be shown the ship they are robbing.</p><p>You will never rob the same ship twice. After all, ships that have already been robbed won’t have gold on them. </p><p>Ships can be told apart from one another by the image on them. See, this one has a travel mug on it. </p><p> You’ll have to remember which island you saw each ship on.You will win more bonus money if you remember correctly! To help you remember, you can imagine a story. For example, here, you could imagine a mug full of water in the desert. Or, as another example, if on the forest island, your pirate robbed a ship with an apple on it, you could imagine an apple falling from a tree in the forest. </p><p><img src='run_exp/static/images/tutorial/example_probe.png' height='500'></p><p><b>[Press the space bar to continue]</b></p></div>","32","","","","","","","","","","","","","","","","","","","","","","",""
"","instruc11","40","311630","0.0-35.0-4.0","null","run_exp/static/audio/clip_13_changepoint.m4a","null","","","","","<div class='center'><p>How successful a pirate is at robbing ships will depend on the island you’re on.</p><p> A pirate may have visited this island many times before and gained a lot of practice robbing ships there.</p><p>So, they’re more likely to be successful than a pirate who has never visited the island before.</p></div>","","","","","","","","","","","","","","","","","",""
"","html-keyboard-response","41","312289","0.0-35.0-5.0","657.6000000238419","<div class='center'><p>How successful a pirate is at robbing ships will depend on the island you’re on.</p><p> A pirate may have visited this island many times before and gained a lot of practice robbing ships there.</p><p>So, they’re more likely to be successful than a pirate who has never visited the island before.</p><p><b>[Press the space bar to continue]</b></p></div>","32","","","","","","","","","","","","","","","","","","","","","","",""
"","instruc12","42","340350","0.0-35.0-6.0","null","run_exp/static/audio/clip_14_drift.m4a","null","","","","","<div class='center'><p>How successful a pirate is at robbing ships can also change over the time spent on the island. </p><p> Ships may hear from islanders about the pirates coming and will improve their protections against the attack. This may make it harder to rob them.</p><p> Ships may also become lazy and weaken the strength of their protections. This may make it easier to rob them.</p><br><p>Things are always changing on the high seas! So, try your best to pay attention!</p><p><img src='run_exp/static/images/tutorial/contingency.png' height='500'></p></div>","","","","","","","","","","","","","","","","","",""
"","html-keyboard-response","43","365964","0.0-35.0-7.0","25611.899999976158","<div class='center'><p>How successful a pirate is at robbing ships can also change over the time spent on the island. </p><p> Ships may hear from islanders about the pirates coming and will improve their protections against the attack. This may make it harder to rob them.</p><p> Ships may also become lazy and weaken the strength of their protections. This may make it easier to rob them.</p><br><p>Things are always changing on the high seas! So, try your best to pay attention!</p><p><img src='run_exp/static/images/tutorial/contingency.png' height='500'></p><p><b>[Press the space bar to continue]</b></p></div>","32","","","","","","","","","","","","","","","","","","","","","","",""
"","instruc13","44","411891","0.0-35.0-8.0","null","run_exp/static/audio/clip_15_summary.m4a","null","","","","","<div class='center'><p>Let's go over the instructions quickly again. You have two important things to do: </p><b><p> 1. Pick the pirate who is the best at robbing ships on the current island. This way you'll collect more gold coins!</p></b><b><p> 2. Remember on which island a ship was robbed.</p> </b><p>The amount of bonus money you can win depends on both.</p><p><br><p>Let’s try a practice game. The game will start by showing you the pirates. First, pick a pirate using the <b> 1, 2, 3 </b> keys on your keyboard. When you are shown a ship, try to remember which island you’re on by making up a story.</p><p>This is just a practice game, so you’re not playing for money. </p><p> Good luck! This game will be very difficult but try your best!</p></div>","","","","","","","","","","","","","","","","","",""
"","html-keyboard-response","45","412295","0.0-35.0-9.0","401.89999997615814","<div class='center'><p>Let's go over the instructions quickly again. You have two important things to do: </p><b><p> 1. Pick the pirate who is the best at robbing ships on the current island. This way you'll collect more gold coins!</p></b><b><p> 2. Remember on which island a ship was robbed.</p> </b><p>The amount of bonus money you can win depends on both.</p><p><br><p>Let’s try a practice game. The game will start by showing you the pirates. First, pick a pirate using the <b> 1, 2, 3 </b> keys on your keyboard. When you are shown a ship, try to remember which island you’re on by making up a story.</p><p>This is just a practice game, so you’re not playing for money. </p><p> Good luck! This game will be very difficult but try your best!</p><p><b>[Press the space bar to continue]</b></p></div>","32","","","","","","","","","","","","","","","","","","","","","","",""
"","do_welcome","46","416311","0.0-35.0-10.0","null","","","","","","","","null","","","","","","","","","","","","","","","","",""
"","do_trial","47","422343","0.0-35.0-11.0","null","","","","","","","","null","1,0,0","","","","","","","","","","","","","","","",""
"","html-keyboard-response","48","423356","0.0-36.0-0.0","null","<p></p>","null","","","","","","","","","","","","","","","","","","","","","","",""
"","do_trial","49","428723","0.0-36.0-1.0","855.1000000238419","","","","","","","","50","1,0,0","","","","","","","","","","","","","","","",""
"","html-keyboard-response","50","429733","0.0-37.0-0.0","null","<p></p>","null","","","","","","","","","","","","","","","","","","","","","","",""
"","do_trial","51","435179","0.0-37.0-1.0","938.1999999880791","","","","","","","","51","1,1,0","","","","","","","","","","","","","","","",""
"","html-keyboard-response","52","436187","0.0-38.0-0.0","null","<p></p>","null","","","","","","","","","","","","","","","","","","","","","","",""
"","do_trial","53","441076","0.0-38.0-1.0","369.69999998807907","","","","","","","","49","1,0,1","","","","","","","","","","","","","","","",""
"","html-keyboard-response","54","442081","0.0-39.0-0.0","null","<p></p>","null","","","","","","","","","","","","","","","","","","","","","","",""
"","do_trial","55","447988","0.0-39.0-1.0","1388.199999988079","","","","","","","","49","0,1,0","","","","","","","","","","","","","","","",""
"","html-keyboard-response","56","448996","0.0-40.0-0.0","null","<p></p>","null","","","","","","","","","","","","","","","","","","","","","","",""
"","do_trial","57","453784","0.0-40.0-1.0","264.30000001192093","","","","","","","","51","1,0,0","","","","","","","","","","","","","","","",""
"","do_bye","58","455290","0.0-41.0-0.0","null","","","","","","","","null","","","","","","","","","","","","","","","","",""
"","do_travel","59","464306","0.0-41.0-1.0","null","","","","","","","","null","","","","","","","","","","","","","","","","",""
"","do_welcome","60","468316","0.0-41.0-2.0","null","","","","","","","","null","","","","","","","","","","","","","","","","",""
"","do_trial","61","473622","0.0-41.0-3.0","793.6000000238419","","","","","","","","50","1,0,0","","","","","","","","","","","","","","","",""
"","html-keyboard-response","62","474626","0.0-42.0-0.0","null","<p></p>","null","","","","","","","","","","","","","","","","","","","","","","",""
"","do_trial","63","479488","0.0-42.0-1.0","350.10000002384186","","","","","","","","51","1,0,1","","","","","","","","","","","","","","","",""
"","html-keyboard-response","64","480504","0.0-43.0-0.0","null","<p></p>","null","","","","","","","","","","","","","","","","","","","","","","",""
"","do_trial","65","485385","0.0-43.0-1.0","363.19999998807907","","","","","","","","49","1,1,0","","","","","","","","","","","","","","","",""
"","html-keyboard-response","66","486402","0.0-44.0-0.0","null","<p></p>","null","","","","","","","","","","","","","","","","","","","","","","",""
"","do_trial","67","491534","0.0-44.0-1.0","614.1999999880791","","","","","","","","51","0,0,1","","","","","","","","","","","","","","","",""
"","html-keyboard-response","68","492542","0.0-45.0-0.0","null","<p></p>","null","","","","","","","","","","","","","","","","","","","","","","",""
"","do_trial","69","497552","0.0-45.0-1.0","485.30000001192093","","","","","","","","50","1,0,1","","","","","","","","","","","","","","","",""
"","html-keyboard-response","70","500973","0.0-46.0-0.0","3402.100000023842","<div class='center'><p><img src='run_exp/static/images/tutorial/prac_best_pirate.png'  height='500'></p></div>","49","","","","","","","","","","","","","","","","","","","","","","",""
"","html-keyboard-response","71","503855","0.0-47.0-0.0","2879.600000023842","<div class='center'><p>That's correct! Red beard was the best.</p><p><b>[Press the space bar to continue]</b></p></div>","32","","","","","","","","","","","","","","","","","","","","","","",""
"","html-keyboard-response","72","514380","0.0-47.0-1.0","10522.600000023842","<div class='center'><p><img src='run_exp/static/images/tutorial/prac_source.png'  height='500'></p></div>","50","","","","","","","","","","","","","","","","","","","","","","",""
"","html-keyboard-response","73","516925","0.0-48.0-0.0","2543.600000023842","<div class='center'><p>That's correct! You saw this ship on the cavern island.</p><p><b>[Press the space bar to continue]</b></p></div>","32","","","","","","","","","","","","","","","","","","","","","","",""
"","quiz_beginning","74","531065","0.0-48.0-1.0","null","run_exp/static/audio/clip_16_quiz_intro.m4a","null","","","","","<div class='center'><p>Good job on the practice game! Now, you will be asked some true or false questions to make sure you really understand the rules of the game.</p><p> Press <b>'1'</b> on the keyboard for true and press <b>'2'</b> for false.</p></div>","","","","","","","","","","","","","","","","","",""
"","audio-keyboard-response","75","537712","0.0-48.0-2.0","6644.900000035763","run_exp/static/audio/clip_17_q1.m4a","50","","","","","","","","","","","","","","","","","","","","","","",""
"","correct","76","540718","0.0-49.0-0.0","null","run_exp/static/audio/clip_18_correct.m4a","null","","","","","<div class='center'><p>That's correct!</p></div>","","","","","","","","","","","","","","","","","",""
"","html-keyboard-response","77","541985","0.0-49.0-1.0","1265.199999988079","<div class='center'><p>That's correct!</p><p><b>[Press the space bar to continue]</b></p></div>","32","","","","","","","","","","","","","","","","","","","","","","",""
"","audio-keyboard-response","78","548789","0.0-49.0-2.0","6774.699999988079","run_exp/static/audio/clip_20_q2.m4a","50","","","","","","","","","","","","","","","","","","","","","","",""
"","correct","79","551748","0.0-50.0-0.0","null","run_exp/static/audio/clip_18_correct.m4a","null","","","","","<div class='center'><p>That's correct!</p></div>","","","","","","","","","","","","","","","","","",""
"","html-keyboard-response","80","552858","0.0-50.0-1.0","1107.5","<div class='center'><p>That's correct!</p><p><b>[Press the space bar to continue]</b></p></div>","32","","","","","","","","","","","","","","","","","","","","","","",""
"","audio-keyboard-response","81","561454","0.0-50.0-2.0","8592.100000023842","run_exp/static/audio/clip_22_q3.m4a","50","","","","","","","","","","","","","","","","","","","","","","",""
"","correct","82","564422","0.0-51.0-0.0","null","run_exp/static/audio/clip_18_correct.m4a","null","","","","","<div class='center'><p>That's correct!</p></div>","","","","","","","","","","","","","","","","","",""
"","html-keyboard-response","83","565500","0.0-51.0-1.0","1076.9000000357628","<div class='center'><p>That's correct!</p><p><b>[Press the space bar to continue]</b></p></div>","32","","","","","","","","","","","","","","","","","","","","","","",""
"","audio-keyboard-response","84","570363","0.0-51.0-2.0","4861.300000011921","run_exp/static/audio/clip_24_q4.m4a","49","","","","","","","","","","","","","","","","","","","","","","",""
"","correct","85","573382","0.0-52.0-0.0","null","run_exp/static/audio/clip_18_correct.m4a","null","","","","","<div class='center'><p>That's correct!</p></div>","","","","","","","","","","","","","","","","","",""
"","html-keyboard-response","86","574885","0.0-52.0-1.0","1501.300000011921","<div class='center'><p>That's correct!</p><p><b>[Press the space bar to continue]</b></p></div>","32","","","","","","","","","","","","","","","","","","","","","","",""
"","q_all_corr","87","583876","0.0-53.0-0.0","null","run_exp/static/audio/clip_27_quiz_all_correct.m4a","null","","","","","<div class='center'><p>Good job! You’re now ready to move on to the real game! Remember this game will be difficult but don't get discouraged and try your best!</p></div>","","","","","","","","","","","","","","","","","",""
"","html-keyboard-response","88","587482","0.0-53.0-1.0","3603.800000011921","<div class='center'><p>Good job! You’re now ready to move on to the real game! Remember this game will be difficult but don't get discouraged and try your best!</p><p><b>[Press the space bar to continue]</b></p></div>","32","","","","","","","","","","","","","","","","","","","","","","",""
"","do_welcome","89","591497","0.0-54.0-0.0","null","","","","","","","","null","","","","","","","","","","","","","","","","",""
"","do_trial","90","597396","0.0-55.0-0.0","1332.5","","","","","","","","50","1,0,0","0","mountain","0","probe-107","0.6","0.3","0.1","0","","","","","","","",""
"","html-keyboard-response","91","598404","0.0-55.0-1.0","null","<p></p>","null","","","","","","","","","","","","","","","","","","","","","","",""
"","do_trial","92","603382","0.0-56.0-0.0","400.9000000357628","","","","","","","","49","0,1,0","0","mountain","1","probe-204","0.6955146881666556","0.4134544756926223","0.10419030156336163","0","","","","","","","",""
"","html-keyboard-response","93","604390","0.0-56.0-1.0","null","<p></p>","null","","","","","","","","","","","","","","","","","","","","","","",""
"","do_trial","94","609388","0.0-57.0-0.0","437.30000001192093","","","","","","","","51","0,0,0","0","mountain","2","probe-42","0.7886781406529284","0.4602825037165115","0.20384778138993004","0","","","","","","","",""
"","html-keyboard-response","95","610400","0.0-57.0-1.0","null","<p></p>","null","","","","","","","","","","","","","","","","","","","","","","",""
"","do_trial","96","615209","0.0-58.0-0.0","243.5","","","","","","","","50","0,0,1","0","mountain","3","probe-147","0.5565059148259777","0.46427371952009905","0.23195019664727393","0","","","","","","","",""
"","html-keyboard-response","97","616222","0.0-58.0-1.0","null","<p></p>","null","","","","","","","","","","","","","","","","","","","","","","",""
"","do_trial","98","621165","0.0-59.0-0.0","384.10000002384186","","","","","","","","49","0,1,0","0","mountain","4","probe-196","0.4563164729182676","0.3323286020320985","0.11768779639485448","0","","","","","","","",""
"","html-keyboard-response","99","622182","0.0-59.0-1.0","null","<p></p>","null","","","","","","","","","","","","","","","","","","","","","","",""
"","do_trial","100","627215","0.0-60.0-0.0","464","","","","","","","","51","0,1,0","0","mountain","5","probe-68","0.3507506767973912","0.32052523016728496","0.2112037358700458","0","","","","","","","",""
"","html-keyboard-response","101","628218","0.0-60.0-1.0","null","<p></p>","null","","","","","","","","","","","","","","","","","","","","","","",""
"","do_trial","102","633122","0.0-61.0-0.0","343.7000000476837","","","","","","","","50","0,0,0","0","mountain","6","probe-113","0.4833614947688817","0.32395466004360424","0.08807852131634562","0","","","","","","","",""
"","html-keyboard-response","103","634124","0.0-61.0-1.0","null","<p></p>","null","","","","","","","","","","","","","","","","","","","","","","",""
"","do_trial","104","639154","0.0-62.0-0.0","465.30000001192093","","","","","","","","49","0,0,0","0","mountain","7","probe-15","0.47657435455888253","0.31530807308828684","0.0899810695455155","0","","","","","","","",""
"","html-keyboard-response","105","640171","0.0-62.0-1.0","null","<p></p>","null","","","","","","","","","","","","","","","","","","","","","","",""
"","do_trial","106","645140","0.0-63.0-0.0","399.10000002384186","","","","","","","","51","1,0,0","0","mountain","8","probe-178","0.4674677646513568","0.1949591370348416","0.055806627762761594","0","","","","","","","",""
"","html-keyboard-response","107","646155","0.0-63.0-1.0","null","<p></p>","null","","","","","","","","","","","","","","","","","","","","","","",""
"","do_trial","108","651115","0.0-64.0-0.0","389.30000001192093","","","","","","","","50","1,0,0","0","mountain","9","probe-54","0.43942431674757715","0.3038548543390526","0.16877633864619554","0","","","","","","","",""
"","html-keyboard-response","109","652124","0.0-64.0-1.0","null","<p></p>","null","","","","","","","","","","","","","","","","","","","","","","",""
"","do_trial","110","657114","0.0-65.0-0.0","412","","","","","","","","49","1,1,0","0","mountain","10","probe-183","0.39497566912167065","0.29911227977402255","0.08199974213075058","1","","","","","","","",""
"","html-keyboard-response","111","658130","0.0-65.0-1.0","null","<p></p>","null","","","","","","","","","","","","","","","","","","","","","","",""
"","do_trial","112","663182","0.0-66.0-0.0","480.19999998807907","","","","","","","","50","1,0,0","0","mountain","11","probe-95","0.6230458181249705","0.19917520602202168","0.0889455445716381","0","","","","","","","",""
"","html-keyboard-response","113","664192","0.0-66.0-1.0","null","<p></p>","null","","","","","","","","","","","","","","","","","","","","","","",""
"","do_trial","114","669155","0.0-67.0-0.0","398","","","","","","","","49","0,0,0","0","mountain","12","probe-50","0.5119692405771762","0.3457761207740884","0.05067944135534667","0","","","","","","","",""
"","html-keyboard-response","115","670158","0.0-67.0-1.0","null","<p></p>","null","","","","","","","","","","","","","","","","","","","","","","",""
"","do_trial","116","675049","0.0-68.0-0.0","339.10000002384186","","","","","","","","51","1,0,0","0","mountain","13","probe-12","0.6595623145615511","0.5005088621565168","0.06089161237322086","0","","","","","","","",""
"","html-keyboard-response","117","676053","0.0-68.0-1.0","null","<p></p>","null","","","","","","","","","","","","","","","","","","","","","","",""
"","do_trial","118","681424","0.0-69.0-0.0","807.6999999880791","","","","","","","","50","1,0,0","0","mountain","14","probe-08","0.6675887985980938","0.34703693146540104","0.10194732758838392","0","","","","","","","",""
"","html-keyboard-response","119","682441","0.0-69.0-1.0","null","<p></p>","null","","","","","","","","","","","","","","","","","","","","","","",""
"","do_trial","120","687538","0.0-70.0-0.0","541.5","","","","","","","","49","0,0,0","0","mountain","15","probe-21","0.8521210862613162","0.289885387320913","0.14990426176017158","0","","","","","","","",""
"","html-keyboard-response","121","688550","0.0-70.0-1.0","null","<p></p>","null","","","","","","","","","","","","","","","","","","","","","","",""
"","do_trial","122","693449","0.0-71.0-0.0","344.19999998807907","","","","","","","","50","1,1,0","0","mountain","16","probe-163","0.8582051236246057","0.2729495387491425","0.11728786938085137","1","","","","","","","",""
"","html-keyboard-response","123","694465","0.0-71.0-1.0","null","<p></p>","null","","","","","","","","","","","","","","","","","","","","","","",""
"","do_trial","124","699506","0.0-72.0-0.0","476.89999997615814","","","","","","","","49","1,0,0","0","mountain","17","probe-193","0.6888908573781288","0.48776369471998066","0.1397010282224998","1","","","","","","","",""
"","html-keyboard-response","125","700514","0.0-72.0-1.0","null","<p></p>","null","","","","","","","","","","","","","","","","","","","","","","",""
"","do_trial","126","705422","0.0-73.0-0.0","333.89999997615814","","","","","","","","51","1,0,0","0","mountain","18","probe-13","0.7094534279955632","0.32419374187195","0.06189963477537946","0","","","","","","","",""
"","html-keyboard-response","127","706439","0.0-73.0-1.0","null","<p></p>","null","","","","","","","","","","","","","","","","","","","","","","",""
"","do_trial","128","711348","0.0-74.0-0.0","351.60000002384186","","","","","","","","50","1,0,0","0","mountain","19","probe-206","0.7228470798111547","0.27939092234494545","0.28457186375431903","0","","","","","","","",""
"","html-keyboard-response","129","712356","0.0-74.0-1.0","null","<p></p>","null","","","","","","","","","","","","","","","","","","","","","","",""
"","do_trial","130","717904","0.0-75.0-0.0","983.5","","","","","","","","49","0,1,1","0","mountain","20","probe-205","0.6062210016078738","0.36115306381479345","0.1690026998577609","0","","","","","","","",""
"","html-keyboard-response","131","718918","0.0-75.0-1.0","null","<p></p>","null","","","","","","","","","","","","","","","","","","","","","","",""
"","do_trial","132","723787","0.0-76.0-0.0","309.5","","","","","","","","50","0,0,0","0","mountain","21","probe-156","0.5792042565409531","0.38299965893245214","0.18858581993532453","0","","","","","","","",""
"","html-keyboard-response","133","724793","0.0-76.0-1.0","null","<p></p>","null","","","","","","","","","","","","","","","","","","","","","","",""
"","do_trial","134","729709","0.0-77.0-0.0","347.80000001192093","","","","","","","","51","0,1,0","0","mountain","22","probe-114","0.5774657035947317","0.42171181194469126","0.08469353884727909","0","","","","","","","",""
"","html-keyboard-response","135","730715","0.0-77.0-1.0","null","<p></p>","null","","","","","","","","","","","","","","","","","","","","","","",""
"","do_trial","136","735946","0.0-78.0-0.0","675.8000000119209","","","","","","","","49","0,0,0","0","mountain","23","probe-60","0.43411280276437714","0.4724148406298596","0.12001494543463395","0","","","","","","","",""
"","html-keyboard-response","137","736959","0.0-78.0-1.0","null","<p></p>","null","","","","","","","","","","","","","","","","","","","","","","",""
"","do_trial","138","742181","0.0-79.0-0.0","659.1000000238419","","","","","","","","50","1,1,0","0","mountain","24","probe-130","0.5694852958136556","0.34894557176178675","0.22546262483211674","1","","","","","","","",""
"","html-keyboard-response","139","743196","0.0-79.0-1.0","null","<p></p>","null","","","","","","","","","","","","","","","","","","","","","","",""
"","do_trial","140","748311","0.0-80.0-0.0","559.8000000119209","","","","","","","","50","0,0,0","0","mountain","25","probe-223","0.4977056699106859","0.36985058994152425","0.14294800123373963","0","","","","","","","",""
"","html-keyboard-response","141","749319","0.0-80.0-1.0","null","<p></p>","null","","","","","","","","","","","","","","","","","","","","","","",""
"","do_trial","142","754823","0.0-81.0-0.0","931.3999999761581","","","","","","","","51","0,0,0","0","mountain","26","probe-34","0.4334429285860361","0.3510224573739489","0.053599295512167765","0","","","","","","","",""
"","html-keyboard-response","143","755836","0.0-81.0-1.0","null","<p></p>","null","","","","","","","","","","","","","","","","","","","","","","",""
"","do_trial","144","760779","0.0-82.0-0.0","386","","","","","","","","49","0,0,0","0","mountain","27","probe-215","0.47227731683083934","0.3059158903715197","0.13635799457108413","0","","","","","","","",""
"","html-keyboard-response","145","761787","0.0-82.0-1.0","null","<p></p>","null","","","","","","","","","","","","","","","","","","","","","","",""
"","do_trial","146","767024","0.0-83.0-0.0","661.4000000357628","","","","","","","","51","1,0,0","0","mountain","28","probe-90","0.550037298030406","0.3414980642443841","0.10833190822789272","0","","","","","","","",""
"","html-keyboard-response","147","768028","0.0-83.0-1.0","null","<p></p>","null","","","","","","","","","","","","","","","","","","","","","","",""
"","do_trial","148","773207","0.0-84.0-0.0","617.4000000357628","","","","","","","","51","1,1,0","0","mountain","29","probe-186","0.5962351059389152","0.37869946208071253","0.08199032682990087","0","","","","","","","",""
"","html-keyboard-response","149","774218","0.0-84.0-1.0","null","<p></p>","null","","","","","","","","","","","","","","","","","","","","","","",""
"","do_bye","150","775734","0.0-85.0-0.0","null","","","","","","","","null","","","","","","","","","","","","","","","","",""
"","break","151","786863","0.0-85.0-1.0","11127.800000011921","<div class='center'><p>Time to take a quick break! You have 2 minutes to rest, but you can move on sooner if you'd like.</p><p> Press the <b>space bar</b> to continue.</p></div>","32","","","","","","","","","","","","","","","","","","","","","","",""
"","do_travel","152","795883","0.0-86.0-0.0","null","","","","","","","","null","","","","","","","","","","","","","","","","",""
"","do_welcome","153","799903","0.0-86.0-1.0","null","","","","","","","","null","","","","","","","","","","","","","","","","",""
"","do_trial","154","805556","0.0-87.0-0.0","1093.199999988079","","","","","","","","51","1,0,0","1","highway","30","probe-126","1","0.11653375847952287","0.11322490315195653","0","","","","","","","",""
"","html-keyboard-response","155","806570","0.0-87.0-1.0","null","<p></p>","null","","","","","","","","","","","","","","","","","","","","","","",""
"","do_trial","156","811458","0.0-88.0-0.0","326.80000001192093","","","","","","","","49","1,0,0","1","highway","31","probe-132","1","0.1724330130498807","0.08463790720600997","1","","","","","","","",""
"","html-keyboard-response","157","812475","0.0-88.0-1.0","null","<p></p>","null","","","","","","","","","","","","","","","","","","","","","","",""
"","do_trial","158","817520","0.0-89.0-0.0","491.39999997615814","","","","","","","","50","1,1,0","1","highway","32","probe-128","1","0.2814088202109468","0.061851563239340115","1","","","","","","","",""
"","html-keyboard-response","159","818537","0.0-89.0-1.0","null","<p></p>","null","","","","","","","","","","","","","","","","","","","","","","",""
"","do_trial","160","823909","0.0-90.0-0.0","816.6000000238419","","","","","","","","51","1,0,1","1","highway","33","probe-116","0.9312414345833496","0.22559542845738137","0.23482009134479293","1","","","","","","","",""
"","html-keyboard-response","161","824924","0.0-90.0-1.0","null","<p></p>","null","","","","","","","","","","","","","","","","","","","","","","",""
"","do_trial","162","829951","0.0-91.0-0.0","461.2999999523163","","","","","","","","49","0,1,0","1","highway","34","probe-87","0.8826773456779511","0.19778318059994707","0.19668514161957326","0","","","","","","","",""
"","html-keyboard-response","163","830954","0.0-91.0-1.0","null","<p></p>","null","","","","","","","","","","","","","","","","","","","","","","",""
"","do_trial","164","836240","0.0-92.0-0.0","708.6000000238419","","","","","","","","51","1,0,0","1","highway","35","probe-35","0.9485960077535411","0.253893785086302","0.09098575377516291","0","","","","","","","",""
"","html-keyboard-response","165","837255","0.0-92.0-1.0","null","<p></p>","null","","","","","","","","","","","","","","","","","","","","","","",""
"","do_trial","166","842136","0.0-93.0-0.0","306","","","","","","","","50","1,0,0","1","highway","36","probe-198","0.9353715237586453","0.1469961075244701","0.12519895351740593","0","","","","","","","",""
"","html-keyboard-response","167","843142","0.0-93.0-1.0","null","<p></p>","null","","","","","","","","","","","","","","","","","","","","","","",""
"","do_trial","168","848051","0.0-94.0-0.0","341.9000000357628","","","","","","","","49","1,0,0","1","highway","37","probe-19","0.7408941806280877","0.18644816099055675","0.05700076990665469","1","","","","","","","",""
"","html-keyboard-response","169","849059","0.0-94.0-1.0","null","<p></p>","null","","","","","","","","","","","","","","","","","","","","","","",""
"","do_trial","170","854364","0.0-95.0-0.0","746.4000000357628","","","","","","","","51","1,1,0","1","highway","38","probe-144","0.6916708528001497","0.19112170430351355","0.07346979135732601","0","","","","","","","",""
"","html-keyboard-response","171","855381","0.0-95.0-1.0","null","<p></p>","null","","","","","","","","","","","","","","","","","","","","","","",""
"","do_trial","172","860604","0.0-96.0-0.0","651.5","","","","","","","","50","0,0,0","1","highway","39","probe-226","0.6939432769013304","0.3131927211122355","0.07587145702072698","0","","","","","","","",""
"","html-keyboard-response","173","861608","0.0-96.0-1.0","null","<p></p>","null","","","","","","","","","","","","","","","","","","","","","","",""
"","do_trial","174","866491","0.0-97.0-0.0","327","","","","","","","","51","1,1,0","1","highway","40","probe-57","0.7643085718885116","0.20161833937551116","0.15776892975255255","0","","","","","","","",""
"","html-keyboard-response","175","867506","0.0-97.0-1.0","null","<p></p>","null","","","","","","","","","","","","","","","","","","","","","","",""
"","do_trial","176","872380","0.0-98.0-0.0","319.19999998807907","","","","","","","","49","1,0,0","1","highway","41","probe-199","0.7426980844046562","0.14361643990676937","0.13998915251133265","1","","","","","","","",""
"","html-keyboard-response","177","873387","0.0-98.0-1.0","null","<p></p>","null","","","","","","","","","","","","","","","","","","","","","","",""
"","do_trial","178","878342","0.0-99.0-0.0","394.19999998807907","","","","","","","","49","0,1,1","1","highway","42","probe-171","0.5435689909848341","0.3870478642920771","0.3484680655600464","0","","","","","","","",""
"","html-keyboard-response","179","879353","0.0-99.0-1.0","null","<p></p>","null","","","","","","","","","","","","","","","","","","","","","","",""
"","do_trial","180","884209","0.0-100.0-0.0","291.5","","","","","","","","50","1,0,0","1","highway","43","probe-84","0.28890294986930365","0.6119826843375963","0.3695484426570754","0","","","","","","","",""
"","html-keyboard-response","181","885223","0.0-100.0-1.0","null","<p></p>","null","","","","","","","","","","","","","","","","","","","","","","",""
"","do_trial","182","890439","0.0-101.0-0.0","657.9000000357628","","","","","","","","51","0,1,0","1","highway","44","probe-71","0.1813992797334528","0.5394262445558703","0.3813206167377477","0","","","","","","","",""
"","html-keyboard-response","183","891444","0.0-101.0-1.0","null","<p></p>","null","","","","","","","","","","","","","","","","","","","","","","",""
"","do_trial","184","897150","0.0-102.0-0.0","1148.300000011921","","","","","","","","50","0,0,0","1","highway","45","probe-141","0.09316272513829478","0.5152716005056308","0.436673959091597","0","","","","","","","",""
"","html-keyboard-response","185","898159","0.0-102.0-1.0","null","<p></p>","null","","","","","","","","","","","","","","","","","","","","","","",""
"","do_trial","186","903490","0.0-103.0-0.0","773","","","","","","","","49","0,0,0","1","highway","46","probe-110","0.11743611787292085","0.43635860691245965","0.4296144763979379","0","","","","","","","",""
"","html-keyboard-response","187","904523","0.0-103.0-1.0","null","<p></p>","null","","","","","","","","","","","","","","","","","","","","","","",""
"","do_trial","188","909940","0.0-104.0-0.0","873.7000000476837","","","","","","","","50","0,0,0","1","highway","47","probe-06","0.1120668176550004","0.4524786864153393","0.36000409606962114","0","","","","","","","",""
"","html-keyboard-response","189","910943","0.0-104.0-1.0","null","<p></p>","null","","","","","","","","","","","","","","","","","","","","","","",""
"","do_trial","190","915894","0.0-105.0-0.0","380.80000001192093","","","","","","","","51","0,0,0","1","highway","48","probe-194","0.07570053207294296","0.47881975046088643","0.38402080298665725","0","","","","","","","",""
"","html-keyboard-response","191","916901","0.0-105.0-1.0","null","<p></p>","null","","","","","","","","","","","","","","","","","","","","","","",""
"","do_trial","192","922085","0.0-106.0-0.0","620.7000000476837","","","","","","","","49","0,1,1","1","highway","49","probe-92","0.071138934494879","0.634861604005685","0.25250536004834917","0","","","","","","","",""
"","html-keyboard-response","193","923092","0.0-106.0-1.0","null","<p></p>","null","","","","","","","","","","","","","","","","","","","","","","",""
"","do_trial","194","927997","0.0-107.0-0.0","338.69999998807907","","","","","","","","50","1,1,0","1","highway","50","probe-200","0.18937945816314028","0.6090628308817665","0.34801546213042694","1","","","","","","","",""
"","html-keyboard-response","195","929011","0.0-107.0-1.0","null","<p></p>","null","","","","","","","","","","","","","","","","","","","","","","",""
"","do_trial","196","933962","0.0-108.0-0.0","398.10000002384186","","","","","","","","49","0,1,1","1","highway","51","probe-103","0.11791941657071559","0.5166792761239047","0.35967813069478455","0","","","","","","","",""
"","html-keyboard-response","197","934973","0.0-108.0-1.0","null","<p></p>","null","","","","","","","","","","","","","","","","","","","","","","",""
"","do_trial","198","940046","0.0-109.0-0.0","519.1000000238419","","","","","","","","51","0,1,0","1","highway","52","probe-14","0.06151272171068179","0.531688358613555","0.40941581498619045","0","","","","","","","",""
"","html-keyboard-response","199","941056","0.0-109.0-1.0","null","<p></p>","null","","","","","","","","","","","","","","","","","","","","","","",""
"","do_trial","200","945995","0.0-110.0-0.0","381.19999998807907","","","","","","","","50","0,0,0","1","highway","53","probe-46","0.06613961149106819","0.6957560796589649","0.37221419506598735","0","","","","","","","",""
"","html-keyboard-response","201","946999","0.0-110.0-1.0","null","<p></p>","null","","","","","","","","","","","","","","","","","","","","","","",""
"","do_trial","202","951833","0.0-111.0-0.0","271.10000002384186","","","","","","","","49","0,0,0","1","highway","54","probe-66","0.057420424966472046","0.6858026211007027","0.4543211401625652","0","","","","","","","",""
"","html-keyboard-response","203","952849","0.0-111.0-1.0","null","<p></p>","null","","","","","","","","","","","","","","","","","","","","","","",""
"","do_trial","204","957747","0.0-112.0-0.0","333.5","","","","","","","","49","1,1,0","1","highway","55","probe-179","0.15518032247690733","0.7115899664805424","0.32846246947064806","1","","","","","","","",""
"","html-keyboard-response","205","958750","0.0-112.0-1.0","null","<p></p>","null","","","","","","","","","","","","","","","","","","","","","","",""
"","do_trial","206","964358","0.0-113.0-0.0","1037.5","","","","","","","","49","0,0,0","1","highway","56","probe-142","0.20117954484852557","0.6415358860795962","0.3456774505754123","0","","","","","","","",""
"","html-keyboard-response","207","965365","0.0-113.0-1.0","null","<p></p>","null","","","","","","","","","","","","","","","","","","","","","","",""
"","do_trial","208","970231","0.0-114.0-0.0","309.2999999523163","","","","","","","","51","0,1,0","1","highway","57","probe-26","0.1830827634776014","0.6135775542814944","0.2946056380918921","0","","","","","","","",""
"","html-keyboard-response","209","971237","0.0-114.0-1.0","null","<p></p>","null","","","","","","","","","","","","","","","","","","","","","","",""
"","do_trial","210","976377","0.0-115.0-0.0","584.8000000119209","","","","","","","","51","0,1,0","1","highway","58","probe-119","0.058931932080730595","0.753255523965665","0.4118435564070645","0","","","","","","","",""
"","html-keyboard-response","211","977390","0.0-115.0-1.0","null","<p></p>","null","","","","","","","","","","","","","","","","","","","","","","",""
"","do_trial","212","982543","0.0-116.0-0.0","592","","","","","","","","50","0,1,0","1","highway","59","probe-158","0.09570941570553411","0.6436931419149753","0.26014268325744083","1","","","","","","","",""
"","html-keyboard-response","213","983552","0.0-116.0-1.0","null","<p></p>","null","","","","","","","","","","","","","","","","","","","","","","",""
"","do_trial","214","988449","0.0-117.0-0.0","333.60000002384186","","","","","","","","50","0,0,0","1","highway","60","probe-212","0.2314733461592441","0.4833758345974575","0.19963188752635075","0","","","","","","","",""
"","html-keyboard-response","215","989463","0.0-117.0-1.0","null","<p></p>","null","","","","","","","","","","","","","","","","","","","","","","",""
"","do_trial","216","994969","0.0-118.0-0.0","939.8999999761581","","","","","","","","50","0,1,0","1","highway","61","probe-195","0.0742803627350056","0.4203195224332562","0.09496864316144792","1","","","","","","","",""
"","html-keyboard-response","217","995971","0.0-118.0-1.0","null","<p></p>","null","","","","","","","","","","","","","","","","","","","","","","",""
"","do_trial","218","1000845","0.0-119.0-0.0","303.39999997615814","","","","","","","","49","0,0,0","1","highway","62","probe-108","0.11936819731042972","0.5178453836106243","0.25482407192519707","0","","","","","","","",""
"","html-keyboard-response","219","1001849","0.0-119.0-1.0","null","<p></p>","null","","","","","","","","","","","","","","","","","","","","","","",""
"","do_trial","220","1006708","0.0-120.0-0.0","291.5","","","","","","","","51","0,1,1","1","highway","63","probe-81","0.07371869366470692","0.6234658149212113","0.23377474965569384","1","","","","","","","",""
"","html-keyboard-response","221","1007714","0.0-120.0-1.0","null","<p></p>","null","","","","","","","","","","","","","","","","","","","","","","",""
"","do_trial","222","1012629","0.0-121.0-0.0","345.69999998807907","","","","","","","","50","0,0,0","1","highway","64","probe-64","0.05667686929012722","0.5340209756950587","0.24451254811514678","0","","","","","","","",""
"","html-keyboard-response","223","1013638","0.0-121.0-1.0","null","<p></p>","null","","","","","","","","","","","","","","","","","","","","","","",""
"","do_trial","224","1018698","0.0-122.0-0.0","497.2000000476837","","","","","","","","50","1,1,0","1","highway","65","probe-173","0.050436645450453364","0.5572231830675891","0.21334803464143456","1","","","","","","","",""
"","html-keyboard-response","225","1019708","0.0-122.0-1.0","null","<p></p>","null","","","","","","","","","","","","","","","","","","","","","","",""
"","do_trial","226","1024667","0.0-123.0-0.0","394.9000000357628","","","","","","","","50","0,0,1","1","highway","66","probe-73","0.09521727412835793","0.6507019369197632","0.3383109846691544","0","","","","","","","",""
"","html-keyboard-response","227","1025679","0.0-123.0-1.0","null","<p></p>","null","","","","","","","","","","","","","","","","","","","","","","",""
"","do_trial","228","1030524","0.0-124.0-0.0","285.5","","","","","","","","49","0,1,0","1","highway","67","probe-02","0.05972106169576289","0.7575031268747552","0.24781587504117902","0","","","","","","","",""
"","html-keyboard-response","229","1031539","0.0-124.0-1.0","null","<p></p>","null","","","","","","","","","","","","","","","","","","","","","","",""
"","do_trial","230","1036605","0.0-125.0-0.0","503","","","","","","","","51","0,0,0","1","highway","68","probe-216","0.12583425762814948","0.4387505973490314","0.26083854437922094","0","","","","","","","",""
"","html-keyboard-response","231","1037621","0.0-125.0-1.0","null","<p></p>","null","","","","","","","","","","","","","","","","","","","","","","",""
"","do_trial","232","1042808","0.0-126.0-0.0","628.1999999880791","","","","","","","","51","0,1,1","1","highway","69","probe-07","0.17596388610607755","0.619021351815336","0.3996691631732324","1","","","","","","","",""
"","html-keyboard-response","233","1043821","0.0-126.0-1.0","null","<p></p>","null","","","","","","","","","","","","","","","","","","","","","","",""
"","do_bye","234","1045328","0.0-127.0-0.0","null","","","","","","","","null","","","","","","","","","","","","","","","","",""
"","break","235","1046578","0.0-127.0-1.0","1248.6000000238419","<div class='center'><p>Time to take a quick break! You have 2 minutes to rest, but you can move on sooner if you'd like.</p><p> Press the <b>space bar</b> to continue.</p></div>","32","","","","","","","","","","","","","","","","","","","","","","",""
"","do_travel","236","1055595","0.0-128.0-0.0","null","","","","","","","","null","","","","","","","","","","","","","","","","",""
"","do_welcome","237","1059605","0.0-128.0-1.0","null","","","","","","","","null","","","","","","","","","","","","","","","","",""
"","do_trial","238","1065295","0.0-129.0-0.0","1113.1000000238419","","","","","","","","50","0,1,1","2","city","70","probe-189","0.21572282784394464","1","0.316045193954075","1","","","","","","","",""
"","html-keyboard-response","239","1066308","0.0-129.0-1.0","null","<p></p>","null","","","","","","","","","","","","","","","","","","","","","","",""
"","do_trial","240","1071306","0.0-130.0-0.0","418.10000002384186","","","","","","","","51","0,1,1","2","city","71","probe-97","0.1329167182193431","1","0.4443248723197617","1","","","","","","","",""
"","html-keyboard-response","241","1072316","0.0-130.0-1.0","null","<p></p>","null","","","","","","","","","","","","","","","","","","","","","","",""
"","do_trial","242","1077178","0.0-131.0-0.0","298.2999999523163","","","","","","","","49","0,1,0","2","city","72","probe-143","0.062453838719754684","0.833950562380904","0.3044091634362936","0","","","","","","","",""
"","html-keyboard-response","243","1078191","0.0-131.0-1.0","null","<p></p>","null","","","","","","","","","","","","","","","","","","","","","","",""
"","do_trial","244","1083085","0.0-132.0-0.0","342.30000001192093","","","","","","","","49","0,1,0","2","city","73","probe-152","0.05382369200841034","0.657448696706159","0.38029249879898985","0","","","","","","","",""
"","html-keyboard-response","245","1084089","0.0-132.0-1.0","null","<p></p>","null","","","","","","","","","","","","","","","","","","","","","","",""
"","do_trial","246","1089030","0.0-133.0-0.0","379.30000001192093","","","","","","","","50","0,0,1","2","city","74","probe-168","0.0576364318640609","0.5679171925692015","0.2973981029793074","0","","","","","","","",""
"","html-keyboard-response","247","1090048","0.0-133.0-1.0","null","<p></p>","null","","","","","","","","","","","","","","","","","","","","","","",""
"","do_trial","248","1096186","0.0-134.0-0.0","1567.5","","","","","","","","51","0,1,0","2","city","75","probe-228","0.09839800218525963","0.622425812616062","0.44600691194944353","0","","","","","","","",""
"","html-keyboard-response","249","1097203","0.0-134.0-1.0","null","<p></p>","null","","","","","","","","","","","","","","","","","","","","","","",""
"","do_trial","250","1102274","0.0-135.0-0.0","504.80000001192093","","","","","","","","49","0,0,1","2","city","76","probe-117","0.19495287226681293","0.4698187471642716","0.4775759840843417","0","","","","","","","",""
"","html-keyboard-response","251","1103281","0.0-135.0-1.0","null","<p></p>","null","","","","","","","","","","","","","","","","","","","","","","",""
"","do_trial","252","1108161","0.0-136.0-0.0","317.9000000357628","","","","","","","","50","0,1,1","2","city","77","probe-138","0.17315046230798598","0.5842144887201267","0.4610734629135076","1","","","","","","","",""
"","html-keyboard-response","253","1109169","0.0-136.0-1.0","null","<p></p>","null","","","","","","","","","","","","","","","","","","","","","","",""
"","do_trial","254","1114100","0.0-137.0-0.0","375.30000001192093","","","","","","","","51","0,0,0","2","city","78","probe-11","0.3068096910436369","0.49520129659594864","0.33985490927164336","0","","","","","","","",""
"","html-keyboard-response","255","1115115","0.0-137.0-1.0","null","<p></p>","null","","","","","","","","","","","","","","","","","","","","","","",""
"","do_trial","256","1120080","0.0-138.0-0.0","389","","","","","","","","50","0,0,1","2","city","79","probe-224","0.2584335769619942","0.7383449529384274","0.2532706354014692","0","","","","","","","",""
"","html-keyboard-response","257","1121097","0.0-138.0-1.0","null","<p></p>","null","","","","","","","","","","","","","","","","","","","","","","",""
"","do_trial","258","1125988","0.0-139.0-0.0","322.5999999642372","","","","","","","","49","0,1,0","2","city","80","probe-187","0.2498334667361207","0.7284482152228589","0.27749609372402034","0","","","","","","","",""
"","html-keyboard-response","259","1127005","0.0-139.0-1.0","null","<p></p>","null","","","","","","","","","","","","","","","","","","","","","","",""
"","do_trial","260","1131949","0.0-140.0-0.0","371.30000001192093","","","","","","","","50","0,1,1","2","city","81","probe-151","0.21115124004657165","0.7944904851219363","0.280283256410489","1","","","","","","","",""
"","html-keyboard-response","261","1132957","0.0-140.0-1.0","null","<p></p>","null","","","","","","","","","","","","","","","","","","","","","","",""
"","do_trial","262","1137879","0.0-141.0-0.0","353.30000001192093","","","","","","","","51","0,0,0","2","city","82","probe-39","0.28315253900317217","0.5313641196096409","0.35192118478564743","0","","","","","","","",""
"","html-keyboard-response","263","1138886","0.0-141.0-1.0","null","<p></p>","null","","","","","","","","","","","","","","","","","","","","","","",""
"","do_trial","264","1143868","0.0-142.0-0.0","408","","","","","","","","49","0,0,0","2","city","83","probe-155","0.17733345059095282","0.41898930685293645","0.4609400538233744","0","","","","","","","",""
"","html-keyboard-response","265","1144885","0.0-142.0-1.0","null","<p></p>","null","","","","","","","","","","","","","","","","","","","","","","",""
"","do_trial","266","1150396","0.0-143.0-0.0","938.3000000119209","","","","","","","","50","0,1,1","2","city","84","probe-213","0.0690807539033287","0.45154728587113674","0.3824325096289915","1","","","","","","","",""
"","html-keyboard-response","267","1151410","0.0-143.0-1.0","null","<p></p>","null","","","","","","","","","","","","","","","","","","","","","","",""
"","do_trial","268","1156377","0.0-144.0-0.0","396.89999997615814","","","","","","","","51","0,0,0","2","city","85","probe-118","0.09289652677018782","0.3464881443084415","0.47022178334811415","0","","","","","","","",""
"","html-keyboard-response","269","1157394","0.0-144.0-1.0","null","<p></p>","null","","","","","","","","","","","","","","","","","","","","","","",""
"","do_trial","270","1162287","0.0-145.0-0.0","315.19999998807907","","","","","","","","49","0,0,0","2","city","86","probe-174","0.0572647694901387","0.42920127968782973","0.6426692635016507","0","","","","","","","",""
"","html-keyboard-response","271","1163302","0.0-145.0-1.0","null","<p></p>","null","","","","","","","","","","","","","","","","","","","","","","",""
"","do_trial","272","1168324","0.0-146.0-0.0","462.30000001192093","","","","","","","","49","1,1,1","2","city","87","probe-188","0.09028088677499035","0.4364906913975192","0.7021604592368879","1","","","","","","","",""
"","html-keyboard-response","273","1169327","0.0-146.0-1.0","null","<p></p>","null","","","","","","","","","","","","","","","","","","","","","","",""
"","do_trial","274","1174280","0.0-147.0-0.0","385.10000002384186","","","","","","","","51","0,1,0","2","city","88","probe-202","0.10552679471740437","0.3380107343353577","0.6832708489602041","0","","","","","","","",""
"","html-keyboard-response","275","1175293","0.0-147.0-1.0","null","<p></p>","null","","","","","","","","","","","","","","","","","","","","","","",""
"","do_trial","276","1180178","0.0-148.0-0.0","322.5","","","","","","","","50","0,0,1","2","city","89","probe-72","0.186894888544117","0.2999762997264977","0.5687565501792965","0","","","","","","","",""
"","html-keyboard-response","277","1181190","0.0-148.0-1.0","null","<p></p>","null","","","","","","","","","","","","","","","","","","","","","","",""
"","do_trial","278","1186100","0.0-149.0-0.0","351.60000002384186","","","","","","","","49","0,0,1","2","city","90","probe-32","0.22392893713436693","0.30846856226269076","0.47221962010214635","0","","","","","","","",""
"","html-keyboard-response","279","1187108","0.0-149.0-1.0","null","<p></p>","null","","","","","","","","","","","","","","","","","","","","","","",""
"","do_trial","280","1192093","0.0-150.0-0.0","424.19999998807907","","","","","","","","51","0,0,1","2","city","91","probe-22","0.11405651431676381","0.21062641137264887","0.5741916600936823","1","","","","","","","",""
"","html-keyboard-response","281","1193104","0.0-150.0-1.0","null","<p></p>","null","","","","","","","","","","","","","","","","","","","","","","",""
"","do_trial","282","1198599","0.0-151.0-0.0","935.8000000119209","","","","","","","","49","0,0,0","2","city","92","probe-149","0.0508246229755817","0.23664873291210078","0.5982825740605092","0","","","","","","","",""
"","html-keyboard-response","283","1199609","0.0-151.0-1.0","null","<p></p>","null","","","","","","","","","","","","","","","","","","","","","","",""
"","do_trial","284","1204540","0.0-152.0-0.0","357.5","","","","","","","","50","0,0,1","2","city","93","probe-18","0.12388521597543008","0.2349341597032955","0.5378182251011983","0","","","","","","","",""
"","html-keyboard-response","285","1205550","0.0-152.0-1.0","null","<p></p>","null","","","","","","","","","","","","","","","","","","","","","","",""
"","do_trial","286","1210512","0.0-153.0-0.0","405","","","","","","","","51","0,0,1","2","city","94","probe-162","0.05174245553567202","0.25217011454738414","0.5052339635867732","1","","","","","","","",""
"","html-keyboard-response","287","1211522","0.0-153.0-1.0","null","<p></p>","null","","","","","","","","","","","","","","","","","","","","","","",""
"","do_trial","288","1216684","0.0-154.0-0.0","583.6000000238419","","","","","","","","49","0,1,1","2","city","95","probe-78","0.07379164622408171","0.356370205808736","0.5250314008387104","0","","","","","","","",""
"","html-keyboard-response","289","1217693","0.0-154.0-1.0","null","<p></p>","null","","","","","","","","","","","","","","","","","","","","","","",""
"","do_trial","290","1222608","0.0-155.0-0.0","346.60000002384186","","","","","","","","51","0,1,1","2","city","96","probe-30","0.08501724945414196","0.3261521273122693","0.6052115937035069","1","","","","","","","",""
"","html-keyboard-response","291","1223611","0.0-155.0-1.0","null","<p></p>","null","","","","","","","","","","","","","","","","","","","","","","",""
"","do_trial","292","1228301","0.0-156.0-0.0","132.5","","","","","","","","50","0,1,1","2","city","97","probe-27","0.16854608933793216","0.3647860275994947","0.7074576104033902","1","","","","","","","",""
"","html-keyboard-response","293","1229306","0.0-156.0-1.0","null","<p></p>","null","","","","","","","","","","","","","","","","","","","","","","",""
"","do_trial","294","1234186","0.0-157.0-0.0","320.30000001192093","","","","","","","","50","0,0,1","2","city","98","probe-137","0.11102678011306517","0.37596378374132605","0.7485904959448237","0","","","","","","","",""
"","html-keyboard-response","295","1235202","0.0-157.0-1.0","null","<p></p>","null","","","","","","","","","","","","","","","","","","","","","","",""
"","do_trial","296","1240030","0.0-158.0-0.0","257.89999997615814","","","","","","","","51","0,1,1","2","city","99","probe-109","0.10013483204093263","0.22107791331914103","0.7101611190070394","1","","","","","","","",""
"","html-keyboard-response","297","1241040","0.0-158.0-1.0","null","<p></p>","null","","","","","","","","","","","","","","","","","","","","","","",""
"","do_trial","298","1246033","0.0-159.0-0.0","422.60000002384186","","","","","","","","49","0,1,0","2","city","100","probe-41","0.1309643692845889","0.24920620762709772","0.614640353986918","0","","","","","","","",""
"","html-keyboard-response","299","1247036","0.0-159.0-1.0","null","<p></p>","null","","","","","","","","","","","","","","","","","","","","","","",""
"","do_trial","300","1251802","0.0-160.0-0.0","217.30000001192093","","","","","","","","51","0,0,1","2","city","101","probe-65","0.20807875016822203","0.391994032847651","0.598583168848879","1","","","","","","","",""
"","html-keyboard-response","301","1252814","0.0-160.0-1.0","null","<p></p>","null","","","","","","","","","","","","","","","","","","","","","","",""
"","do_trial","302","1257640","0.0-161.0-0.0","259.10000002384186","","","","","","","","50","1,1,1","2","city","102","probe-102","0.2405413276191056","0.39807320060398704","0.7227843789620942","1","","","","","","","",""
"","html-keyboard-response","303","1258654","0.0-161.0-1.0","null","<p></p>","null","","","","","","","","","","","","","","","","","","","","","","",""
"","do_trial","304","1263807","0.0-162.0-0.0","596.2999999523163","","","","","","","","51","0,1,1","2","city","103","probe-16","0.18270174665669536","0.3665479489203421","0.7513708905904787","1","","","","","","","",""
"","html-keyboard-response","305","1264816","0.0-162.0-1.0","null","<p></p>","null","","","","","","","","","","","","","","","","","","","","","","",""
"","do_trial","306","1269950","0.0-163.0-0.0","572.5","","","","","","","","50","0,1,1","2","city","104","probe-28","0.12176056318212154","0.30221467919044853","0.8690242500281378","1","","","","","","","",""
"","html-keyboard-response","307","1270960","0.0-163.0-1.0","null","<p></p>","null","","","","","","","","","","","","","","","","","","","","","","",""
"","do_trial","308","1276082","0.0-164.0-0.0","545.3000000119209","","","","","","","","51","0,0,1","2","city","105","probe-99","0.05762446129747814","0.2961385772786144","0.7162318236713497","1","","","","","","","",""
"","html-keyboard-response","309","1277096","0.0-164.0-1.0","null","<p></p>","null","","","","","","","","","","","","","","","","","","","","","","",""
"","do_trial","310","1282091","0.0-165.0-0.0","423.60000002384186","","","","","","","","50","0,1,1","2","city","106","probe-221","0.11700942362148484","0.3347679813724919","0.7943731783083464","1","","","","","","","",""
"","html-keyboard-response","311","1283100","0.0-165.0-1.0","null","<p></p>","null","","","","","","","","","","","","","","","","","","","","","","",""
"","do_trial","312","1287944","0.0-166.0-0.0","278.69999998807907","","","","","","","","51","1,1,0","2","city","107","probe-51","0.15554155591367974","0.4060058438970284","0.6587777655651936","0","","","","","","","",""
"","html-keyboard-response","313","1288960","0.0-166.0-1.0","null","<p></p>","null","","","","","","","","","","","","","","","","","","","","","","",""
"","do_trial","314","1293766","0.0-167.0-0.0","230.80000001192093","","","","","","","","50","0,0,0","2","city","108","probe-101","0.051500279901080435","0.3670913933468494","0.5065385936937855","0","","","","","","","",""
"","html-keyboard-response","315","1294772","0.0-167.0-1.0","null","<p></p>","null","","","","","","","","","","","","","","","","","","","","","","",""
"","do_trial","316","1299801","0.0-168.0-0.0","457.5","","","","","","","","49","0,0,0","2","city","109","probe-146","0.14701532616249943","0.24794766537072974","0.5192089207405217","0","","","","","","","",""
"","html-keyboard-response","317","1300818","0.0-168.0-1.0","null","<p></p>","null","","","","","","","","","","","","","","","","","","","","","","",""
"","do_bye","318","1302334","0.0-169.0-0.0","null","","","","","","","","null","","","","","","","","","","","","","","","","",""
"","break","319","1307210","0.0-169.0-1.0","4874","<div class='center'><p>Time to take a quick break! You have 2 minutes to rest, but you can move on sooner if you'd like.</p><p> Press the <b>space bar</b> to continue.</p></div>","32","","","","","","","","","","","","","","","","","","","","","","",""
"","do_travel","320","1316217","0.0-170.0-0.0","null","","","","","","","","null","","","","","","","","","","","","","","","","",""
"","do_welcome","321","1320232","0.0-170.0-1.0","null","","","","","","","","null","","","","","","","","","","","","","","","","",""
"","do_trial","322","1327648","0.0-171.0-0.0","2846.699999988079","","","","","","","","50","0,0,1","3","forest","110","probe-203","0.13416214593444312","0.18491422435934973","1","0","","","","","","","",""
"","html-keyboard-response","323","1328664","0.0-171.0-1.0","null","<p></p>","null","","","","","","","","","","","","","","","","","","","","","","",""
"","do_trial","324","1333685","0.0-172.0-0.0","465","","","","","","","","51","0,0,1","3","forest","111","probe-05","0.24254049692653173","0.2902715274749549","1","1","","","","","","","",""
"","html-keyboard-response","325","1334702","0.0-172.0-1.0","null","<p></p>","null","","","","","","","","","","","","","","","","","","","","","","",""
"","do_trial","326","1339623","0.0-173.0-0.0","352.89999997615814","","","","","","","","49","0,1,0","3","forest","112","probe-145","0.2737534746654307","0.29710648870838435","0.9418352742135401","0","","","","","","","",""
"","html-keyboard-response","327","1340628","0.0-173.0-1.0","null","<p></p>","null","","","","","","","","","","","","","","","","","","","","","","",""
"","do_trial","328","1345615","0.0-174.0-0.0","434.39999997615814","","","","","","","","51","1,0,0","3","forest","113","probe-79","0.2912731145875757","0.1528015870313549","0.783244276444229","0","","","","","","","",""
"","html-keyboard-response","329","1346622","0.0-174.0-1.0","null","<p></p>","null","","","","","","","","","","","","","","","","","","","","","","",""
"","do_trial","330","1351560","0.0-175.0-0.0","360.69999998807907","","","","","","","","50","0,0,1","3","forest","114","probe-192","0.22641774377420276","0.09075546801093096","0.6291689702904566","0","","","","","","","",""
"","html-keyboard-response","331","1352567","0.0-175.0-1.0","null","<p></p>","null","","","","","","","","","","","","","","","","","","","","","","",""
"","do_trial","332","1357764","0.0-176.0-0.0","622.5","","","","","","","","49","0,1,1","3","forest","115","probe-25","0.3241534024109856","0.1750726932582835","0.6638705653182971","0","","","","","","","",""
"","html-keyboard-response","333","1358772","0.0-176.0-1.0","null","<p></p>","null","","","","","","","","","","","","","","","","","","","","","","",""
"","do_trial","334","1363812","0.0-177.0-0.0","466.5","","","","","","","","51","1,1,1","3","forest","116","probe-164","0.2544701887379027","0.22783810554958045","0.6737748855552582","1","","","","","","","",""
"","html-keyboard-response","335","1364815","0.0-177.0-1.0","null","<p></p>","null","","","","","","","","","","","","","","","","","","","","","","",""
"","do_trial","336","1370050","0.0-178.0-0.0","667.6999999880791","","","","","","","","51","0,0,0","3","forest","117","probe-56","0.19133310845905843","0.23774710670939095","0.6276614042825053","0","","","","","","","",""
"","html-keyboard-response","337","1371066","0.0-178.0-1.0","null","<p></p>","null","","","","","","","","","","","","","","","","","","","","","","",""
"","do_trial","338","1376196","0.0-179.0-0.0","560.6999999880791","","","","","","","","50","0,0,0","3","forest","118","probe-184","0.06153915582309999","0.5149622380777978","0.6071454757203834","0","","","","","","","",""
"","html-keyboard-response","339","1377210","0.0-179.0-1.0","null","<p></p>","null","","","","","","","","","","","","","","","","","","","","","","",""
"","do_trial","340","1382222","0.0-180.0-0.0","446.5","","","","","","","","51","0,0,1","3","forest","119","probe-210","0.09035354597673335","0.4001238594294989","0.5701473255540652","1","","","","","","","",""
"","html-keyboard-response","341","1383234","0.0-180.0-1.0","null","<p></p>","null","","","","","","","","","","","","","","","","","","","","","","",""
"","do_trial","342","1388557","0.0-181.0-0.0","758.3999999761581","","","","","","","","49","0,1,0","3","forest","120","probe-100","0.14258253699045956","0.38031234047323054","0.5234294833839327","0","","","","","","","",""
"","html-keyboard-response","343","1389571","0.0-181.0-1.0","null","<p></p>","null","","","","","","","","","","","","","","","","","","","","","","",""
"","do_trial","344","1394979","0.0-182.0-0.0","854.5","","","","","","","","49","0,0,0","3","forest","121","probe-24","0.0896523304399313","0.31090948031801535","0.5189345966489205","0","","","","","","","",""
"","html-keyboard-response","345","1395994","0.0-182.0-1.0","null","<p></p>","null","","","","","","","","","","","","","","","","","","","","","","",""
"","do_trial","346","1400989","0.0-183.0-0.0","437.5999999642372","","","","","","","","50","0,0,0","3","forest","122","probe-52","0.10891082738334727","0.500029976426393","0.4639126587218709","0","","","","","","","",""
"","html-keyboard-response","347","1401996","0.0-183.0-1.0","null","<p></p>","null","","","","","","","","","","","","","","","","","","","","","","",""
"","do_trial","348","1407312","0.0-184.0-0.0","764.3000000119209","","","","","","","","51","0,1,1","3","forest","123","probe-112","0.17143791884308482","0.6429644296878761","0.4519281401871059","1","","","","","","","",""
"","html-keyboard-response","349","1408315","0.0-184.0-1.0","null","<p></p>","null","","","","","","","","","","","","","","","","","","","","","","",""
"","do_trial","350","1413570","0.0-185.0-0.0","693.8000000119209","","","","","","","","51","0,1,1","3","forest","124","probe-45","0.2374816025347127","0.6868274342413679","0.45767265444299454","1","","","","","","","",""
"","html-keyboard-response","351","1414583","0.0-185.0-1.0","null","<p></p>","null","","","","","","","","","","","","","","","","","","","","","","",""
"","do_trial","352","1419460","0.0-186.0-0.0","301.4000000357628","","","","","","","","51","1,0,0","3","forest","125","probe-58","0.21076999716467604","0.6663854677814242","0.30726636429480614","0","","","","","","","",""
"","html-keyboard-response","353","1420475","0.0-186.0-1.0","null","<p></p>","null","","","","","","","","","","","","","","","","","","","","","","",""
"","do_trial","354","1425207","0.0-187.0-0.0","161.39999997615814","","","","","","","","51","0,1,0","3","forest","126","probe-70","0.1897177426081067","0.4960644913937993","0.2230107112844798","0","","","","","","","",""
"","html-keyboard-response","355","1426223","0.0-187.0-1.0","null","<p></p>","null","","","","","","","","","","","","","","","","","","","","","","",""
"","do_trial","356","1431155","0.0-188.0-0.0","380.69999998807907","","","","","","","","50","0,1,1","3","forest","127","probe-59","0.06069299615937196","0.4913405478952846","0.356809172595283","1","","","","","","","",""
"","html-keyboard-response","357","1432162","0.0-188.0-1.0","null","<p></p>","null","","","","","","","","","","","","","","","","","","","","","","",""
"","do_trial","358","1437685","0.0-189.0-0.0","963.5","","","","","","","","49","0,1,0","3","forest","128","probe-40","0.07604436233190873","0.5352672058646845","0.2519329594754904","0","","","","","","","",""
"","html-keyboard-response","359","1438691","0.0-189.0-1.0","null","<p></p>","null","","","","","","","","","","","","","","","","","","","","","","",""
"","do_trial","360","1443736","0.0-190.0-0.0","478.30000001192093","","","","","","","","51","0,0,0","3","forest","129","probe-190","0.1292122575988927","0.6128755381149621","0.24204549032122763","0","","","","","","","",""
"","html-keyboard-response","361","1444738","0.0-190.0-1.0","null","<p></p>","null","","","","","","","","","","","","","","","","","","","","","","",""
"","do_trial","362","1449719","0.0-191.0-0.0","415.39999997615814","","","","","","","","49","0,1,0","3","forest","130","probe-161","0.07292609961733738","0.4939262492279545","0.2870395805337493","0","","","","","","","",""
"","html-keyboard-response","363","1450728","0.0-191.0-1.0","null","<p></p>","null","","","","","","","","","","","","","","","","","","","","","","",""
"","do_trial","364","1455529","0.0-192.0-0.0","252.19999998807907","","","","","","","","50","0,1,0","3","forest","131","probe-225","0.11734333463688511","0.6186382544273742","0.08680732788215739","1","","","","","","","",""
"","html-keyboard-response","365","1456544","0.0-192.0-1.0","null","<p></p>","null","","","","","","","","","","","","","","","","","","","","","","",""
"","do_trial","366","1461888","0.0-193.0-0.0","777.3999999761581","","","","","","","","51","1,0,0","3","forest","132","probe-47","0.2969211032088342","0.688249648085897","0.26665258117315965","0","","","","","","","",""
"","html-keyboard-response","367","1462906","0.0-193.0-1.0","null","<p></p>","null","","","","","","","","","","","","","","","","","","","","","","",""
"","do_trial","368","1467696","0.0-194.0-0.0","220.60000002384186","","","","","","","","49","0,1,0","3","forest","133","probe-62","0.25835544697395735","0.6775040028707032","0.34594121306524034","0","","","","","","","",""
"","html-keyboard-response","369","1468702","0.0-194.0-1.0","null","<p></p>","null","","","","","","","","","","","","","","","","","","","","","","",""
"","do_trial","370","1473826","0.0-195.0-0.0","560.3999999761581","","","","","","","","50","0,0,1","3","forest","134","probe-214","0.1323744264883382","0.7170221885367118","0.37096296503544607","0","","","","","","","",""
"","html-keyboard-response","371","1474836","0.0-195.0-1.0","null","<p></p>","null","","","","","","","","","","","","","","","","","","","","","","",""
"","do_trial","372","1479698","0.0-196.0-0.0","299","","","","","","","","51","0,0,1","3","forest","135","probe-160","0.16556747267395053","0.6429028453458194","0.38021768181823545","1","","","","","","","",""
"","html-keyboard-response","373","1480715","0.0-196.0-1.0","null","<p></p>","null","","","","","","","","","","","","","","","","","","","","","","",""
"","do_trial","374","1485750","0.0-197.0-0.0","465.89999997615814","","","","","","","","51","0,0,0","3","forest","136","probe-04","0.1347360975478427","0.6128051328754076","0.18871450901883247","0","","","","","","","",""
"","html-keyboard-response","375","1486767","0.0-197.0-1.0","null","<p></p>","null","","","","","","","","","","","","","","","","","","","","","","",""
"","do_trial","376","1491928","0.0-198.0-0.0","593.1999999880791","","","","","","","","51","0,1,0","3","forest","137","probe-201","0.08610116021782811","0.8305765481290404","0.224732681279577","0","","","","","","","",""
"","html-keyboard-response","377","1492931","0.0-198.0-1.0","null","<p></p>","null","","","","","","","","","","","","","","","","","","","","","","",""
"","do_trial","378","1498036","0.0-199.0-0.0","537.9000000357628","","","","","","","","51","1,1,0","3","forest","138","probe-09","0.1517683104206219","0.827416212219593","0.27690194739113516","0","","","","","","","",""
"","html-keyboard-response","379","1499048","0.0-199.0-1.0","null","<p></p>","null","","","","","","","","","","","","","","","","","","","","","","",""
"","do_trial","380","1504533","0.0-200.0-0.0","917.3999999761581","","","","","","","","50","0,1,0","3","forest","139","probe-77","0.1437062780534275","0.8126227026794015","0.357664937646127","1","","","","","","","",""
"","html-keyboard-response","381","1505538","0.0-200.0-1.0","null","<p></p>","null","","","","","","","","","","","","","","","","","","","","","","",""
"","do_trial","382","1510933","0.0-201.0-0.0","844.4000000357628","","","","","","","","51","0,0,0","3","forest","140","probe-43","0.1295412396281099","0.7614053525327134","0.39159574260569224","0","","","","","","","",""
"","html-keyboard-response","383","1511938","0.0-201.0-1.0","null","<p></p>","null","","","","","","","","","","","","","","","","","","","","","","",""
"","do_trial","384","1517026","0.0-202.0-0.0","520.8999999761581","","","","","","","","51","0,1,0","3","forest","141","probe-106","0.054693222191258","0.6546988975362164","0.4206758298751471","0","","","","","","","",""
"","html-keyboard-response","385","1518044","0.0-202.0-1.0","null","<p></p>","null","","","","","","","","","","","","","","","","","","","","","","",""
"","do_trial","386","1523378","0.0-203.0-0.0","781.3000000119209","","","","","","","","51","0,1,1","3","forest","142","probe-185","0.10873391127509002","0.5122702487983228","0.3622368775407855","1","","","","","","","",""
"","html-keyboard-response","387","1524394","0.0-203.0-1.0","null","<p></p>","null","","","","","","","","","","","","","","","","","","","","","","",""
"","do_trial","388","1529428","0.0-204.0-0.0","450.80000001192093","","","","","","","","49","0,0,1","3","forest","143","probe-129","0.3278491641810567","0.6591864400270275","0.4053312796982759","0","","","","","","","",""
"","html-keyboard-response","389","1530444","0.0-204.0-1.0","null","<p></p>","null","","","","","","","","","","","","","","","","","","","","","","",""
"","do_trial","390","1535483","0.0-205.0-0.0","466.7000000476837","","","","","","","","49","0,1,1","3","forest","144","probe-219","0.31704208152846586","0.6492310306988237","0.42809688260032747","0","","","","","","","",""
"","html-keyboard-response","391","1536487","0.0-205.0-1.0","null","<p></p>","null","","","","","","","","","","","","","","","","","","","","","","",""
"","do_trial","392","1541705","0.0-206.0-0.0","657.7000000476837","","","","","","","","51","0,0,0","3","forest","145","probe-82","0.2683871674724659","0.5684404257294302","0.3994780835122653","0","","","","","","","",""
"","html-keyboard-response","393","1542708","0.0-206.0-1.0","null","<p></p>","null","","","","","","","","","","","","","","","","","","","","","","",""
"","do_trial","394","1549444","0.0-207.0-0.0","2157.5","","","","","","","","51","0,0,1","3","forest","146","probe-207","0.1416752445748165","0.5139527856339059","0.33442157139880174","1","","","","","","","",""
"","html-keyboard-response","395","1550449","0.0-207.0-1.0","null","<p></p>","null","","","","","","","","","","","","","","","","","","","","","","",""
"","do_trial","396","1555489","0.0-208.0-0.0","477.10000002384186","","","","","","","","50","0,0,0","3","forest","147","probe-123","0.06820707281155414","0.5595787920635192","0.21105571104700788","0","","","","","","","",""
"","html-keyboard-response","397","1556506","0.0-208.0-1.0","null","<p></p>","null","","","","","","","","","","","","","","","","","","","","","","",""
"","do_trial","398","1561602","0.0-209.0-0.0","534.3000000119209","","","","","","","","50","0,0,0","3","forest","148","probe-182","0.07479269557792989","0.45286455221437527","0.13618510668365263","0","","","","","","","",""
"","html-keyboard-response","399","1562618","0.0-209.0-1.0","null","<p></p>","null","","","","","","","","","","","","","","","","","","","","","","",""
"","do_trial","400","1567624","0.0-210.0-0.0","447.89999997615814","","","","","","","","51","0,1,0","3","forest","149","probe-127","0.054862982807170266","0.6044347678765037","0.36872062025746916","0","","","","","","","",""
"","html-keyboard-response","401","1568637","0.0-210.0-1.0","null","<p></p>","null","","","","","","","","","","","","","","","","","","","","","","",""
"","do_bye","402","1570156","0.0-211.0-0.0","null","","","","","","","","null","","","","","","","","","","","","","","","","",""
"","break","403","1573769","0.0-211.0-1.0","3611.600000023842","<div class='center'><p>Time to take a quick break! You have 2 minutes to rest, but you can move on sooner if you'd like.</p><p> Press the <b>space bar</b> to continue.</p></div>","32","","","","","","","","","","","","","","","","","","","","","","",""
"","do_travel","404","1582777","0.0-212.0-0.0","null","","","","","","","","null","","","","","","","","","","","","","","","","",""
"","do_welcome","405","1586798","0.0-212.0-1.0","null","","","","","","","","null","","","","","","","","","","","","","","","","",""
"","do_trial","406","1592282","0.0-213.0-0.0","914","","","","","","","","51","1,1,0","4","countryside","150","probe-220","0.1935847723261803","1","0.2584245419221263","0","","","","","","","",""
"","html-keyboard-response","407","1593290","0.0-213.0-1.0","null","<p></p>","null","","","","","","","","","","","","","","","","","","","","","","",""
"","do_trial","408","1598239","0.0-214.0-0.0","382.5","","","","","","","","51","0,1,0","4","countryside","151","probe-133","0.05902466982172374","1","0.267309493925259","0","","","","","","","",""
"","html-keyboard-response","409","1599255","0.0-214.0-1.0","null","<p></p>","null","","","","","","","","","","","","","","","","","","","","","","",""
"","do_trial","410","1604169","0.0-215.0-0.0","351.69999998807907","","","","","","","","50","0,1,0","4","countryside","152","probe-222","0.05639628540617923","0.7694522231275184","0.3302016187634376","1","","","","","","","",""
"","html-keyboard-response","411","1605183","0.0-215.0-1.0","null","<p></p>","null","","","","","","","","","","","","","","","","","","","","","","",""
"","do_trial","412","1610101","0.0-216.0-0.0","358.39999997615814","","","","","","","","50","0,1,0","4","countryside","153","probe-83","0.05853391880515469","0.5720193997772037","0.3863291469298114","1","","","","","","","",""
"","html-keyboard-response","413","1611105","0.0-216.0-1.0","null","<p></p>","null","","","","","","","","","","","","","","","","","","","","","","",""
"","do_trial","414","1615999","0.0-217.0-0.0","329.2999999523163","","","","","","","","49","0,0,1","4","countryside","154","probe-209","0.0716182428077533","0.563624842371939","0.4199412380028779","0","","","","","","","",""
"","html-keyboard-response","415","1617006","0.0-217.0-1.0","null","<p></p>","null","","","","","","","","","","","","","","","","","","","","","","",""
"","do_trial","416","1621708","0.0-218.0-0.0","142.70000004768372","","","","","","","","49","0,1,0","4","countryside","155","probe-176","0.132960059344954","0.5905490471485316","0.352237063317239","0","","","","","","","",""
"","html-keyboard-response","417","1622718","0.0-218.0-1.0","null","<p></p>","null","","","","","","","","","","","","","","","","","","","","","","",""
"","do_trial","418","1627618","0.0-219.0-0.0","335.4000000357628","","","","","","","","51","0,0,0","4","countryside","156","probe-44","0.14101571860137235","0.6745025607251378","0.29676217278500083","0","","","","","","","",""
"","html-keyboard-response","419","1628631","0.0-219.0-1.0","null","<p></p>","null","","","","","","","","","","","","","","","","","","","","","","",""
"","do_trial","420","1633487","0.0-220.0-0.0","295.80000001192093","","","","","","","","49","0,0,0","4","countryside","157","probe-169","0.07357727169782784","0.5928984513296388","0.2833619322404833","0","","","","","","","",""
"","html-keyboard-response","421","1634490","0.0-220.0-1.0","null","<p></p>","null","","","","","","","","","","","","","","","","","","","","","","",""
"","do_trial","422","1639386","0.0-221.0-0.0","321.5","","","","","","","","50","0,0,0","4","countryside","158","probe-91","0.07178477961574906","0.6145630138839282","0.37329955743552407","0","","","","","","","",""
"","html-keyboard-response","423","1640402","0.0-221.0-1.0","null","<p></p>","null","","","","","","","","","","","","","","","","","","","","","","",""
"","do_trial","424","1645224","0.0-222.0-0.0","266.10000002384186","","","","","","","","50","0,1,1","4","countryside","159","probe-180","0.11176448101286425","0.55422942707747","0.32176107832939793","1","","","","","","","",""
"","html-keyboard-response","425","1646229","0.0-222.0-1.0","null","<p></p>","null","","","","","","","","","","","","","","","","","","","","","","",""
"","do_trial","426","1652508","0.0-223.0-0.0","1698.3999999761581","","","","","","","","50","0,1,0","4","countryside","160","probe-140","0.1390106921029048","0.5285181177902547","0.28677621435322687","1","","","","","","","",""
"","html-keyboard-response","427","1653512","0.0-223.0-1.0","null","<p></p>","null","","","","","","","","","","","","","","","","","","","","","","",""
"","do_trial","428","1658880","0.0-224.0-0.0","809.5","","","","","","","","50","0,1,1","4","countryside","161","probe-49","0.055706108584514843","0.6087915119853993","0.19641953551948332","1","","","","","","","",""
"","html-keyboard-response","429","1659895","0.0-224.0-1.0","null","<p></p>","null","","","","","","","","","","","","","","","","","","","","","","",""
"","do_trial","430","1664948","0.0-225.0-0.0","489.5","","","","","","","","50","0,0,0","4","countryside","162","probe-150","0.14907495398739476","0.5385279991808622","0.09812308504887524","0","","","","","","","",""
"","html-keyboard-response","431","1665955","0.0-225.0-1.0","null","<p></p>","null","","","","","","","","","","","","","","","","","","","","","","",""
"","do_trial","432","1672867","0.0-226.0-0.0","2344.099999964237","","","","","","","","50","1,1,0","4","countryside","163","probe-131","0.19292512492855024","0.5087867605794663","0.07090188845590241","1","","","","","","","",""
"","html-keyboard-response","433","1673883","0.0-226.0-1.0","null","<p></p>","null","","","","","","","","","","","","","","","","","","","","","","",""
"","do_trial","434","1678455","0.0-227.0-0.0","0.20000004768371582","","","","","","","","51","1,0,0","4","countryside","164","probe-105","0.3320850890618918","0.4630342575010656","0.11534951522682146","0","","","","","","","",""
"","html-keyboard-response","435","1679463","0.0-227.0-1.0","null","<p></p>","null","","","","","","","","","","","","","","","","","","","","","","",""
"","do_trial","436","1684920","0.0-228.0-0.0","884.6999999880791","","","","","","","","49","0,0,0","4","countryside","165","probe-55","0.3449562886589586","0.28849461229559903","0.16433121250477403","0","","","","","","","",""
"","html-keyboard-response","437","1685937","0.0-228.0-1.0","null","<p></p>","null","","","","","","","","","","","","","","","","","","","","","","",""
"","do_trial","438","1690735","0.0-229.0-0.0","227.89999997615814","","","","","","","","50","0,0,0","4","countryside","166","probe-88","0.291825787206257","0.30657685818756486","0.12109622434624794","0","","","","","","","",""
"","html-keyboard-response","439","1691741","0.0-229.0-1.0","null","<p></p>","null","","","","","","","","","","","","","","","","","","","","","","",""
"","do_trial","440","1696504","0.0-230.0-0.0","198.5","","","","","","","","50","1,1,0","4","countryside","167","probe-17","0.4648374934773191","0.4603160214941459","0.15967357557779488","1","","","","","","","",""
"","html-keyboard-response","441","1697511","0.0-230.0-1.0","null","<p></p>","null","","","","","","","","","","","","","","","","","","","","","","",""
"","do_trial","442","1702885","0.0-231.0-0.0","817.1000000238419","","","","","","","","51","0,0,1","4","countryside","168","probe-115","0.3934084567906628","0.26818297981476574","0.2703475281155043","1","","","","","","","",""
"","html-keyboard-response","443","1703889","0.0-231.0-1.0","null","<p></p>","null","","","","","","","","","","","","","","","","","","","","","","",""
"","do_trial","444","1709018","0.0-232.0-0.0","569.1999999880791","","","","","","","","50","0,0,0","4","countryside","169","probe-136","0.5047720416762994","0.20898897407146208","0.07731202461778866","0","","","","","","","",""
"","html-keyboard-response","445","1710034","0.0-232.0-1.0","null","<p></p>","null","","","","","","","","","","","","","","","","","","","","","","",""
"","do_trial","446","1715283","0.0-233.0-0.0","684.2999999523163","","","","","","","","49","0,0,0","4","countryside","170","probe-229","0.49045308796917797","0.19127190768258473","0.1503122068876452","0","","","","","","","",""
"","html-keyboard-response","447","1716285","0.0-233.0-1.0","null","<p></p>","null","","","","","","","","","","","","","","","","","","","","","","",""
"","do_trial","448","1721202","0.0-234.0-0.0","355.19999998807907","","","","","","","","50","1,0,0","4","countryside","171","probe-230","0.5611517626682391","0.08605735530693825","0.09612869436975822","0","","","","","","","",""
"","html-keyboard-response","449","1722218","0.0-234.0-1.0","null","<p></p>","null","","","","","","","","","","","","","","","","","","","","","","",""
"","do_trial","450","1727126","0.0-235.0-0.0","355.10000002384186","","","","","","","","50","0,1,0","4","countryside","172","probe-01","0.4965741538649496","0.1247206807588434","0.08959844051130991","1","","","","","","","",""
"","html-keyboard-response","451","1728142","0.0-235.0-1.0","null","<p></p>","null","","","","","","","","","","","","","","","","","","","","","","",""
"","do_trial","452","1732785","0.0-236.0-0.0","80.5","","","","","","","","50","1,0,0","4","countryside","173","probe-153","0.7001442904288887","0.2919418668416455","0.21458611067976116","0","","","","","","","",""
"","html-keyboard-response","453","1733795","0.0-236.0-1.0","null","<p></p>","null","","","","","","","","","","","","","","","","","","","","","","",""
"","do_trial","454","1738743","0.0-237.0-0.0","390.7999999523163","","","","","","","","50","1,0,0","4","countryside","174","probe-175","0.7937043971915556","0.3709364087735591","0.26114584205711494","0","","","","","","","",""
"","html-keyboard-response","455","1739753","0.0-237.0-1.0","null","<p></p>","null","","","","","","","","","","","","","","","","","","","","","","",""
"","do_trial","456","1744938","0.0-238.0-0.0","622.8000000119209","","","","","","","","50","1,0,1","4","countryside","175","probe-165","0.6560690729795755","0.25807352959339525","0.25060447375746225","0","","","","","","","",""
"","html-keyboard-response","457","1745954","0.0-238.0-1.0","null","<p></p>","null","","","","","","","","","","","","","","","","","","","","","","",""
"","do_trial","458","1751138","0.0-239.0-0.0","607.6000000238419","","","","","","","","50","1,0,1","4","countryside","176","probe-33","0.6163038075302404","0.28937107601712775","0.2775157098557083","0","","","","","","","",""
"","html-keyboard-response","459","1752154","0.0-239.0-1.0","null","<p></p>","null","","","","","","","","","","","","","","","","","","","","","","",""
"","do_trial","460","1757293","0.0-240.0-0.0","577.8000000119209","","","","","","","","51","0,0,0","4","countryside","177","probe-111","0.5966652808414975","0.2714892722969596","0.2921306736667059","0","","","","","","","",""
"","html-keyboard-response","461","1758310","0.0-240.0-1.0","null","<p></p>","null","","","","","","","","","","","","","","","","","","","","","","",""
"","do_trial","462","1763515","0.0-241.0-0.0","640.9000000357628","","","","","","","","49","0,0,0","4","countryside","178","probe-29","0.5814613027208969","0.20665491048102916","0.14051010169005965","0","","","","","","","",""
"","html-keyboard-response","463","1764529","0.0-241.0-1.0","null","<p></p>","null","","","","","","","","","","","","","","","","","","","","","","",""
"","do_trial","464","1770223","0.0-242.0-0.0","1135.5","","","","","","","","50","1,1,0","4","countryside","179","probe-48","0.3999005346895429","0.25727923635686356","0.21355624931842143","1","","","","","","","",""
"","html-keyboard-response","465","1771239","0.0-242.0-1.0","null","<p></p>","null","","","","","","","","","","","","","","","","","","","","","","",""
"","do_trial","466","1777311","0.0-243.0-0.0","null","","","","","","","","null","0,1,1","4","countryside","180","probe-76","0.5370481811073355","0.360985268236035","0.1443494333681028","","","","","","","","",""
"","html-keyboard-response","467","1778323","0.0-243.0-1.0","null","<p></p>","null","","","","","","","","","","","","","","","","","","","","","","",""
"","do_trial","468","1783190","0.0-244.0-0.0","302.60000002384186","","","","","","","","51","1,0,0","4","countryside","181","probe-170","0.6643593155949473","0.4004607059499702","0.11922415648603656","0","","","","","","","",""
"","html-keyboard-response","469","1784206","0.0-244.0-1.0","null","<p></p>","null","","","","","","","","","","","","","","","","","","","","","","",""
"","do_trial","470","1789062","0.0-245.0-0.0","291.69999998807907","","","","","","","","50","1,0,0","4","countryside","182","probe-191","0.6821902761940006","0.38020389939042815","0.1940861673369254","0","","","","","","","",""
"","html-keyboard-response","471","1790076","0.0-245.0-1.0","null","<p></p>","null","","","","","","","","","","","","","","","","","","","","","","",""
"","do_trial","472","1794955","0.0-246.0-0.0","316.5","","","","","","","","50","1,0,0","4","countryside","183","probe-63","0.7059148929194962","0.24829508136901512","0.14999162732359075","0","","","","","","","",""
"","html-keyboard-response","473","1795972","0.0-246.0-1.0","null","<p></p>","null","","","","","","","","","","","","","","","","","","","","","","",""
