"success","trial_type","trial_index","time_elapsed","internal_node_id","interactions","blur_events","focus_events","fullscreenenter_events","fullscreenexit_events","rt","stimulus","key_press","subject_id","participant_id","age","gender","prompt","response","choice_outcomes","context_n","context_img_id","trial_n","probe_img_id","pR_red","pR_white","pR_black","outcome","contextArray_ind","validImageProbes","invalidImageProbes","pRew_Red","pRew_White","pRew_Black","availableForMemProbe","choice_blocks"
"true","fullscreen","0","4586","0.0-0.0","""event"",""trial"",""time""
""fullscreenenter"",""0"",""3611""
","
","
","""event"",""trial"",""time""
""fullscreenenter"",""0"",""3611""
","
","","","","","","","","","","","","","","","","","","","","","","","","","",""
"","pavlovia","1","4591","0.0-1.0","""event"",""trial"",""time""
""fullscreenenter"",""0"",""3611""
","
","
","""event"",""trial"",""time""
""fullscreenenter"",""0"",""3611""
","
","","","","","","","","","","","","","","","","","","","","","","","","","",""
"","instruc1","2","49729","0.0-2.0","""event"",""trial"",""time""
""fullscreenenter"",""0"",""3611""
","
","
","""event"",""trial"",""time""
""fullscreenenter"",""0"",""3611""
","
","null","run_exp/static/audio/clip_1_welcome.m4a","null","319","392","18","Female","<div class='center'><p>Welcome! This is the first part of the study. It will last ~30 minutes. In part 1 and part 2 of the study, you are the head captain of a pirate ship traveling around the world to different islands. You will play a few different games throughout these two parts. Here is an overview of them:</p><br><p>Part 1 (today)</p><p>1. Instructions, practice game, and quiz</p><p>2. Pick a pirate game on 6 different islands</p><br><p>Part 2 (tomorrow)</p><p>3. Pick a pirate game and memory game</p><p>4. Where did you see this ship? </p></div>","","","","","","","","","","","","","","","","","",""
"","html-keyboard-response","3","63278","0.0-3.0","""event"",""trial"",""time""
""fullscreenenter"",""0"",""3611""
","
","
","""event"",""trial"",""time""
""fullscreenenter"",""0"",""3611""
","
","13547.40000000596","<div class='center'><p>Welcome! This is the first part of the study. It will last ~30 minutes. In part 1 and part 2 of the study, you are the head captain of a pirate ship traveling around the world to different islands. You will play a few different games throughout these two parts. Here is an overview of them:</p><br><p>Part 1 (today)</p><p>1. Instructions, practice game, and quiz</p><p>2. Pick a pirate game on 6 different islands</p><br><p>Part 2 (tomorrow)</p><p>3. Pick a pirate game and memory game</p><p>4. Where did you see this ship? </p><p><b>[Press the space bar to continue]</b></p></div>","32","","","","","","","","","","","","","","","","","","","","","","",""
"","instruc2","4","68624","0.0-4.0","""event"",""trial"",""time""
""fullscreenenter"",""0"",""3611""
","
","
","""event"",""trial"",""time""
""fullscreenenter"",""0"",""3611""
","
","null","run_exp/static/audio/clip_2_different_places.m4a","null","","","","","<div class='center'><p>Today, you’ll visit these 6 islands on your journey. You'll be able to see these islands from your ship.</p><p><img src='run_exp/static/images/contexts/all_contexts.png' height='500'></p></div>","","","","","","","","","","","","","","","","","",""
"","html-keyboard-response","5","70335","0.0-5.0","""event"",""trial"",""time""
""fullscreenenter"",""0"",""3611""
","
","
","""event"",""trial"",""time""
""fullscreenenter"",""0"",""3611""
","
","1709.1000000089407","<div class='center'><p>Today, you’ll visit these 6 islands on your journey. You'll be able to see these islands from your ship.</p><p><img src='run_exp/static/images/contexts/all_contexts.png' height='500'></p><p><b>[Press the space bar to continue]</b></p></div>","32","","","","","","","","","","","","","","","","","","","","","","",""
"","instruc3","6","80016","0.0-6.0","""event"",""trial"",""time""
""fullscreenenter"",""0"",""3611""
","
","
","""event"",""trial"",""time""
""fullscreenenter"",""0"",""3611""
","
","null","run_exp/static/audio/clip_3_goal_of_game_1.m4a","null","","","","","<div class='center'><p> The pirates on your ship will rob other ships as they leave the island.</p> These ships have just sold their goods to the islanders, so they will be filled with lots and lots of gold.</p><p><img src='run_exp/static/images/tutorial/ship_center.png' height='400'></p></div>","","","","","","","","","","","","","","","","","",""
"","html-keyboard-response","7","80634","0.0-7.0","""event"",""trial"",""time""
""fullscreenenter"",""0"",""3611""
","
","
","""event"",""trial"",""time""
""fullscreenenter"",""0"",""3611""
","
","616.2999999970198","<div class='center'><p> The pirates on your ship will rob other ships as they leave the island.</p> These ships have just sold their goods to the islanders, so they will be filled with lots and lots of gold.</p><p><img src='run_exp/static/images/tutorial/ship_center.png' height='400'></p><p><b>[Press the space bar to continue]</b></p></div>","32","","","","","","","","","","","","","","","","","","","","","","",""
"","instruc4","8","108645","0.0-8.0","""event"",""trial"",""time""
""fullscreenenter"",""0"",""3611""
","
","
","""event"",""trial"",""time""
""fullscreenenter"",""0"",""3611""
","
","null","run_exp/static/audio/clip_4_goal_of_game_2.m4a","null","","","","","<div class='center'><p>As the head captain, you do not have to rob any ships yourself. Another pirate will be doing the robbing for you. First, you will choose a pirate to rob the next ship.</p><p><img src='run_exp/static/images/tutorial/pirates_all_crop.png' height='200'></p><p>Then, you'll see if the pirate successfully robbed the ship of their gold. If they were successful, then you'll get a stack of gold coins like this:</p><p><img src='run_exp/static/images/tutorial/reward.png' height='150'></p><p> If they were <b>not</b> successful, then you'll get no gold coins, and you'll see a big red x like this: </p><p><img src='run_exp/static/images/tutorial/reward_no.png' height='150'></p><p> How much bonus money you make is based on how many gold coins you collect.</p><div>","","","","","","","","","","","","","","","","","",""
"","html-keyboard-response","9","109320","0.0-9.0","""event"",""trial"",""time""
""fullscreenenter"",""0"",""3611""
","
","
","""event"",""trial"",""time""
""fullscreenenter"",""0"",""3611""
","
","673.1999999880791","<div class='center'><p>As the head captain, you do not have to rob any ships yourself. Another pirate will be doing the robbing for you. First, you will choose a pirate to rob the next ship.</p><p><img src='run_exp/static/images/tutorial/pirates_all_crop.png' height='200'></p><p>Then, you'll see if the pirate successfully robbed the ship of their gold. If they were successful, then you'll get a stack of gold coins like this:</p><p><img src='run_exp/static/images/tutorial/reward.png' height='150'></p><p> If they were <b>not</b> successful, then you'll get no gold coins, and you'll see a big red x like this: </p><p><img src='run_exp/static/images/tutorial/reward_no.png' height='150'></p><p> How much bonus money you make is based on how many gold coins you collect.</p<p><b>[Press the space bar to continue]</b></p></div>","32","","","","","","","","","","","","","","","","","","","","","","",""
"","instruc5","10","130796","0.0-10.0","""event"",""trial"",""time""
""fullscreenenter"",""0"",""3611""
","
","
","""event"",""trial"",""time""
""fullscreenenter"",""0"",""3611""
","
","21474.90000000596","run_exp/static/audio/clip_5_probabilistic.m4a","49","","","","","<div class='center'><p>Even the most skilled pirate can not rob EVERY ship.</p><p> Some ships will have very strong protections against pirate attacks.</p><p> Blue beard, here, is very, very good at robbing ships, but he won't be successful every time he tries to rob one.</p><p> You can press the <b>‘1’</b> key on the keyboard to choose him.</p><p> Try choosing him 10 times to see how often he succeeds at robbing a ship. </p><p><img src='run_exp/static/images/tutorial/blue.png' height='500'></p></div>","","","","","","","","","","","","","","","","","",""
"","html-keyboard-response","11","132302","0.0-11.0","""event"",""trial"",""time""
""fullscreenenter"",""0"",""3611""
","
","
","""event"",""trial"",""time""
""fullscreenenter"",""0"",""3611""
","
","null","<div class='center'><p><img src='run_exp/static/images/tutorial/blue_win.png' height='500'></p></div>","null","","","","","","","","","","","","","","","","","","","","","","",""
"","html-keyboard-response","12","133799","0.0-12.0","""event"",""trial"",""time""
""fullscreenenter"",""0"",""3611""
","
","
","""event"",""trial"",""time""
""fullscreenenter"",""0"",""3611""
","
","1495.3999999910593","<div class='center'><img src='run_exp/static/images/tutorial/blue.png' height='500'></p></div>","49","","","","","","","","","","","","","","","","","","","","","","",""
"","html-keyboard-response","13","135304","0.0-13.0","""event"",""trial"",""time""
""fullscreenenter"",""0"",""3611""
","
","
","""event"",""trial"",""time""
""fullscreenenter"",""0"",""3611""
","
","null","<div class='center'><p><img src='run_exp/static/images/tutorial/blue_win.png' height='500'></p></div>","null","","","","","","","","","","","","","","","","","","","","","","",""
"","html-keyboard-response","14","136073","0.0-14.0","""event"",""trial"",""time""
""fullscreenenter"",""0"",""3611""
","
","
","""event"",""trial"",""time""
""fullscreenenter"",""0"",""3611""
","
","767","<div class='center'><img src='run_exp/static/images/tutorial/blue.png' height='500'></p></div>","49","","","","","","","","","","","","","","","","","","","","","","",""
"","html-keyboard-response","15","137579","0.0-15.0","""event"",""trial"",""time""
""fullscreenenter"",""0"",""3611""
","
","
","""event"",""trial"",""time""
""fullscreenenter"",""0"",""3611""
","
","null","<div class='center'><p><img src='run_exp/static/images/tutorial/blue_win.png' height='500'></p></div>","null","","","","","","","","","","","","","","","","","","","","","","",""
"","html-keyboard-response","16","138239","0.0-16.0","""event"",""trial"",""time""
""fullscreenenter"",""0"",""3611""
","
","
","""event"",""trial"",""time""
""fullscreenenter"",""0"",""3611""
","
","658.8999999910593","<div class='center'><img src='run_exp/static/images/tutorial/blue.png' height='500'></p></div>","49","","","","","","","","","","","","","","","","","","","","","","",""
"","html-keyboard-response","17","139745","0.0-17.0","""event"",""trial"",""time""
""fullscreenenter"",""0"",""3611""
","
","
","""event"",""trial"",""time""
""fullscreenenter"",""0"",""3611""
","
","null","<div class='center'><p><img src='run_exp/static/images/tutorial/blue_no_win.png' height='500'></p></div>","null","","","","","","","","","","","","","","","","","","","","","","",""
"","html-keyboard-response","18","140930","0.0-18.0","""event"",""trial"",""time""
""fullscreenenter"",""0"",""3611""
","
","
","""event"",""trial"",""time""
""fullscreenenter"",""0"",""3611""
","
","1183.5999999940395","<div class='center'><img src='run_exp/static/images/tutorial/blue.png' height='500'></p></div>","49","","","","","","","","","","","","","","","","","","","","","","",""
"","html-keyboard-response","19","142437","0.0-19.0","""event"",""trial"",""time""
""fullscreenenter"",""0"",""3611""
","
","
","""event"",""trial"",""time""
""fullscreenenter"",""0"",""3611""
","
","null","<div class='center'><p><img src='run_exp/static/images/tutorial/blue_win.png' height='500'></p></div>","null","","","","","","","","","","","","","","","","","","","","","","",""
"","html-keyboard-response","20","143106","0.0-20.0","""event"",""trial"",""time""
""fullscreenenter"",""0"",""3611""
","
","
","""event"",""trial"",""time""
""fullscreenenter"",""0"",""3611""
","
","666.6000000089407","<div class='center'><img src='run_exp/static/images/tutorial/blue.png' height='500'></p></div>","49","","","","","","","","","","","","","","","","","","","","","","",""
"","html-keyboard-response","21","144608","0.0-21.0","""event"",""trial"",""time""
""fullscreenenter"",""0"",""3611""
","
","
","""event"",""trial"",""time""
""fullscreenenter"",""0"",""3611""
","
","null","<div class='center'><p><img src='run_exp/static/images/tutorial/blue_win.png' height='500'></p></div>","null","","","","","","","","","","","","","","","","","","","","","","",""
"","html-keyboard-response","22","145620","0.0-22.0","""event"",""trial"",""time""
""fullscreenenter"",""0"",""3611""
","
","
","""event"",""trial"",""time""
""fullscreenenter"",""0"",""3611""
","
","1010.3999999910593","<div class='center'><img src='run_exp/static/images/tutorial/blue.png' height='500'></p></div>","49","","","","","","","","","","","","","","","","","","","","","","",""
"","html-keyboard-response","23","147126","0.0-23.0","""event"",""trial"",""time""
""fullscreenenter"",""0"",""3611""
","
","
","""event"",""trial"",""time""
""fullscreenenter"",""0"",""3611""
","
","null","<div class='center'><p><img src='run_exp/static/images/tutorial/blue_win.png' height='500'></p></div>","null","","","","","","","","","","","","","","","","","","","","","","",""
"","html-keyboard-response","24","148050","0.0-24.0","""event"",""trial"",""time""
""fullscreenenter"",""0"",""3611""
","
","
","""event"",""trial"",""time""
""fullscreenenter"",""0"",""3611""
","
","923.0999999940395","<div class='center'><img src='run_exp/static/images/tutorial/blue.png' height='500'></p></div>","49","","","","","","","","","","","","","","","","","","","","","","",""
"","html-keyboard-response","25","149554","0.0-25.0","""event"",""trial"",""time""
""fullscreenenter"",""0"",""3611""
","
","
","""event"",""trial"",""time""
""fullscreenenter"",""0"",""3611""
","
","null","<div class='center'><p><img src='run_exp/static/images/tutorial/blue_no_win.png' height='500'></p></div>","null","","","","","","","","","","","","","","","","","","","","","","",""
"","html-keyboard-response","26","150454","0.0-26.0","""event"",""trial"",""time""
""fullscreenenter"",""0"",""3611""
","
","
","""event"",""trial"",""time""
""fullscreenenter"",""0"",""3611""
","
","899","<div class='center'><img src='run_exp/static/images/tutorial/blue.png' height='500'></p></div>","49","","","","","","","","","","","","","","","","","","","","","","",""
"","html-keyboard-response","27","151957","0.0-27.0","""event"",""trial"",""time""
""fullscreenenter"",""0"",""3611""
","
","
","""event"",""trial"",""time""
""fullscreenenter"",""0"",""3611""
","
","null","<div class='center'><p><img src='run_exp/static/images/tutorial/blue_win.png' height='500'></p></div>","null","","","","","","","","","","","","","","","","","","","","","","",""
"","html-keyboard-response","28","152577","0.0-28.0","""event"",""trial"",""time""
""fullscreenenter"",""0"",""3611""
","
","
","""event"",""trial"",""time""
""fullscreenenter"",""0"",""3611""
","
","617.7000000029802","<div class='center'><img src='run_exp/static/images/tutorial/blue.png' height='500'></p></div>","49","","","","","","","","","","","","","","","","","","","","","","",""
"","html-keyboard-response","29","154078","0.0-29.0","""event"",""trial"",""time""
""fullscreenenter"",""0"",""3611""
","
","
","""event"",""trial"",""time""
""fullscreenenter"",""0"",""3611""
","
","null","<div class='center'><p><img src='run_exp/static/images/tutorial/blue_win.png' height='500'></p></div>","null","","","","","","","","","","","","","","","","","","","","","","",""
"","instruc6","30","159512","0.0-30.0","""event"",""trial"",""time""
""fullscreenenter"",""0"",""3611""
","
","
","""event"",""trial"",""time""
""fullscreenenter"",""0"",""3611""
","
","null","run_exp/static/audio/clip_6_blue_beard_outcome.m4a","null","","","","","<div class='center'><p> See, he succeeded in robbing the ships most of the time but not every time. </p></div>","","","","","","","","","","","","","","","","","",""
"","html-keyboard-response","31","160143","0.0-31.0","""event"",""trial"",""time""
""fullscreenenter"",""0"",""3611""
","
","
","""event"",""trial"",""time""
""fullscreenenter"",""0"",""3611""
","
","629.2000000029802","<div class='center'><p> See, he succeeded in robbing the ships most of the time but not every time. </p><p><b>[Press the space bar to continue]</b></p></div>","32","","","","","","","","","","","","","","","","","","","","","","",""
"","audio-keyboard-response","32","177179","0.0-32.0","""event"",""trial"",""time""
""fullscreenenter"",""0"",""3611""
","
","
","""event"",""trial"",""time""
""fullscreenenter"",""0"",""3611""
","
","17035","run_exp/static/audio/clip_7_pick_pirate.m4a","49","","","","","","","","","","","","","","","","","","","","","","",""
"","audio-keyboard-response","33","182451","0.0-33.0-0.0","""event"",""trial"",""time""
""fullscreenenter"",""0"",""3611""
","
","
","""event"",""trial"",""time""
""fullscreenenter"",""0"",""3611""
","
","5270.100000008941","run_exp/static/audio/clip_8_chosen_pirate_win.m4a","32","","","","","","","","","","","","","","","","","","","","","","",""
"","audio-keyboard-response","34","186009","0.0-33.0-1.0","""event"",""trial"",""time""
""fullscreenenter"",""0"",""3611""
","
","
","""event"",""trial"",""time""
""fullscreenenter"",""0"",""3611""
","
","3556.1000000089407","run_exp/static/audio/clip_9_pick_a_pirate_again.m4a","50","","","","","","","","","","","","","","","","","","","","","","",""
"","audio-keyboard-response","35","190078","0.0-34.0-0.0","""event"",""trial"",""time""
""fullscreenenter"",""0"",""3611""
","
","
","""event"",""trial"",""time""
""fullscreenenter"",""0"",""3611""
","
","4067.2000000029802","run_exp/static/audio/clip_10_chosen_pirate_loss.m4a","32","","","","","","","","","","","","","","","","","","","","","","",""
"","instruc9","36","195565","0.0-35.0-0.0","""event"",""trial"",""time""
""fullscreenenter"",""0"",""3611""
","
","
","""event"",""trial"",""time""
""fullscreenenter"",""0"",""3611""
","
","null","run_exp/static/audio/clip_11_time_out.m4a","null","","","","","<div class='center'><p>If you don’t make your choice fast enough, you’ll have to wait a few seconds before you can make another one. </p><p><img src='run_exp/static/images/miscellaneous/hurry_up.png' height='500'></p></div>","","","","","","","","","","","","","","","","","",""
"","html-keyboard-response","37","196817","0.0-35.0-1.0","""event"",""trial"",""time""
""fullscreenenter"",""0"",""3611""
","
","
","""event"",""trial"",""time""
""fullscreenenter"",""0"",""3611""
","
","1250.5999999940395","<div class='center'><p>If you don’t make your choice fast enough, you’ll have to wait a few seconds before you can make another one. </p><p><img src='run_exp/static/images/miscellaneous/hurry_up.png' height='500'></p><p><b>[Press the space bar to continue]</b></p></div>","32","","","","","","","","","","","","","","","","","","","","","","",""
"","instruc10","38","235905","0.0-35.0-2.0","""event"",""trial"",""time""
""fullscreenenter"",""0"",""3611""
","
","
","""event"",""trial"",""time""
""fullscreenenter"",""0"",""3611""
","
","null","run_exp/static/audio/clip_12_probe.m4a","null","","","","","<div class='center'><p>Once you've chosen a pirate, you’ll be shown the ship they are robbing. You will never rob the same ship twice. Ships can be told apart from one another by the image on them. These are the goods that they sell. See, this ship has a travel mug on it. </p><p> You’ll have to remember which island you saw each ship on. You will win more gold coins and hence more bonus money if you remember correctly! To help you remember, you can imagine a story. For example, here, you could imagine a mug full of water in the desert. Or, as another example, if on the forest island, your pirate robbed a ship with an apple on it, you could imagine an apple falling from a tree in the forest. </p><p><img src='run_exp/static/images/tutorial/example_probe.png' height='500'></p></div>","","","","","","","","","","","","","","","","","",""
"","html-keyboard-response","39","236855","0.0-35.0-3.0","""event"",""trial"",""time""
""fullscreenenter"",""0"",""3611""
","
","
","""event"",""trial"",""time""
""fullscreenenter"",""0"",""3611""
","
","946.0999999940395","<div class='center'><p>Once you've chosen a pirate, you’ll be shown the ship they are robbing. You will never rob the same ship twice. Ships can be told apart from one another by the image on them. These are the goods that they sell. See, this ship has a travel mug on it. </p><p> You’ll have to remember which island you saw each ship on. You will win more gold coins and hence more bonus money if you remember correctly! To help you remember, you can imagine a story. For example, here, you could imagine a mug full of water in the desert. Or, as another example, if on the forest island, your pirate robbed a ship with an apple on it, you could imagine an apple falling from a tree in the forest. </p><p><img src='run_exp/static/images/tutorial/example_probe.png' height='500'></p><p><b>[Press the space bar to continue]</b></p></div>","32","","","","","","","","","","","","","","","","","","","","","","",""
"","instruc11","40","253270","0.0-35.0-4.0","""event"",""trial"",""time""
""fullscreenenter"",""0"",""3611""
","
","
","""event"",""trial"",""time""
""fullscreenenter"",""0"",""3611""
","
","null","run_exp/static/audio/clip_13_changepoint.m4a","null","","","","","<div class='center'><p>How successful a pirate is at robbing ships will depend on the island you’re on.</p><p> A pirate may have visited this island many times before and gained a lot of practice robbing ships there.</p><p>So, they’re more likely to be successful than a pirate who has never visited the island before.</p></div>","","","","","","","","","","","","","","","","","",""
"","html-keyboard-response","41","256417","0.0-35.0-5.0","""event"",""trial"",""time""
""fullscreenenter"",""0"",""3611""
","
","
","""event"",""trial"",""time""
""fullscreenenter"",""0"",""3611""
","
","3145.300000011921","<div class='center'><p>How successful a pirate is at robbing ships will depend on the island you’re on.</p><p> A pirate may have visited this island many times before and gained a lot of practice robbing ships there.</p><p>So, they’re more likely to be successful than a pirate who has never visited the island before.</p><p><b>[Press the space bar to continue]</b></p></div>","32","","","","","","","","","","","","","","","","","","","","","","",""
"","instruc12","42","297514","0.0-35.0-6.0","""event"",""trial"",""time""
""fullscreenenter"",""0"",""3611""
","
","
","""event"",""trial"",""time""
""fullscreenenter"",""0"",""3611""
","
","null","run_exp/static/audio/clip_14_drift.m4a","null","","","","","<div class='center'><p>How successful a pirate is at robbing ships can also change over the time spent on the island. </p><p> Ships may hear from islanders about the pirates coming and will improve their protections against the attack. This may make it harder to rob them.</p><p> Ships may also become lazy and weaken the strength of their protections. This may make it easier to rob them.</p><br><p>Things are always changing on the high seas! So, try your best to pay attention!</p><p><img src='run_exp/static/images/tutorial/contingency.png' height='500'></p></div>","","","","","","","","","","","","","","","","","",""
"","html-keyboard-response","43","299627","0.0-35.0-7.0","""event"",""trial"",""time""
""fullscreenenter"",""0"",""3611""
","
","
","""event"",""trial"",""time""
""fullscreenenter"",""0"",""3611""
","
","2111","<div class='center'><p>How successful a pirate is at robbing ships can also change over the time spent on the island. </p><p> Ships may hear from islanders about the pirates coming and will improve their protections against the attack. This may make it harder to rob them.</p><p> Ships may also become lazy and weaken the strength of their protections. This may make it easier to rob them.</p><br><p>Things are always changing on the high seas! So, try your best to pay attention!</p><p><img src='run_exp/static/images/tutorial/contingency.png' height='500'></p><p><b>[Press the space bar to continue]</b></p></div>","32","","","","","","","","","","","","","","","","","","","","","","",""
"","instruc13","44","334804","0.0-35.0-8.0","""event"",""trial"",""time""
""fullscreenenter"",""0"",""3611""
","
","
","""event"",""trial"",""time""
""fullscreenenter"",""0"",""3611""
","
","null","run_exp/static/audio/clip_15_summary.m4a","null","","","","","<div class='center'><p>Let's go over the instructions quickly again. You have two important things to do: </p><b><p> 1. Pick the pirate who is the best at robbing ships on the current island. </p></b><b><p> 2. Remember on which island a ship was robbed.</p> </b><p>The amount of bonus money you can win depends on both.</p><p><br><p>Let’s try a practice game. The game will start by showing you the pirates. First, pick a pirate using the <b> 1, 2, 3 </b> keys on your keyboard. When you are shown a ship, try to remember which island you’re on by making up a story.</p><p>This is just a practice game, so you’re not playing for money. </p><p> Good luck! This game will be very difficult but try your best!</p></div>","","","","","","","","","","","","","","","","","",""
"","html-keyboard-response","45","338560","0.0-35.0-9.0","""event"",""trial"",""time""
""fullscreenenter"",""0"",""3611""
","
","
","""event"",""trial"",""time""
""fullscreenenter"",""0"",""3611""
","
","3755.2999999970198","<div class='center'><p>Let's go over the instructions quickly again. You have two important things to do: </p><b><p> 1. Pick the pirate who is the best at robbing ships on the current island. </p></b><b><p> 2. Remember on which island a ship was robbed.</p> </b><p>The amount of bonus money you can win depends on both.</p><p><br><p>Let’s try a practice game. The game will start by showing you the pirates. First, pick a pirate using the <b> 1, 2, 3 </b> keys on your keyboard. When you are shown a ship, try to remember which island you’re on by making up a story.</p><p>This is just a practice game, so you’re not playing for money. </p><p> Good luck! This game will be very difficult but try your best!</p><p><b>[Press the space bar to continue]</b></p></div>","32","","","","","","","","","","","","","","","","","","","","","","",""
"","do_welcome","46","342572","0.0-35.0-10.0","""event"",""trial"",""time""
""fullscreenenter"",""0"",""3611""
","
","
","""event"",""trial"",""time""
""fullscreenenter"",""0"",""3611""
","
","null","","","","","","","","null","","","","","","","","","","","","","","","","",""
"","do_trial","47","348047","0.0-35.0-11.0","""event"",""trial"",""time""
""fullscreenenter"",""0"",""3611""
","
","
","""event"",""trial"",""time""
""fullscreenenter"",""0"",""3611""
","
","964.0999999940395","","","","","","","","49","1,0,0","","","","","","","","","","","","","","","",""
"","html-keyboard-response","48","349053","0.0-36.0-0.0","""event"",""trial"",""time""
""fullscreenenter"",""0"",""3611""
","
","
","""event"",""trial"",""time""
""fullscreenenter"",""0"",""3611""
","
","null","<p></p>","null","","","","","","","","","","","","","","","","","","","","","","",""
"","do_trial","49","354896","0.0-36.0-1.0","""event"",""trial"",""time""
""fullscreenenter"",""0"",""3611""
","
","
","""event"",""trial"",""time""
""fullscreenenter"",""0"",""3611""
","
","1331.0999999940395","","","","","","","","49","1,1,0","","","","","","","","","","","","","","","",""
"","html-keyboard-response","50","355899","0.0-37.0-0.0","""event"",""trial"",""time""
""fullscreenenter"",""0"",""3611""
","
","
","""event"",""trial"",""time""
""fullscreenenter"",""0"",""3611""
","
","null","<p></p>","null","","","","","","","","","","","","","","","","","","","","","","",""
"","do_trial","51","361130","0.0-37.0-1.0","""event"",""trial"",""time""
""fullscreenenter"",""0"",""3611""
","
","
","""event"",""trial"",""time""
""fullscreenenter"",""0"",""3611""
","
","718.9000000059605","","","","","","","","49","1,0,1","","","","","","","","","","","","","","","",""
"","html-keyboard-response","52","362136","0.0-38.0-0.0","""event"",""trial"",""time""
""fullscreenenter"",""0"",""3611""
","
","
","""event"",""trial"",""time""
""fullscreenenter"",""0"",""3611""
","
","null","<p></p>","null","","","","","","","","","","","","","","","","","","","","","","",""
"","do_trial","53","368149","0.0-38.0-1.0","""event"",""trial"",""time""
""fullscreenenter"",""0"",""3611""
","
","
","""event"",""trial"",""time""
""fullscreenenter"",""0"",""3611""
","
","null","","","","","","","","null","0,1,0","","","","","","","","","","","","","","","",""
"","html-keyboard-response","54","369155","0.0-39.0-0.0","""event"",""trial"",""time""
""fullscreenenter"",""0"",""3611""
","
","
","""event"",""trial"",""time""
""fullscreenenter"",""0"",""3611""
","
","null","<p></p>","null","","","","","","","","","","","","","","","","","","","","","","",""
"","do_trial","55","374096","0.0-39.0-1.0","""event"",""trial"",""time""
""fullscreenenter"",""0"",""3611""
","
","
","""event"",""trial"",""time""
""fullscreenenter"",""0"",""3611""
","
","433.09999999403954","","","","","","","","50","0,1,0","","","","","","","","","","","","","","","",""
"","html-keyboard-response","56","375098","0.0-40.0-0.0","""event"",""trial"",""time""
""fullscreenenter"",""0"",""3611""
","
","
","""event"",""trial"",""time""
""fullscreenenter"",""0"",""3611""
","
","null","<p></p>","null","","","","","","","","","","","","","","","","","","","","","","",""
"","do_trial","57","379967","0.0-40.0-1.0","""event"",""trial"",""time""
""fullscreenenter"",""0"",""3611""
","
","
","""event"",""trial"",""time""
""fullscreenenter"",""0"",""3611""
","
","355.80000001192093","","","","","","","","51","1,0,0","","","","","","","","","","","","","","","",""
"","do_bye","58","381478","0.0-41.0-0.0","""event"",""trial"",""time""
""fullscreenenter"",""0"",""3611""
","
","
","""event"",""trial"",""time""
""fullscreenenter"",""0"",""3611""
","
","null","","","","","","","","null","","","","","","","","","","","","","","","","",""
"","do_travel","59","390487","0.0-41.0-1.0","""event"",""trial"",""time""
""fullscreenenter"",""0"",""3611""
","
","
","""event"",""trial"",""time""
""fullscreenenter"",""0"",""3611""
","
","null","","","","","","","","null","","","","","","","","","","","","","","","","",""
"","do_welcome","60","394498","0.0-41.0-2.0","""event"",""trial"",""time""
""fullscreenenter"",""0"",""3611""
","
","
","""event"",""trial"",""time""
""fullscreenenter"",""0"",""3611""
","
","null","","","","","","","","null","","","","","","","","","","","","","","","","",""
"","do_trial","61","399587","0.0-41.0-3.0","""event"",""trial"",""time""
""fullscreenenter"",""0"",""3611""
","
","
","""event"",""trial"",""time""
""fullscreenenter"",""0"",""3611""
","
","577.1000000089407","","","","","","","","49","1,0,0","","","","","","","","","","","","","","","",""
"","html-keyboard-response","62","400589","0.0-42.0-0.0","""event"",""trial"",""time""
""fullscreenenter"",""0"",""3611""
","
","
","""event"",""trial"",""time""
""fullscreenenter"",""0"",""3611""
","
","null","<p></p>","null","","","","","","","","","","","","","","","","","","","","","","",""
"","do_trial","63","405414","0.0-42.0-1.0","""event"",""trial"",""time""
""fullscreenenter"",""0"",""3611""
","
","
","""event"",""trial"",""time""
""fullscreenenter"",""0"",""3611""
","
","316.79999999701977","","","","","","","","51","1,0,1","","","","","","","","","","","","","","","",""
"","html-keyboard-response","64","406419","0.0-43.0-0.0","""event"",""trial"",""time""
""fullscreenenter"",""0"",""3611""
","
","
","""event"",""trial"",""time""
""fullscreenenter"",""0"",""3611""
","
","null","<p></p>","null","","","","","","","","","","","","","","","","","","","","","","",""
"","do_trial","65","411225","0.0-43.0-1.0","""event"",""trial"",""time""
""fullscreenenter"",""0"",""3611""
","
","
","""event"",""trial"",""time""
""fullscreenenter"",""0"",""3611""
","
","293.90000000596046","","","","","","","","49","1,1,0","","","","","","","","","","","","","","","",""
"","html-keyboard-response","66","412231","0.0-44.0-0.0","""event"",""trial"",""time""
""fullscreenenter"",""0"",""3611""
","
","
","""event"",""trial"",""time""
""fullscreenenter"",""0"",""3611""
","
","null","<p></p>","null","","","","","","","","","","","","","","","","","","","","","","",""
"","do_trial","67","417193","0.0-44.0-1.0","""event"",""trial"",""time""
""fullscreenenter"",""0"",""3611""
","
","
","""event"",""trial"",""time""
""fullscreenenter"",""0"",""3611""
","
","453.90000000596046","","","","","","","","49","0,0,1","","","","","","","","","","","","","","","",""
"","html-keyboard-response","68","418197","0.0-45.0-0.0","""event"",""trial"",""time""
""fullscreenenter"",""0"",""3611""
","
","
","""event"",""trial"",""time""
""fullscreenenter"",""0"",""3611""
","
","null","<p></p>","null","","","","","","","","","","","","","","","","","","","","","","",""
"","do_trial","69","423051","0.0-45.0-1.0","""event"",""trial"",""time""
""fullscreenenter"",""0"",""3611""
","
","
","""event"",""trial"",""time""
""fullscreenenter"",""0"",""3611""
","
","343.5","","","","","","","","51","1,0,1","","","","","","","","","","","","","","","",""
"","html-keyboard-response","70","427481","0.0-46.0-0.0","""event"",""trial"",""time""
""fullscreenenter"",""0"",""3611""
","
","
","""event"",""trial"",""time""
""fullscreenenter"",""0"",""3611""
","
","4427.4000000059605","<div class='center'><p><img src='run_exp/static/images/tutorial/prac_best_pirate.png'  height='500'></p></div>","49","","","","","","","","","","","","","","","","","","","","","","",""
"","html-keyboard-response","71","429963","0.0-47.0-0.0","""event"",""trial"",""time""
""fullscreenenter"",""0"",""3611""
","
","
","""event"",""trial"",""time""
""fullscreenenter"",""0"",""3611""
","
","2481.6000000089407","<div class='center'><p>That's correct! Red beard was the best.</p><p><b>[Press the space bar to continue]</b></p></div>","32","","","","","","","","","","","","","","","","","","","","","","",""
"","html-keyboard-response","72","432744","0.0-47.0-1.0","""event"",""trial"",""time""
""fullscreenenter"",""0"",""3611""
","
","
","""event"",""trial"",""time""
""fullscreenenter"",""0"",""3611""
","
","2779.4000000059605","<div class='center'><p><img src='run_exp/static/images/tutorial/prac_source.png'  height='500'></p></div>","50","","","","","","","","","","","","","","","","","","","","","","",""
"","html-keyboard-response","73","434508","0.0-48.0-0.0","""event"",""trial"",""time""
""fullscreenenter"",""0"",""3611""
","
","
","""event"",""trial"",""time""
""fullscreenenter"",""0"",""3611""
","
","1763.699999988079","<div class='center'><p>That's correct! You saw this ship on the cavern island.</p><p><b>[Press the space bar to continue]</b></p></div>","32","","","","","","","","","","","","","","","","","","","","","","",""
"","quiz_beginning","74","445743","0.0-48.0-1.0","""event"",""trial"",""time""
""fullscreenenter"",""0"",""3611""
","
","
","""event"",""trial"",""time""
""fullscreenenter"",""0"",""3611""
","
","null","run_exp/static/audio/clip_16_quiz_intro.m4a","null","","","","","<div class='center'><p>Good job on the practice game! Now, you will be asked some true or false questions to make sure you really understand the rules of the game.</p><p> Press <b>'1'</b> on the keyboard for true and press <b>'2'</b> for false.</p></div>","","","","","","","","","","","","","","","","","",""
"","audio-keyboard-response","75","451868","0.0-48.0-2.0","""event"",""trial"",""time""
""fullscreenenter"",""0"",""3611""
","
","
","""event"",""trial"",""time""
""fullscreenenter"",""0"",""3611""
","
","6123.20000000298","run_exp/static/audio/clip_17_q1.m4a","49","","","","","","","","","","","","","","","","","","","","","","",""
"","correct","76","454276","0.0-49.0-0.0","""event"",""trial"",""time""
""fullscreenenter"",""0"",""3611""
","
","
","""event"",""trial"",""time""
""fullscreenenter"",""0"",""3611""
","
","null","run_exp/static/audio/clip_18_correct.m4a","null","","","","","<div class='center'><p>That's correct!</p></div>","","","","","","","","","","","","","","","","","",""
"","html-keyboard-response","77","455240","0.0-49.0-1.0","""event"",""trial"",""time""
""fullscreenenter"",""0"",""3611""
","
","
","""event"",""trial"",""time""
""fullscreenenter"",""0"",""3611""
","
","962.7999999970198","<div class='center'><p>That's correct!</p><p><b>[Press the space bar to continue]</b></p></div>","32","","","","","","","","","","","","","","","","","","","","","","",""
"","audio-keyboard-response","78","463063","0.0-49.0-2.0","""event"",""trial"",""time""
""fullscreenenter"",""0"",""3611""
","
","
","""event"",""trial"",""time""
""fullscreenenter"",""0"",""3611""
","
","7822.5","run_exp/static/audio/clip_20_q2.m4a","50","","","","","","","","","","","","","","","","","","","","","","",""
"","correct","79","465476","0.0-50.0-0.0","""event"",""trial"",""time""
""fullscreenenter"",""0"",""3611""
","
","
","""event"",""trial"",""time""
""fullscreenenter"",""0"",""3611""
","
","null","run_exp/static/audio/clip_18_correct.m4a","null","","","","","<div class='center'><p>That's correct!</p></div>","","","","","","","","","","","","","","","","","",""
"","html-keyboard-response","80","466343","0.0-50.0-1.0","""event"",""trial"",""time""
""fullscreenenter"",""0"",""3611""
","
","
","""event"",""trial"",""time""
""fullscreenenter"",""0"",""3611""
","
","866.7000000029802","<div class='center'><p>That's correct!</p><p><b>[Press the space bar to continue]</b></p></div>","32","","","","","","","","","","","","","","","","","","","","","","",""
"","audio-keyboard-response","81","473946","0.0-50.0-2.0","""event"",""trial"",""time""
""fullscreenenter"",""0"",""3611""
","
","
","""event"",""trial"",""time""
""fullscreenenter"",""0"",""3611""
","
","7601.899999991059","run_exp/static/audio/clip_22_q3.m4a","50","","","","","","","","","","","","","","","","","","","","","","",""
"","correct","82","476355","0.0-51.0-0.0","""event"",""trial"",""time""
""fullscreenenter"",""0"",""3611""
","
","
","""event"",""trial"",""time""
""fullscreenenter"",""0"",""3611""
","
","null","run_exp/static/audio/clip_18_correct.m4a","null","","","","","<div class='center'><p>That's correct!</p></div>","","","","","","","","","","","","","","","","","",""
"","html-keyboard-response","83","477186","0.0-51.0-1.0","""event"",""trial"",""time""
""fullscreenenter"",""0"",""3611""
","
","
","""event"",""trial"",""time""
""fullscreenenter"",""0"",""3611""
","
","829.5","<div class='center'><p>That's correct!</p><p><b>[Press the space bar to continue]</b></p></div>","32","","","","","","","","","","","","","","","","","","","","","","",""
"","audio-keyboard-response","84","482020","0.0-51.0-2.0","""event"",""trial"",""time""
""fullscreenenter"",""0"",""3611""
","
","
","""event"",""trial"",""time""
""fullscreenenter"",""0"",""3611""
","
","4833.300000011921","run_exp/static/audio/clip_24_q4.m4a","49","","","","","","","","","","","","","","","","","","","","","","",""
"","correct","85","484462","0.0-52.0-0.0","""event"",""trial"",""time""
""fullscreenenter"",""0"",""3611""
","
","
","""event"",""trial"",""time""
""fullscreenenter"",""0"",""3611""
","
","null","run_exp/static/audio/clip_18_correct.m4a","null","","","","","<div class='center'><p>That's correct!</p></div>","","","","","","","","","","","","","","","","","",""
"","html-keyboard-response","86","485310","0.0-52.0-1.0","""event"",""trial"",""time""
""fullscreenenter"",""0"",""3611""
","
","
","""event"",""trial"",""time""
""fullscreenenter"",""0"",""3611""
","
","846.7999999970198","<div class='center'><p>That's correct!</p><p><b>[Press the space bar to continue]</b></p></div>","32","","","","","","","","","","","","","","","","","","","","","","",""
"","q_all_corr","87","493806","0.0-53.0-0.0","""event"",""trial"",""time""
""fullscreenenter"",""0"",""3611""
","
","
","""event"",""trial"",""time""
""fullscreenenter"",""0"",""3611""
","
","null","run_exp/static/audio/clip_27_quiz_all_correct.m4a","null","","","","","<div class='center'><p>Good job! You’re now ready to move on to the real game! Remember this game will be difficult but don't get discouraged and try your best!</p></div>","","","","","","","","","","","","","","","","","",""
"","html-keyboard-response","88","494510","0.0-53.0-1.0","""event"",""trial"",""time""
""fullscreenenter"",""0"",""3611""
","
","
","""event"",""trial"",""time""
""fullscreenenter"",""0"",""3611""
","
","703.1000000089407","<div class='center'><p>Good job! You’re now ready to move on to the real game! Remember this game will be difficult but don't get discouraged and try your best!</p><p><b>[Press the space bar to continue]</b></p></div>","32","","","","","","","","","","","","","","","","","","","","","","",""
"","do_welcome","89","498520","0.0-54.0-0.0","""event"",""trial"",""time""
""fullscreenenter"",""0"",""3611""
","
","
","""event"",""trial"",""time""
""fullscreenenter"",""0"",""3611""
","
","null","","","","","","","","null","","","","","","","","","","","","","","","","",""
"","do_trial","90","503866","0.0-55.0-0.0","""event"",""trial"",""time""
""fullscreenenter"",""0"",""3611""
","
","
","""event"",""trial"",""time""
""fullscreenenter"",""0"",""3611""
","
","804.4000000059605","","","","","","","","49","1,1,0","0","countryside","0","probe-28","0.6","0.3","0.1","1","","","","","","","",""
"","html-keyboard-response","91","504871","0.0-55.0-1.0","""event"",""trial"",""time""
""fullscreenenter"",""0"",""3611""
","
","
","""event"",""trial"",""time""
""fullscreenenter"",""0"",""3611""
","
","null","<p></p>","null","","","","","","","","","","","","","","","","","","","","","","",""
"","do_trial","92","509791","0.0-56.0-0.0","""event"",""trial"",""time""
""fullscreenenter"",""0"",""3611""
","
","
","""event"",""trial"",""time""
""fullscreenenter"",""0"",""3611""
","
","374.40000000596046","","","","","","","","50","1,0,0","0","countryside","1","probe-101","0.5906184455738442","0.1363104074076421","0.1149521637960533","0","","","","","","","",""
"","html-keyboard-response","93","510796","0.0-56.0-1.0","""event"",""trial"",""time""
""fullscreenenter"",""0"",""3611""
","
","
","""event"",""trial"",""time""
""fullscreenenter"",""0"",""3611""
","
","null","<p></p>","null","","","","","","","","","","","","","","","","","","","","","","",""
"","do_trial","94","515722","0.0-57.0-0.0","""event"",""trial"",""time""
""fullscreenenter"",""0"",""3611""
","
","
","""event"",""trial"",""time""
""fullscreenenter"",""0"",""3611""
","
","385.3999999910593","","","","","","","","51","0,0,0","0","countryside","2","probe-200","0.48991291023900524","0.1524941261744558","0.10121634342462787","0","","","","","","","",""
"","html-keyboard-response","95","516729","0.0-57.0-1.0","""event"",""trial"",""time""
""fullscreenenter"",""0"",""3611""
","
","
","""event"",""trial"",""time""
""fullscreenenter"",""0"",""3611""
","
","null","<p></p>","null","","","","","","","","","","","","","","","","","","","","","","",""
"","do_trial","96","521667","0.0-58.0-0.0","""event"",""trial"",""time""
""fullscreenenter"",""0"",""3611""
","
","
","""event"",""trial"",""time""
""fullscreenenter"",""0"",""3611""
","
","397.59999999403954","","","","","","","","49","1,0,0","0","countryside","3","probe-211","0.3912844969900855","0.169126752549044","0.07446667484274438","1","","","","","","","",""
"","html-keyboard-response","97","522672","0.0-58.0-1.0","""event"",""trial"",""time""
""fullscreenenter"",""0"",""3611""
","
","
","""event"",""trial"",""time""
""fullscreenenter"",""0"",""3611""
","
","null","<p></p>","null","","","","","","","","","","","","","","","","","","","","","","",""
"","do_trial","98","527603","0.0-59.0-0.0","""event"",""trial"",""time""
""fullscreenenter"",""0"",""3611""
","
","
","""event"",""trial"",""time""
""fullscreenenter"",""0"",""3611""
","
","387.09999999403954","","","","","","","","49","0,0,0","0","countryside","4","probe-16","0.6128685800640364","0.16661900578425798","0.08936822645164715","0","","","","","","","",""
"","html-keyboard-response","99","528608","0.0-59.0-1.0","""event"",""trial"",""time""
""fullscreenenter"",""0"",""3611""
","
","
","""event"",""trial"",""time""
""fullscreenenter"",""0"",""3611""
","
","null","<p></p>","null","","","","","","","","","","","","","","","","","","","","","","",""
"","do_trial","100","533428","0.0-60.0-0.0","""event"",""trial"",""time""
""fullscreenenter"",""0"",""3611""
","
","
","""event"",""trial"",""time""
""fullscreenenter"",""0"",""3611""
","
","280.29999999701977","","","","","","","","50","1,0,0","0","countryside","5","probe-188","0.5601244436816678","0.2880796182859882","0.27248656249983655","0","","","","","","","",""
"","html-keyboard-response","101","534433","0.0-60.0-1.0","""event"",""trial"",""time""
""fullscreenenter"",""0"",""3611""
","
","
","""event"",""trial"",""time""
""fullscreenenter"",""0"",""3611""
","
","null","<p></p>","null","","","","","","","","","","","","","","","","","","","","","","",""
"","do_trial","102","539306","0.0-61.0-0.0","""event"",""trial"",""time""
""fullscreenenter"",""0"",""3611""
","
","
","""event"",""trial"",""time""
""fullscreenenter"",""0"",""3611""
","
","328.70000000298023","","","","","","","","49","1,0,1","0","countryside","6","probe-137","0.5283451612776966","0.3303590405036161","0.3781261709831393","1","","","","","","","",""
"","html-keyboard-response","103","540313","0.0-61.0-1.0","""event"",""trial"",""time""
""fullscreenenter"",""0"",""3611""
","
","
","""event"",""trial"",""time""
""fullscreenenter"",""0"",""3611""
","
","null","<p></p>","null","","","","","","","","","","","","","","","","","","","","","","",""
"","do_trial","104","545174","0.0-62.0-0.0","""event"",""trial"",""time""
""fullscreenenter"",""0"",""3611""
","
","
","""event"",""trial"",""time""
""fullscreenenter"",""0"",""3611""
","
","320.20000000298023","","","","","","","","49","0,0,0","0","countryside","7","probe-91","0.6570680785106277","0.168787911967761","0.2739748100392618","0","","","","","","","",""
"","html-keyboard-response","105","546176","0.0-62.0-1.0","""event"",""trial"",""time""
""fullscreenenter"",""0"",""3611""
","
","
","""event"",""trial"",""time""
""fullscreenenter"",""0"",""3611""
","
","null","<p></p>","null","","","","","","","","","","","","","","","","","","","","","","",""
"","do_trial","106","551087","0.0-63.0-0.0","""event"",""trial"",""time""
""fullscreenenter"",""0"",""3611""
","
","
","""event"",""trial"",""time""
""fullscreenenter"",""0"",""3611""
","
","367.79999999701977","","","","","","","","51","0,0,0","0","countryside","8","probe-116","0.6172060190700084","0.1320477568168255","0.4512862008731555","0","","","","","","","",""
"","html-keyboard-response","107","552093","0.0-63.0-1.0","""event"",""trial"",""time""
""fullscreenenter"",""0"",""3611""
","
","
","""event"",""trial"",""time""
""fullscreenenter"",""0"",""3611""
","
","null","<p></p>","null","","","","","","","","","","","","","","","","","","","","","","",""
"","do_trial","108","557012","0.0-64.0-0.0","""event"",""trial"",""time""
""fullscreenenter"",""0"",""3611""
","
","
","""event"",""trial"",""time""
""fullscreenenter"",""0"",""3611""
","
","379.29999999701977","","","","","","","","49","0,0,0","0","countryside","9","probe-69","0.5891485654760817","0.16991084881146754","0.2613463296086575","0","","","","","","","",""
"","html-keyboard-response","109","558017","0.0-64.0-1.0","""event"",""trial"",""time""
""fullscreenenter"",""0"",""3611""
","
","
","""event"",""trial"",""time""
""fullscreenenter"",""0"",""3611""
","
","null","<p></p>","null","","","","","","","","","","","","","","","","","","","","","","",""
"","do_trial","110","562971","0.0-65.0-0.0","""event"",""trial"",""time""
""fullscreenenter"",""0"",""3611""
","
","
","""event"",""trial"",""time""
""fullscreenenter"",""0"",""3611""
","
","410.90000000596046","","","","","","","","51","1,0,1","0","countryside","10","probe-203","0.6029801633087557","0.3045452562443718","0.23411616246537456","1","","","","","","","",""
"","html-keyboard-response","111","563977","0.0-65.0-1.0","""event"",""trial"",""time""
""fullscreenenter"",""0"",""3611""
","
","
","""event"",""trial"",""time""
""fullscreenenter"",""0"",""3611""
","
","null","<p></p>","null","","","","","","","","","","","","","","","","","","","","","","",""
"","do_trial","112","569145","0.0-66.0-0.0","""event"",""trial"",""time""
""fullscreenenter"",""0"",""3611""
","
","
","""event"",""trial"",""time""
""fullscreenenter"",""0"",""3611""
","
","624.3999999910593","","","","","","","","51","0,1,1","0","countryside","11","probe-102","0.6171412292402182","0.3657405029204385","0.20067570891730088","1","","","","","","","",""
"","html-keyboard-response","113","570149","0.0-66.0-1.0","""event"",""trial"",""time""
""fullscreenenter"",""0"",""3611""
","
","
","""event"",""trial"",""time""
""fullscreenenter"",""0"",""3611""
","
","null","<p></p>","null","","","","","","","","","","","","","","","","","","","","","","",""
"","do_trial","114","575044","0.0-67.0-0.0","""event"",""trial"",""time""
""fullscreenenter"",""0"",""3611""
","
","
","""event"",""trial"",""time""
""fullscreenenter"",""0"",""3611""
","
","354.20000000298023","","","","","","","","51","0,0,0","0","countryside","12","probe-44","0.4755315013335502","0.4650193997833639","0.15827642913325812","0","","","","","","","",""
"","html-keyboard-response","115","576048","0.0-67.0-1.0","""event"",""trial"",""time""
""fullscreenenter"",""0"",""3611""
","
","
","""event"",""trial"",""time""
""fullscreenenter"",""0"",""3611""
","
","null","<p></p>","null","","","","","","","","","","","","","","","","","","","","","","",""
"","do_trial","116","580869","0.0-68.0-0.0","""event"",""trial"",""time""
""fullscreenenter"",""0"",""3611""
","
","
","""event"",""trial"",""time""
""fullscreenenter"",""0"",""3611""
","
","279","","","","","","","","49","0,1,0","0","countryside","13","probe-106","0.6139582904766039","0.4779981297372855","0.059605190410659405","0","","","","","","","",""
"","html-keyboard-response","117","581874","0.0-68.0-1.0","""event"",""trial"",""time""
""fullscreenenter"",""0"",""3611""
","
","
","""event"",""trial"",""time""
""fullscreenenter"",""0"",""3611""
","
","null","<p></p>","null","","","","","","","","","","","","","","","","","","","","","","",""
"","do_trial","118","586773","0.0-69.0-0.0","""event"",""trial"",""time""
""fullscreenenter"",""0"",""3611""
","
","
","""event"",""trial"",""time""
""fullscreenenter"",""0"",""3611""
","
","355.20000000298023","","","","","","","","50","0,1,0","0","countryside","14","probe-35","0.5742719949035581","0.27526501526984076","0.06070637262908028","1","","","","","","","",""
"","html-keyboard-response","119","587778","0.0-69.0-1.0","""event"",""trial"",""time""
""fullscreenenter"",""0"",""3611""
","
","
","""event"",""trial"",""time""
""fullscreenenter"",""0"",""3611""
","
","null","<p></p>","null","","","","","","","","","","","","","","","","","","","","","","",""
"","do_trial","120","592660","0.0-70.0-0.0","""event"",""trial"",""time""
""fullscreenenter"",""0"",""3611""
","
","
","""event"",""trial"",""time""
""fullscreenenter"",""0"",""3611""
","
","338.69999998807907","","","","","","","","50","0,1,0","0","countryside","15","probe-17","0.5975322295391828","0.4584941702914837","0.07565675355690499","1","","","","","","","",""
"","html-keyboard-response","121","593666","0.0-70.0-1.0","""event"",""trial"",""time""
""fullscreenenter"",""0"",""3611""
","
","
","""event"",""trial"",""time""
""fullscreenenter"",""0"",""3611""
","
","null","<p></p>","null","","","","","","","","","","","","","","","","","","","","","","",""
"","do_trial","122","598516","0.0-71.0-0.0","""event"",""trial"",""time""
""fullscreenenter"",""0"",""3611""
","
","
","""event"",""trial"",""time""
""fullscreenenter"",""0"",""3611""
","
","308.79999999701977","","","","","","","","50","0,1,0","0","countryside","16","probe-119","0.6234782578716666","0.5465145851126936","0.08491708441886613","1","","","","","","","",""
"","html-keyboard-response","123","599521","0.0-71.0-1.0","""event"",""trial"",""time""
""fullscreenenter"",""0"",""3611""
","
","
","""event"",""trial"",""time""
""fullscreenenter"",""0"",""3611""
","
","null","<p></p>","null","","","","","","","","","","","","","","","","","","","","","","",""
"","do_trial","124","604530","0.0-72.0-0.0","""event"",""trial"",""time""
""fullscreenenter"",""0"",""3611""
","
","
","""event"",""trial"",""time""
""fullscreenenter"",""0"",""3611""
","
","471.29999999701977","","","","","","","","50","1,0,0","0","countryside","17","probe-166","0.7257160558706529","0.3211885636946142","0.12444355291812022","0","","","","","","","",""
"","html-keyboard-response","125","605536","0.0-72.0-1.0","""event"",""trial"",""time""
""fullscreenenter"",""0"",""3611""
","
","
","""event"",""trial"",""time""
""fullscreenenter"",""0"",""3611""
","
","null","<p></p>","null","","","","","","","","","","","","","","","","","","","","","","",""
"","do_trial","126","610565","0.0-73.0-0.0","""event"",""trial"",""time""
""fullscreenenter"",""0"",""3611""
","
","
","""event"",""trial"",""time""
""fullscreenenter"",""0"",""3611""
","
","490.5","","","","","","","","50","1,1,0","0","countryside","18","probe-63","0.5653843249326904","0.3550602579674091","0.06830341808444232","1","","","","","","","",""
"","html-keyboard-response","127","611572","0.0-73.0-1.0","""event"",""trial"",""time""
""fullscreenenter"",""0"",""3611""
","
","
","""event"",""trial"",""time""
""fullscreenenter"",""0"",""3611""
","
","null","<p></p>","null","","","","","","","","","","","","","","","","","","","","","","",""
"","do_trial","128","616625","0.0-74.0-0.0","""event"",""trial"",""time""
""fullscreenenter"",""0"",""3611""
","
","
","""event"",""trial"",""time""
""fullscreenenter"",""0"",""3611""
","
","509.5","","","","","","","","50","1,0,0","0","countryside","19","probe-158","0.4905715093922632","0.3001955700325117","0.1043335887874073","0","","","","","","","",""
"","html-keyboard-response","129","617632","0.0-74.0-1.0","""event"",""trial"",""time""
""fullscreenenter"",""0"",""3611""
","
","
","""event"",""trial"",""time""
""fullscreenenter"",""0"",""3611""
","
","null","<p></p>","null","","","","","","","","","","","","","","","","","","","","","","",""
"","do_trial","130","622175","0.0-75.0-0.0","""event"",""trial"",""time""
""fullscreenenter"",""0"",""3611""
","
","
","""event"",""trial"",""time""
""fullscreenenter"",""0"",""3611""
","
","0.09999999403953552","","","","","","","","51","0,0,0","0","countryside","20","probe-183","0.4560207097460237","0.3245031336456959","0.13458547450967007","0","","","","","","","",""
"","html-keyboard-response","131","623180","0.0-75.0-1.0","""event"",""trial"",""time""
""fullscreenenter"",""0"",""3611""
","
","
","""event"",""trial"",""time""
""fullscreenenter"",""0"",""3611""
","
","null","<p></p>","null","","","","","","","","","","","","","","","","","","","","","","",""
"","do_trial","132","628060","0.0-76.0-0.0","""event"",""trial"",""time""
""fullscreenenter"",""0"",""3611""
","
","
","""event"",""trial"",""time""
""fullscreenenter"",""0"",""3611""
","
","338.40000000596046","","","","","","","","49","1,0,0","0","countryside","21","probe-156","0.5073805441382859","0.3292965197398553","0.16347154158398744","1","","","","","","","",""
"","html-keyboard-response","133","629064","0.0-76.0-1.0","""event"",""trial"",""time""
""fullscreenenter"",""0"",""3611""
","
","
","""event"",""trial"",""time""
""fullscreenenter"",""0"",""3611""
","
","null","<p></p>","null","","","","","","","","","","","","","","","","","","","","","","",""
"","do_trial","134","633982","0.0-77.0-0.0","""event"",""trial"",""time""
""fullscreenenter"",""0"",""3611""
","
","
","""event"",""trial"",""time""
""fullscreenenter"",""0"",""3611""
","
","373.1000000089407","","","","","","","","49","0,1,1","0","countryside","22","probe-172","0.6475985912216264","0.2564074257079583","0.21108531445232095","0","","","","","","","",""
"","html-keyboard-response","135","634987","0.0-77.0-1.0","""event"",""trial"",""time""
""fullscreenenter"",""0"",""3611""
","
","
","""event"",""trial"",""time""
""fullscreenenter"",""0"",""3611""
","
","null","<p></p>","null","","","","","","","","","","","","","","","","","","","","","","",""
"","do_trial","136","639837","0.0-78.0-0.0","""event"",""trial"",""time""
""fullscreenenter"",""0"",""3611""
","
","
","""event"",""trial"",""time""
""fullscreenenter"",""0"",""3611""
","
","311.5","","","","","","","","49","0,0,0","0","countryside","23","probe-174","0.5342410174978636","0.29960970534819087","0.12204936110452218","0","","","","","","","",""
"","html-keyboard-response","137","640843","0.0-78.0-1.0","""event"",""trial"",""time""
""fullscreenenter"",""0"",""3611""
","
","
","""event"",""trial"",""time""
""fullscreenenter"",""0"",""3611""
","
","null","<p></p>","null","","","","","","","","","","","","","","","","","","","","","","",""
"","do_trial","138","645737","0.0-79.0-0.0","""event"",""trial"",""time""
""fullscreenenter"",""0"",""3611""
","
","
","""event"",""trial"",""time""
""fullscreenenter"",""0"",""3611""
","
","350","","","","","","","","50","0,0,0","0","countryside","24","probe-04","0.5466245255242537","0.3706047818987922","0.06009721906887301","0","","","","","","","",""
"","html-keyboard-response","139","646742","0.0-79.0-1.0","""event"",""trial"",""time""
""fullscreenenter"",""0"",""3611""
","
","
","""event"",""trial"",""time""
""fullscreenenter"",""0"",""3611""
","
","null","<p></p>","null","","","","","","","","","","","","","","","","","","","","","","",""
"","do_trial","140","651709","0.0-80.0-0.0","""event"",""trial"",""time""
""fullscreenenter"",""0"",""3611""
","
","
","""event"",""trial"",""time""
""fullscreenenter"",""0"",""3611""
","
","426.40000000596046","","","","","","","","50","1,0,0","0","countryside","25","probe-186","0.8682885621588734","0.41397078377329677","0.06557692534839209","0","","","","","","","",""
"","html-keyboard-response","141","652716","0.0-80.0-1.0","""event"",""trial"",""time""
""fullscreenenter"",""0"",""3611""
","
","
","""event"",""trial"",""time""
""fullscreenenter"",""0"",""3611""
","
","null","<p></p>","null","","","","","","","","","","","","","","","","","","","","","","",""
"","do_trial","142","658216","0.0-81.0-0.0","""event"",""trial"",""time""
""fullscreenenter"",""0"",""3611""
","
","
","""event"",""trial"",""time""
""fullscreenenter"",""0"",""3611""
","
","957.4000000059605","","","","","","","","50","1,0,0","0","countryside","26","probe-171","0.6956830893946027","0.30214878662113687","0.11936664159764394","0","","","","","","","",""
"","html-keyboard-response","143","659221","0.0-81.0-1.0","""event"",""trial"",""time""
""fullscreenenter"",""0"",""3611""
","
","
","""event"",""trial"",""time""
""fullscreenenter"",""0"",""3611""
","
","null","<p></p>","null","","","","","","","","","","","","","","","","","","","","","","",""
"","do_trial","144","664228","0.0-82.0-0.0","""event"",""trial"",""time""
""fullscreenenter"",""0"",""3611""
","
","
","""event"",""trial"",""time""
""fullscreenenter"",""0"",""3611""
","
","461.59999999403954","","","","","","","","51","1,1,0","0","countryside","27","probe-78","0.7402450983776525","0.2716475530874699","0.34585309089926386","0","","","","","","","",""
"","html-keyboard-response","145","665232","0.0-82.0-1.0","""event"",""trial"",""time""
""fullscreenenter"",""0"",""3611""
","
","
","""event"",""trial"",""time""
""fullscreenenter"",""0"",""3611""
","
","null","<p></p>","null","","","","","","","","","","","","","","","","","","","","","","",""
"","do_trial","146","670202","0.0-83.0-0.0","""event"",""trial"",""time""
""fullscreenenter"",""0"",""3611""
","
","
","""event"",""trial"",""time""
""fullscreenenter"",""0"",""3611""
","
","426.3999999910593","","","","","","","","51","1,1,0","0","countryside","28","probe-121","0.6838430592401278","0.3654668732026963","0.22126863329695978","0","","","","","","","",""
"","html-keyboard-response","147","671207","0.0-83.0-1.0","""event"",""trial"",""time""
""fullscreenenter"",""0"",""3611""
","
","
","""event"",""trial"",""time""
""fullscreenenter"",""0"",""3611""
","
","null","<p></p>","null","","","","","","","","","","","","","","","","","","","","","","",""
"","do_trial","148","676153","0.0-84.0-0.0","""event"",""trial"",""time""
""fullscreenenter"",""0"",""3611""
","
","
","""event"",""trial"",""time""
""fullscreenenter"",""0"",""3611""
","
","401.69999998807907","","","","","","","","51","1,0,0","0","countryside","29","probe-42","0.5748804722163089","0.3485784044693985","0.20618375423429658","0","","","","","","","",""
"","html-keyboard-response","149","677158","0.0-84.0-1.0","""event"",""trial"",""time""
""fullscreenenter"",""0"",""3611""
","
","
","""event"",""trial"",""time""
""fullscreenenter"",""0"",""3611""
","
","null","<p></p>","null","","","","","","","","","","","","","","","","","","","","","","",""
"","do_bye","150","678664","0.0-85.0-0.0","""event"",""trial"",""time""
""fullscreenenter"",""0"",""3611""
","
","
","""event"",""trial"",""time""
""fullscreenenter"",""0"",""3611""
","
","null","","","","","","","","null","","","","","","","","","","","","","","","","",""
"","break","151","681333","0.0-85.0-1.0","""event"",""trial"",""time""
""fullscreenenter"",""0"",""3611""
","
","
","""event"",""trial"",""time""
""fullscreenenter"",""0"",""3611""
","
","2667.4000000059605","<div class='center'><p>Time to take a quick break! You have 2 minutes to rest, but you can move on sooner if you'd like.</p><p> Press the <b>space bar</b> to continue.</p></div>","32","","","","","","","","","","","","","","","","","","","","","","",""
"","do_travel","152","690340","0.0-86.0-0.0","""event"",""trial"",""time""
""fullscreenenter"",""0"",""3611""
","
","
","""event"",""trial"",""time""
""fullscreenenter"",""0"",""3611""
","
","null","","","","","","","","null","","","","","","","","","","","","","","","","",""
"","do_welcome","153","694352","0.0-86.0-1.0","""event"",""trial"",""time""
""fullscreenenter"",""0"",""3611""
","
","
","""event"",""trial"",""time""
""fullscreenenter"",""0"",""3611""
","
","null","","","","","","","","null","","","","","","","","","","","","","","","","",""
"","do_trial","154","699558","0.0-87.0-0.0","""event"",""trial"",""time""
""fullscreenenter"",""0"",""3611""
","
","
","""event"",""trial"",""time""
""fullscreenenter"",""0"",""3611""
","
","669","","","","","","","","49","1,1,0","1","highway","30","probe-99","1","0.21116718959063857","0.14074905407490237","1","","","","","","","",""
"","html-keyboard-response","155","700562","0.0-87.0-1.0","""event"",""trial"",""time""
""fullscreenenter"",""0"",""3611""
","
","
","""event"",""trial"",""time""
""fullscreenenter"",""0"",""3611""
","
","null","<p></p>","null","","","","","","","","","","","","","","","","","","","","","","",""
"","do_trial","156","705769","0.0-88.0-0.0","""event"",""trial"",""time""
""fullscreenenter"",""0"",""3611""
","
","
","""event"",""trial"",""time""
""fullscreenenter"",""0"",""3611""
","
","665.5","","","","","","","","51","1,0,0","1","highway","31","probe-126","1","0.06411755739036246","0.15440189733980533","0","","","","","","","",""
"","html-keyboard-response","157","706774","0.0-88.0-1.0","""event"",""trial"",""time""
""fullscreenenter"",""0"",""3611""
","
","
","""event"",""trial"",""time""
""fullscreenenter"",""0"",""3611""
","
","null","<p></p>","null","","","","","","","","","","","","","","","","","","","","","","",""
"","do_trial","158","711708","0.0-89.0-0.0","""event"",""trial"",""time""
""fullscreenenter"",""0"",""3611""
","
","
","""event"",""trial"",""time""
""fullscreenenter"",""0"",""3611""
","
","390.40000000596046","","","","","","","","50","1,1,0","1","highway","32","probe-190","1","0.10192394421095138","0.15653559307480427","1","","","","","","","",""
"","html-keyboard-response","159","712713","0.0-89.0-1.0","""event"",""trial"",""time""
""fullscreenenter"",""0"",""3611""
","
","
","""event"",""trial"",""time""
""fullscreenenter"",""0"",""3611""
","
","null","<p></p>","null","","","","","","","","","","","","","","","","","","","","","","",""
"","do_trial","160","717624","0.0-90.0-0.0","""event"",""trial"",""time""
""fullscreenenter"",""0"",""3611""
","
","
","""event"",""trial"",""time""
""fullscreenenter"",""0"",""3611""
","
","367.3999999910593","","","","","","","","50","1,1,1","1","highway","33","probe-104","0.8880647585810213","0.1734489060973353","0.13001215164637528","1","","","","","","","",""
"","html-keyboard-response","161","718629","0.0-90.0-1.0","""event"",""trial"",""time""
""fullscreenenter"",""0"",""3611""
","
","
","""event"",""trial"",""time""
""fullscreenenter"",""0"",""3611""
","
","null","<p></p>","null","","","","","","","","","","","","","","","","","","","","","","",""
"","do_trial","162","723839","0.0-91.0-0.0","""event"",""trial"",""time""
""fullscreenenter"",""0"",""3611""
","
","
","""event"",""trial"",""time""
""fullscreenenter"",""0"",""3611""
","
","666.7000000029802","","","","","","","","49","1,0,0","1","highway","34","probe-135","0.8962190567551719","0.14885762797344637","0.10225368743112968","1","","","","","","","",""
"","html-keyboard-response","163","724844","0.0-91.0-1.0","""event"",""trial"",""time""
""fullscreenenter"",""0"",""3611""
","
","
","""event"",""trial"",""time""
""fullscreenenter"",""0"",""3611""
","
","null","<p></p>","null","","","","","","","","","","","","","","","","","","","","","","",""
"","do_trial","164","729910","0.0-92.0-0.0","""event"",""trial"",""time""
""fullscreenenter"",""0"",""3611""
","
","
","""event"",""trial"",""time""
""fullscreenenter"",""0"",""3611""
","
","520.2999999970198","","","","","","","","50","1,0,1","1","highway","35","probe-152","0.7377014198571044","0.18017319441642024","0.10365990554305539","0","","","","","","","",""
"","html-keyboard-response","165","730911","0.0-92.0-1.0","""event"",""trial"",""time""
""fullscreenenter"",""0"",""3611""
","
","
","""event"",""trial"",""time""
""fullscreenenter"",""0"",""3611""
","
","null","<p></p>","null","","","","","","","","","","","","","","","","","","","","","","",""
"","do_trial","166","735850","0.0-93.0-0.0","""event"",""trial"",""time""
""fullscreenenter"",""0"",""3611""
","
","
","""event"",""trial"",""time""
""fullscreenenter"",""0"",""3611""
","
","399.5","","","","","","","","49","1,0,0","1","highway","36","probe-229","0.8253750561929991","0.15173529861023974","0.21096069189371058","1","","","","","","","",""
"","html-keyboard-response","167","736857","0.0-93.0-1.0","""event"",""trial"",""time""
""fullscreenenter"",""0"",""3611""
","
","
","""event"",""trial"",""time""
""fullscreenenter"",""0"",""3611""
","
","null","<p></p>","null","","","","","","","","","","","","","","","","","","","","","","",""
"","do_trial","168","741807","0.0-94.0-0.0","""event"",""trial"",""time""
""fullscreenenter"",""0"",""3611""
","
","
","""event"",""trial"",""time""
""fullscreenenter"",""0"",""3611""
","
","408.09999999403954","","","","","","","","49","0,0,1","1","highway","37","probe-146","0.6446043393517319","0.2830871785030997","0.13882204831167225","0","","","","","","","",""
"","html-keyboard-response","169","742812","0.0-94.0-1.0","""event"",""trial"",""time""
""fullscreenenter"",""0"",""3611""
","
","
","""event"",""trial"",""time""
""fullscreenenter"",""0"",""3611""
","
","null","<p></p>","null","","","","","","","","","","","","","","","","","","","","","","",""
"","do_trial","170","747790","0.0-95.0-0.0","""event"",""trial"",""time""
""fullscreenenter"",""0"",""3611""
","
","
","""event"",""trial"",""time""
""fullscreenenter"",""0"",""3611""
","
","437.80000001192093","","","","","","","","51","0,1,0","1","highway","38","probe-109","0.5653356802432236","0.2644161018126002","0.05368652275325605","0","","","","","","","",""
"","html-keyboard-response","171","748795","0.0-95.0-1.0","""event"",""trial"",""time""
""fullscreenenter"",""0"",""3611""
","
","
","""event"",""trial"",""time""
""fullscreenenter"",""0"",""3611""
","
","null","<p></p>","null","","","","","","","","","","","","","","","","","","","","","","",""
"","do_trial","172","753692","0.0-96.0-0.0","""event"",""trial"",""time""
""fullscreenenter"",""0"",""3611""
","
","
","""event"",""trial"",""time""
""fullscreenenter"",""0"",""3611""
","
","357.8999999910593","","","","","","","","50","0,0,0","1","highway","39","probe-193","0.4857084955485258","0.2938124648072624","0.20128923031165954","0","","","","","","","",""
"","html-keyboard-response","173","754698","0.0-96.0-1.0","""event"",""trial"",""time""
""fullscreenenter"",""0"",""3611""
","
","
","""event"",""trial"",""time""
""fullscreenenter"",""0"",""3611""
","
","null","<p></p>","null","","","","","","","","","","","","","","","","","","","","","","",""
"","do_trial","174","760759","0.0-97.0-0.0","""event"",""trial"",""time""
""fullscreenenter"",""0"",""3611""
","
","
","""event"",""trial"",""time""
""fullscreenenter"",""0"",""3611""
","
","1518","","","","","","","","51","0,0,0","1","highway","40","probe-20","0.4780234270613295","0.247135726540243","0.24363734082026794","0","","","","","","","",""
"","html-keyboard-response","175","761763","0.0-97.0-1.0","""event"",""trial"",""time""
""fullscreenenter"",""0"",""3611""
","
","
","""event"",""trial"",""time""
""fullscreenenter"",""0"",""3611""
","
","null","<p></p>","null","","","","","","","","","","","","","","","","","","","","","","",""
"","do_trial","176","767783","0.0-98.0-0.0","""event"",""trial"",""time""
""fullscreenenter"",""0"",""3611""
","
","
","""event"",""trial"",""time""
""fullscreenenter"",""0"",""3611""
","
","1478","","","","","","","","51","1,0,0","1","highway","41","probe-222","0.348905212821347","0.09493410378404761","0.19518623346779249","0","","","","","","","",""
"","html-keyboard-response","177","768787","0.0-98.0-1.0","""event"",""trial"",""time""
""fullscreenenter"",""0"",""3611""
","
","
","""event"",""trial"",""time""
""fullscreenenter"",""0"",""3611""
","
","null","<p></p>","null","","","","","","","","","","","","","","","","","","","","","","",""
"","do_trial","178","773801","0.0-99.0-0.0","""event"",""trial"",""time""
""fullscreenenter"",""0"",""3611""
","
","
","""event"",""trial"",""time""
""fullscreenenter"",""0"",""3611""
","
","472.5","","","","","","","","49","0,0,0","1","highway","42","probe-111","0.3517308550437008","0.1829892341402632","0.37132673450515663","0","","","","","","","",""
"","html-keyboard-response","179","774806","0.0-99.0-1.0","""event"",""trial"",""time""
""fullscreenenter"",""0"",""3611""
","
","
","""event"",""trial"",""time""
""fullscreenenter"",""0"",""3611""
","
","null","<p></p>","null","","","","","","","","","","","","","","","","","","","","","","",""
"","do_trial","180","779938","0.0-100.0-0.0","""event"",""trial"",""time""
""fullscreenenter"",""0"",""3611""
","
","
","""event"",""trial"",""time""
""fullscreenenter"",""0"",""3611""
","
","589.3999999910593","","","","","","","","49","0,0,1","1","highway","43","probe-90","0.3441859561302917","0.4839946103450642","0.4066018592849148","0","","","","","","","",""
"","html-keyboard-response","181","780944","0.0-100.0-1.0","""event"",""trial"",""time""
""fullscreenenter"",""0"",""3611""
","
","
","""event"",""trial"",""time""
""fullscreenenter"",""0"",""3611""
","
","null","<p></p>","null","","","","","","","","","","","","","","","","","","","","","","",""
"","do_trial","182","786054","0.0-101.0-0.0","""event"",""trial"",""time""
""fullscreenenter"",""0"",""3611""
","
","
","""event"",""trial"",""time""
""fullscreenenter"",""0"",""3611""
","
","566.2000000029802","","","","","","","","50","1,0,1","1","highway","44","probe-95","0.3171265371090359","0.4160509807235772","0.4723098364978362","0","","","","","","","",""
"","html-keyboard-response","183","787056","0.0-101.0-1.0","""event"",""trial"",""time""
""fullscreenenter"",""0"",""3611""
","
","
","""event"",""trial"",""time""
""fullscreenenter"",""0"",""3611""
","
","null","<p></p>","null","","","","","","","","","","","","","","","","","","","","","","",""
"","do_trial","184","791912","0.0-102.0-0.0","""event"",""trial"",""time""
""fullscreenenter"",""0"",""3611""
","
","
","""event"",""trial"",""time""
""fullscreenenter"",""0"",""3611""
","
","315.59999999403954","","","","","","","","50","0,0,1","1","highway","45","probe-195","0.24625043094003685","0.495574886388617","0.44886022789755536","0","","","","","","","",""
"","html-keyboard-response","185","792916","0.0-102.0-1.0","""event"",""trial"",""time""
""fullscreenenter"",""0"",""3611""
","
","
","""event"",""trial"",""time""
""fullscreenenter"",""0"",""3611""
","
","null","<p></p>","null","","","","","","","","","","","","","","","","","","","","","","",""
"","do_trial","186","797479","0.0-103.0-0.0","""event"",""trial"",""time""
""fullscreenenter"",""0"",""3611""
","
","
","""event"",""trial"",""time""
""fullscreenenter"",""0"",""3611""
","
","28","","","","","","","","50","1,1,0","1","highway","46","probe-33","0.18731506332113587","0.366639073374457","0.604750020917196","1","","","","","","","",""
"","html-keyboard-response","187","798484","0.0-103.0-1.0","""event"",""trial"",""time""
""fullscreenenter"",""0"",""3611""
","
","
","""event"",""trial"",""time""
""fullscreenenter"",""0"",""3611""
","
","null","<p></p>","null","","","","","","","","","","","","","","","","","","","","","","",""
"","do_trial","188","803384","0.0-104.0-0.0","""event"",""trial"",""time""
""fullscreenenter"",""0"",""3611""
","
","
","""event"",""trial"",""time""
""fullscreenenter"",""0"",""3611""
","
","358.59999999403954","","","","","","","","50","0,1,0","1","highway","47","probe-53","0.18334032390445015","0.3994019053185447","0.5947548049052535","1","","","","","","","",""
"","html-keyboard-response","189","804388","0.0-104.0-1.0","""event"",""trial"",""time""
""fullscreenenter"",""0"",""3611""
","
","
","""event"",""trial"",""time""
""fullscreenenter"",""0"",""3611""
","
","null","<p></p>","null","","","","","","","","","","","","","","","","","","","","","","",""
"","do_trial","190","809288","0.0-105.0-0.0","""event"",""trial"",""time""
""fullscreenenter"",""0"",""3611""
","
","
","""event"",""trial"",""time""
""fullscreenenter"",""0"",""3611""
","
","355.90000000596046","","","","","","","","50","0,0,1","1","highway","48","probe-167","0.07065415752383832","0.3483257216490809","0.6427292124241243","0","","","","","","","",""
"","html-keyboard-response","191","810295","0.0-105.0-1.0","""event"",""trial"",""time""
""fullscreenenter"",""0"",""3611""
","
","
","""event"",""trial"",""time""
""fullscreenenter"",""0"",""3611""
","
","null","<p></p>","null","","","","","","","","","","","","","","","","","","","","","","",""
"","do_trial","192","814872","0.0-106.0-0.0","""event"",""trial"",""time""
""fullscreenenter"",""0"",""3611""
","
","
","""event"",""trial"",""time""
""fullscreenenter"",""0"",""3611""
","
","36.29999999701977","","","","","","","","51","0,0,1","1","highway","49","probe-98","0.05135367798499733","0.34903683804775987","0.6374128257940327","1","","","","","","","",""
"","html-keyboard-response","193","815874","0.0-106.0-1.0","""event"",""trial"",""time""
""fullscreenenter"",""0"",""3611""
","
","
","""event"",""trial"",""time""
""fullscreenenter"",""0"",""3611""
","
","null","<p></p>","null","","","","","","","","","","","","","","","","","","","","","","",""
"","do_trial","194","820848","0.0-107.0-0.0","""event"",""trial"",""time""
""fullscreenenter"",""0"",""3611""
","
","
","""event"",""trial"",""time""
""fullscreenenter"",""0"",""3611""
","
","431.09999999403954","","","","","","","","51","0,0,0","1","highway","50","probe-155","0.05196645166235277","0.24910790622370824","0.6537971220021577","0","","","","","","","",""
"","html-keyboard-response","195","821855","0.0-107.0-1.0","""event"",""trial"",""time""
""fullscreenenter"",""0"",""3611""
","
","
","""event"",""trial"",""time""
""fullscreenenter"",""0"",""3611""
","
","null","<p></p>","null","","","","","","","","","","","","","","","","","","","","","","",""
"","do_trial","196","826777","0.0-108.0-0.0","""event"",""trial"",""time""
""fullscreenenter"",""0"",""3611""
","
","
","""event"",""trial"",""time""
""fullscreenenter"",""0"",""3611""
","
","378.70000000298023","","","","","","","","49","0,0,0","1","highway","51","probe-142","0.06059768817780633","0.265216913820215","0.5542807198502124","0","","","","","","","",""
"","html-keyboard-response","197","827779","0.0-108.0-1.0","""event"",""trial"",""time""
""fullscreenenter"",""0"",""3611""
","
","
","""event"",""trial"",""time""
""fullscreenenter"",""0"",""3611""
","
","null","<p></p>","null","","","","","","","","","","","","","","","","","","","","","","",""
"","do_trial","198","832749","0.0-109.0-0.0","""event"",""trial"",""time""
""fullscreenenter"",""0"",""3611""
","
","
","""event"",""trial"",""time""
""fullscreenenter"",""0"",""3611""
","
","426.8999999910593","","","","","","","","51","0,0,1","1","highway","52","probe-197","0.05321890855205871","0.15666823238442576","0.667502148047049","1","","","","","","","",""
"","html-keyboard-response","199","833754","0.0-109.0-1.0","""event"",""trial"",""time""
""fullscreenenter"",""0"",""3611""
","
","
","""event"",""trial"",""time""
""fullscreenenter"",""0"",""3611""
","
","null","<p></p>","null","","","","","","","","","","","","","","","","","","","","","","",""
"","do_trial","200","838704","0.0-110.0-0.0","""event"",""trial"",""time""
""fullscreenenter"",""0"",""3611""
","
","
","""event"",""trial"",""time""
""fullscreenenter"",""0"",""3611""
","
","406.3999999910593","","","","","","","","50","0,0,1","1","highway","53","probe-205","0.09779185615667768","0.27170973715059554","0.758171323432742","0","","","","","","","",""
"","html-keyboard-response","201","839710","0.0-110.0-1.0","""event"",""trial"",""time""
""fullscreenenter"",""0"",""3611""
","
","
","""event"",""trial"",""time""
""fullscreenenter"",""0"",""3611""
","
","null","<p></p>","null","","","","","","","","","","","","","","","","","","","","","","",""
"","do_trial","202","844743","0.0-111.0-0.0","""event"",""trial"",""time""
""fullscreenenter"",""0"",""3611""
","
","
","""event"",""trial"",""time""
""fullscreenenter"",""0"",""3611""
","
","492.30000001192093","","","","","","","","50","1,1,1","1","highway","54","probe-189","0.054863439689126735","0.2831331299677872","0.6503022071222884","1","","","","","","","",""
"","html-keyboard-response","203","845749","0.0-111.0-1.0","""event"",""trial"",""time""
""fullscreenenter"",""0"",""3611""
","
","
","""event"",""trial"",""time""
""fullscreenenter"",""0"",""3611""
","
","null","<p></p>","null","","","","","","","","","","","","","","","","","","","","","","",""
"","do_trial","204","850745","0.0-112.0-0.0","""event"",""trial"",""time""
""fullscreenenter"",""0"",""3611""
","
","
","""event"",""trial"",""time""
""fullscreenenter"",""0"",""3611""
","
","454.8999999910593","","","","","","","","50","0,0,1","1","highway","55","probe-213","0.09542144596740651","0.4119441932649848","0.7075503082340839","0","","","","","","","",""
"","html-keyboard-response","205","851751","0.0-112.0-1.0","""event"",""trial"",""time""
""fullscreenenter"",""0"",""3611""
","
","
","""event"",""trial"",""time""
""fullscreenenter"",""0"",""3611""
","
","null","<p></p>","null","","","","","","","","","","","","","","","","","","","","","","",""
"","do_trial","206","856658","0.0-113.0-0.0","""event"",""trial"",""time""
""fullscreenenter"",""0"",""3611""
","
","
","""event"",""trial"",""time""
""fullscreenenter"",""0"",""3611""
","
","363.79999999701977","","","","","","","","51","0,1,1","1","highway","56","probe-134","0.07096710570377748","0.36697654542409275","0.6714926974383232","1","","","","","","","",""
"","html-keyboard-response","207","857663","0.0-113.0-1.0","""event"",""trial"",""time""
""fullscreenenter"",""0"",""3611""
","
","
","""event"",""trial"",""time""
""fullscreenenter"",""0"",""3611""
","
","null","<p></p>","null","","","","","","","","","","","","","","","","","","","","","","",""
"","do_trial","208","862567","0.0-114.0-0.0","""event"",""trial"",""time""
""fullscreenenter"",""0"",""3611""
","
","
","""event"",""trial"",""time""
""fullscreenenter"",""0"",""3611""
","
","363.3999999910593","","","","","","","","51","0,1,1","1","highway","57","probe-107","0.1783085736646268","0.2862652899987915","0.5594732145300637","1","","","","","","","",""
"","html-keyboard-response","209","863572","0.0-114.0-1.0","""event"",""trial"",""time""
""fullscreenenter"",""0"",""3611""
","
","
","""event"",""trial"",""time""
""fullscreenenter"",""0"",""3611""
","
","null","<p></p>","null","","","","","","","","","","","","","","","","","","","","","","",""
"","do_trial","210","868736","0.0-115.0-0.0","""event"",""trial"",""time""
""fullscreenenter"",""0"",""3611""
","
","
","""event"",""trial"",""time""
""fullscreenenter"",""0"",""3611""
","
","621.5","","","","","","","","51","0,1,0","1","highway","58","probe-05","0.1609485884627899","0.35952070618850135","0.5750647916332878","0","","","","","","","",""
"","html-keyboard-response","211","869741","0.0-115.0-1.0","""event"",""trial"",""time""
""fullscreenenter"",""0"",""3611""
","
","
","""event"",""trial"",""time""
""fullscreenenter"",""0"",""3611""
","
","null","<p></p>","null","","","","","","","","","","","","","","","","","","","","","","",""
"","do_trial","212","874669","0.0-116.0-0.0","""event"",""trial"",""time""
""fullscreenenter"",""0"",""3611""
","
","
","""event"",""trial"",""time""
""fullscreenenter"",""0"",""3611""
","
","381.40000000596046","","","","","","","","50","0,0,1","1","highway","59","probe-110","0.12333112233183542","0.28683877629508475","0.6237567103342179","0","","","","","","","",""
"","html-keyboard-response","213","875675","0.0-116.0-1.0","""event"",""trial"",""time""
""fullscreenenter"",""0"",""3611""
","
","
","""event"",""trial"",""time""
""fullscreenenter"",""0"",""3611""
","
","null","<p></p>","null","","","","","","","","","","","","","","","","","","","","","","",""
"","do_trial","214","880870","0.0-117.0-0.0","""event"",""trial"",""time""
""fullscreenenter"",""0"",""3611""
","
","
","""event"",""trial"",""time""
""fullscreenenter"",""0"",""3611""
","
","654","","","","","","","","49","0,0,1","1","highway","60","probe-47","0.15088755276470264","0.2656641284246032","0.5437715498249202","0","","","","","","","",""
"","html-keyboard-response","215","881874","0.0-117.0-1.0","""event"",""trial"",""time""
""fullscreenenter"",""0"",""3611""
","
","
","""event"",""trial"",""time""
""fullscreenenter"",""0"",""3611""
","
","null","<p></p>","null","","","","","","","","","","","","","","","","","","","","","","",""
"","do_trial","216","886980","0.0-118.0-0.0","""event"",""trial"",""time""
""fullscreenenter"",""0"",""3611""
","
","
","""event"",""trial"",""time""
""fullscreenenter"",""0"",""3611""
","
","562.2999999970198","","","","","","","","50","0,1,1","1","highway","61","probe-219","0.12073383942172655","0.24675450224086434","0.47592282266820896","1","","","","","","","",""
"","html-keyboard-response","217","887985","0.0-118.0-1.0","""event"",""trial"",""time""
""fullscreenenter"",""0"",""3611""
","
","
","""event"",""trial"",""time""
""fullscreenenter"",""0"",""3611""
","
","null","<p></p>","null","","","","","","","","","","","","","","","","","","","","","","",""
"","do_trial","218","892853","0.0-119.0-0.0","""event"",""trial"",""time""
""fullscreenenter"",""0"",""3611""
","
","
","""event"",""trial"",""time""
""fullscreenenter"",""0"",""3611""
","
","328.20000000298023","","","","","","","","50","1,0,0","1","highway","62","probe-60","0.1563441581250267","0.3394015001313477","0.5180173701985409","0","","","","","","","",""
"","html-keyboard-response","219","893858","0.0-119.0-1.0","""event"",""trial"",""time""
""fullscreenenter"",""0"",""3611""
","
","
","""event"",""trial"",""time""
""fullscreenenter"",""0"",""3611""
","
","null","<p></p>","null","","","","","","","","","","","","","","","","","","","","","","",""
"","do_trial","220","898554","0.0-120.0-0.0","""event"",""trial"",""time""
""fullscreenenter"",""0"",""3611""
","
","
","""event"",""trial"",""time""
""fullscreenenter"",""0"",""3611""
","
","153.6000000089407","","","","","","","","51","0,1,1","1","highway","63","probe-07","0.10777564271133167","0.4679124332342826","0.560927169493356","1","","","","","","","",""
"","html-keyboard-response","221","899559","0.0-120.0-1.0","""event"",""trial"",""time""
""fullscreenenter"",""0"",""3611""
","
","
","""event"",""trial"",""time""
""fullscreenenter"",""0"",""3611""
","
","null","<p></p>","null","","","","","","","","","","","","","","","","","","","","","","",""
"","do_trial","222","904470","0.0-121.0-0.0","""event"",""trial"",""time""
""fullscreenenter"",""0"",""3611""
","
","
","""event"",""trial"",""time""
""fullscreenenter"",""0"",""3611""
","
","371.79999999701977","","","","","","","","51","0,0,1","1","highway","64","probe-56","0.19933953961181206","0.4430828082231663","0.5812081497329444","1","","","","","","","",""
"","html-keyboard-response","223","905475","0.0-121.0-1.0","""event"",""trial"",""time""
""fullscreenenter"",""0"",""3611""
","
","
","""event"",""trial"",""time""
""fullscreenenter"",""0"",""3611""
","
","null","<p></p>","null","","","","","","","","","","","","","","","","","","","","","","",""
"","do_trial","224","910644","0.0-122.0-0.0","""event"",""trial"",""time""
""fullscreenenter"",""0"",""3611""
","
","
","""event"",""trial"",""time""
""fullscreenenter"",""0"",""3611""
","
","629.2000000029802","","","","","","","","51","0,0,0","1","highway","65","probe-208","0.1930544456149149","0.29066343220606927","0.5851979179046717","0","","","","","","","",""
"","html-keyboard-response","225","911651","0.0-122.0-1.0","""event"",""trial"",""time""
""fullscreenenter"",""0"",""3611""
","
","
","""event"",""trial"",""time""
""fullscreenenter"",""0"",""3611""
","
","null","<p></p>","null","","","","","","","","","","","","","","","","","","","","","","",""
"","do_trial","226","916572","0.0-123.0-0.0","""event"",""trial"",""time""
""fullscreenenter"",""0"",""3611""
","
","
","""event"",""trial"",""time""
""fullscreenenter"",""0"",""3611""
","
","377","","","","","","","","50","1,0,0","1","highway","66","probe-181","0.20800221842017558","0.27938321813470157","0.6319690174569378","0","","","","","","","",""
"","html-keyboard-response","227","917577","0.0-123.0-1.0","""event"",""trial"",""time""
""fullscreenenter"",""0"",""3611""
","
","
","""event"",""trial"",""time""
""fullscreenenter"",""0"",""3611""
","
","null","<p></p>","null","","","","","","","","","","","","","","","","","","","","","","",""
"","do_trial","228","922435","0.0-124.0-0.0","""event"",""trial"",""time""
""fullscreenenter"",""0"",""3611""
","
","
","""event"",""trial"",""time""
""fullscreenenter"",""0"",""3611""
","
","314.40000000596046","","","","","","","","50","0,1,1","1","highway","67","probe-184","0.24298793914651232","0.2931486335933881","0.6397305932626408","1","","","","","","","",""
"","html-keyboard-response","229","923437","0.0-124.0-1.0","""event"",""trial"",""time""
""fullscreenenter"",""0"",""3611""
","
","
","""event"",""trial"",""time""
""fullscreenenter"",""0"",""3611""
","
","null","<p></p>","null","","","","","","","","","","","","","","","","","","","","","","",""
"","do_trial","230","928852","0.0-125.0-0.0","""event"",""trial"",""time""
""fullscreenenter"",""0"",""3611""
","
","
","""event"",""trial"",""time""
""fullscreenenter"",""0"",""3611""
","
","876","","","","","","","","51","0,1,0","1","highway","68","probe-32","0.18547975810223397","0.3534969588613349","0.4873530047349797","0","","","","","","","",""
"","html-keyboard-response","231","929858","0.0-125.0-1.0","""event"",""trial"",""time""
""fullscreenenter"",""0"",""3611""
","
","
","""event"",""trial"",""time""
""fullscreenenter"",""0"",""3611""
","
","null","<p></p>","null","","","","","","","","","","","","","","","","","","","","","","",""
"","do_trial","232","934728","0.0-126.0-0.0","""event"",""trial"",""time""
""fullscreenenter"",""0"",""3611""
","
","
","""event"",""trial"",""time""
""fullscreenenter"",""0"",""3611""
","
","328.29999999701977","","","","","","","","49","0,1,1","1","highway","69","probe-94","0.32964490762751525","0.3972619044372317","0.4903355064448742","0","","","","","","","",""
"","html-keyboard-response","233","935733","0.0-126.0-1.0","""event"",""trial"",""time""
""fullscreenenter"",""0"",""3611""
","
","
","""event"",""trial"",""time""
""fullscreenenter"",""0"",""3611""
","
","null","<p></p>","null","","","","","","","","","","","","","","","","","","","","","","",""
"","do_bye","234","937240","0.0-127.0-0.0","""event"",""trial"",""time""
""fullscreenenter"",""0"",""3611""
","
","
","""event"",""trial"",""time""
""fullscreenenter"",""0"",""3611""
","
","null","","","","","","","","null","","","","","","","","","","","","","","","","",""
"","break","235","960250","0.0-127.0-1.0","""event"",""trial"",""time""
""fullscreenenter"",""0"",""3611""
","
","
","""event"",""trial"",""time""
""fullscreenenter"",""0"",""3611""
","
","23009.10000000894","<div class='center'><p>Time to take a quick break! You have 2 minutes to rest, but you can move on sooner if you'd like.</p><p> Press the <b>space bar</b> to continue.</p></div>","32","","","","","","","","","","","","","","","","","","","","","","",""
"","do_travel","236","969256","0.0-128.0-0.0","""event"",""trial"",""time""
""fullscreenenter"",""0"",""3611""
","
","
","""event"",""trial"",""time""
""fullscreenenter"",""0"",""3611""
","
","null","","","","","","","","null","","","","","","","","","","","","","","","","",""
"","do_welcome","237","973262","0.0-128.0-1.0","""event"",""trial"",""time""
""fullscreenenter"",""0"",""3611""
","
","
","""event"",""trial"",""time""
""fullscreenenter"",""0"",""3611""
","
","null","","","","","","","","null","","","","","","","","","","","","","","","","",""
"","do_trial","238","978668","0.0-129.0-0.0","""event"",""trial"",""time""
""fullscreenenter"",""0"",""3611""
","
","
","""event"",""trial"",""time""
""fullscreenenter"",""0"",""3611""
","
","865.2000000029802","","","","","","","","49","0,0,1","2","mountain","70","probe-170","0.07972163665373774","0.21053340493330802","1","0","","","","","","","",""
"","html-keyboard-response","239","979673","0.0-129.0-1.0","""event"",""trial"",""time""
""fullscreenenter"",""0"",""3611""
","
","
","""event"",""trial"",""time""
""fullscreenenter"",""0"",""3611""
","
","null","<p></p>","null","","","","","","","","","","","","","","","","","","","","","","",""
"","do_trial","240","984593","0.0-130.0-0.0","""event"",""trial"",""time""
""fullscreenenter"",""0"",""3611""
","
","
","""event"",""trial"",""time""
""fullscreenenter"",""0"",""3611""
","
","377.5","","","","","","","","50","0,0,1","2","mountain","71","probe-74","0.06826984881022471","0.2724850979087178","1","0","","","","","","","",""
"","html-keyboard-response","241","985598","0.0-130.0-1.0","""event"",""trial"",""time""
""fullscreenenter"",""0"",""3611""
","
","
","""event"",""trial"",""time""
""fullscreenenter"",""0"",""3611""
","
","null","<p></p>","null","","","","","","","","","","","","","","","","","","","","","","",""
"","do_trial","242","990493","0.0-131.0-0.0","""event"",""trial"",""time""
""fullscreenenter"",""0"",""3611""
","
","
","""event"",""trial"",""time""
""fullscreenenter"",""0"",""3611""
","
","351.90000000596046","","","","","","","","51","0,0,1","2","mountain","72","probe-81","0.10959072324165277","0.2923478800414014","0.8494990687226203","1","","","","","","","",""
"","html-keyboard-response","243","991499","0.0-131.0-1.0","""event"",""trial"",""time""
""fullscreenenter"",""0"",""3611""
","
","
","""event"",""trial"",""time""
""fullscreenenter"",""0"",""3611""
","
","null","<p></p>","null","","","","","","","","","","","","","","","","","","","","","","",""
"","do_trial","244","996355","0.0-132.0-0.0","""event"",""trial"",""time""
""fullscreenenter"",""0"",""3611""
","
","
","""event"",""trial"",""time""
""fullscreenenter"",""0"",""3611""
","
","313.5","","","","","","","","51","0,0,1","2","mountain","73","probe-85","0.07453615339618766","0.2298304296698943","0.8153831585153586","1","","","","","","","",""
"","html-keyboard-response","245","997361","0.0-132.0-1.0","""event"",""trial"",""time""
""fullscreenenter"",""0"",""3611""
","
","
","""event"",""trial"",""time""
""fullscreenenter"",""0"",""3611""
","
","null","<p></p>","null","","","","","","","","","","","","","","","","","","","","","","",""
"","do_trial","246","1002550","0.0-133.0-0.0","""event"",""trial"",""time""
""fullscreenenter"",""0"",""3611""
","
","
","""event"",""trial"",""time""
""fullscreenenter"",""0"",""3611""
","
","650.2999999970198","","","","","","","","51","0,0,1","2","mountain","74","probe-228","0.06526060233609758","0.19180759938832823","0.7073981100707785","1","","","","","","","",""
"","html-keyboard-response","247","1003554","0.0-133.0-1.0","""event"",""trial"",""time""
""fullscreenenter"",""0"",""3611""
","
","
","""event"",""trial"",""time""
""fullscreenenter"",""0"",""3611""
","
","null","<p></p>","null","","","","","","","","","","","","","","","","","","","","","","",""
"","do_trial","248","1008724","0.0-134.0-0.0","""event"",""trial"",""time""
""fullscreenenter"",""0"",""3611""
","
","
","""event"",""trial"",""time""
""fullscreenenter"",""0"",""3611""
","
","625","","","","","","","","50","0,0,1","2","mountain","75","probe-77","0.08490876814376361","0.4009604708339697","0.5451699045510408","0","","","","","","","",""
"","html-keyboard-response","249","1009730","0.0-134.0-1.0","""event"",""trial"",""time""
""fullscreenenter"",""0"",""3611""
","
","
","""event"",""trial"",""time""
""fullscreenenter"",""0"",""3611""
","
","null","<p></p>","null","","","","","","","","","","","","","","","","","","","","","","",""
"","do_trial","250","1014843","0.0-135.0-0.0","""event"",""trial"",""time""
""fullscreenenter"",""0"",""3611""
","
","
","""event"",""trial"",""time""
""fullscreenenter"",""0"",""3611""
","
","568.5","","","","","","","","51","0,1,1","2","mountain","76","probe-187","0.19583073731435163","0.4195777404957955","0.4906548221390776","1","","","","","","","",""
"","html-keyboard-response","251","1015850","0.0-135.0-1.0","""event"",""trial"",""time""
""fullscreenenter"",""0"",""3611""
","
","
","""event"",""trial"",""time""
""fullscreenenter"",""0"",""3611""
","
","null","<p></p>","null","","","","","","","","","","","","","","","","","","","","","","",""
"","do_trial","252","1021958","0.0-136.0-0.0","""event"",""trial"",""time""
""fullscreenenter"",""0"",""3611""
","
","
","""event"",""trial"",""time""
""fullscreenenter"",""0"",""3611""
","
","1565.2999999970198","","","","","","","","51","0,0,0","2","mountain","77","probe-58","0.05360160520944829","0.38285390838716865","0.40724094243099346","0","","","","","","","",""
"","html-keyboard-response","253","1022963","0.0-136.0-1.0","""event"",""trial"",""time""
""fullscreenenter"",""0"",""3611""
","
","
","""event"",""trial"",""time""
""fullscreenenter"",""0"",""3611""
","
","null","<p></p>","null","","","","","","","","","","","","","","","","","","","","","","",""
"","do_trial","254","1027939","0.0-137.0-0.0","""event"",""trial"",""time""
""fullscreenenter"",""0"",""3611""
","
","
","""event"",""trial"",""time""
""fullscreenenter"",""0"",""3611""
","
","436.90000000596046","","","","","","","","50","0,0,0","2","mountain","78","probe-31","0.17924577376530437","0.4253909535493462","0.455490050771919","0","","","","","","","",""
"","html-keyboard-response","255","1028944","0.0-137.0-1.0","""event"",""trial"",""time""
""fullscreenenter"",""0"",""3611""
","
","
","""event"",""trial"",""time""
""fullscreenenter"",""0"",""3611""
","
","null","<p></p>","null","","","","","","","","","","","","","","","","","","","","","","",""
"","do_trial","256","1033767","0.0-138.0-0.0","""event"",""trial"",""time""
""fullscreenenter"",""0"",""3611""
","
","
","""event"",""trial"",""time""
""fullscreenenter"",""0"",""3611""
","
","283.70000000298023","","","","","","","","49","0,0,1","2","mountain","79","probe-39","0.33445057365698533","0.3436524243746842","0.48697792479800783","0","","","","","","","",""
"","html-keyboard-response","257","1034773","0.0-138.0-1.0","""event"",""trial"",""time""
""fullscreenenter"",""0"",""3611""
","
","
","""event"",""trial"",""time""
""fullscreenenter"",""0"",""3611""
","
","null","<p></p>","null","","","","","","","","","","","","","","","","","","","","","","",""
"","do_trial","258","1039854","0.0-139.0-0.0","""event"",""trial"",""time""
""fullscreenenter"",""0"",""3611""
","
","
","""event"",""trial"",""time""
""fullscreenenter"",""0"",""3611""
","
","538.7999999970198","","","","","","","","51","0,0,1","2","mountain","80","probe-13","0.32952382329179813","0.4343385839459156","0.5175302872289417","1","","","","","","","",""
"","html-keyboard-response","259","1040856","0.0-139.0-1.0","""event"",""trial"",""time""
""fullscreenenter"",""0"",""3611""
","
","
","""event"",""trial"",""time""
""fullscreenenter"",""0"",""3611""
","
","null","<p></p>","null","","","","","","","","","","","","","","","","","","","","","","",""
"","do_trial","260","1045814","0.0-140.0-0.0","""event"",""trial"",""time""
""fullscreenenter"",""0"",""3611""
","
","
","""event"",""trial"",""time""
""fullscreenenter"",""0"",""3611""
","
","415.20000000298023","","","","","","","","49","0,0,1","2","mountain","81","probe-163","0.27114488750671134","0.4117654855280624","0.4213482987136174","0","","","","","","","",""
"","html-keyboard-response","261","1046819","0.0-140.0-1.0","""event"",""trial"",""time""
""fullscreenenter"",""0"",""3611""
","
","
