"success","trial_type","trial_index","time_elapsed","internal_node_id","rt","stimulus","key_press","subject_id","response","choice_outcomes","context_n","context_img_id","trial_n","probe_img_id","pR_red","pR_white","pR_black","outcome","is_valid","image_to_show","probed_trial","probed_context","correct","context_id"
"true","fullscreen","0","7432","0.0-0.0","","","","","","","","","","","","","","","","","","","",""
"","pavlovia","1","7441","0.0-1.0","","","","","","","","","","","","","","","","","","","",""
"","html-keyboard-response","2","19916","0.0-2.0","12472.200000047684","<div class='center'><p>Welcome! This experiment will last ~1 hour. In this experiment, you are the head captain of a pirate ship traveling around the world to different places. You will complete several different tasks during this experiment. Here is an overview of these tasks:</p><br><p>1. Tutorial and quiz</p><p>2. Pick a pirate game in 6 different places</p><p>3. Pick a pirate game and memory game</p><p>4. Final questions and payment</p><br><p>If you complete the entire experiment, you will receive $15 and a possible bonus payment.</p><p><b>[Press the space bar to begin the tutorial]</b></p></div>","32","60feed4d6997be97f5d0dea8","","","","","","","","","","","","","","","",""
"","html-keyboard-response","3","29627","0.0-3.0","9707.399999856949","<div class='center'><p>You are the head captain of a pirate ship.</p><p> Your pirates rob other ships as they leave the marketplace port.</p> These ships have just sold all their goods at the marketplace, so they have lots and lots of gold on them.</p><p><img src='run_exp/static/images/ship_center.png' height='400'></p><p><b>[Press the space bar to continue]</b></p></div>","32","","","","","","","","","","","","","","","","",""
"","html-keyboard-response","4","38399","0.0-4.0","8770.900000095367","<div class='center'><p>As the head captain, you do not have to rob any ships yourself.</p><p>You get to choose which pirate you want to rob the next ship. </p><p>If they are successful at robbing the ship, then you will get gold coins.</p><p> If they are not successful, then you will get no gold coins.</p><p> The more coins you collect, the more bonus money you will win. So, choose your pirate wisely.</p><p><img src='run_exp/static/images/goal.png' height='400'></p><p><b>[Press the space bar to continue]</b></p><div>","32","","","","","","","","","","","","","","","","",""
"","html-keyboard-response","5","49619","0.0-5.0","11218.700000047684","<div class='center'><p>Even the most skilled pirate will not be able to rob EVERY ship.</p><p> Some ships will have very strong defenses against attacks.</p><p> For example, blue beard, here,  is very good at robbing ships.</p><p> You can press the <b>‘1’</b> button on the keyboard to choose him.</p><p> Try choosing him 10 times to see how often he is successful at robbing ships. </p><p><img src='run_exp/static/images/blue.png' height='500'></p></div>","49","","","","","","","","","","","","","","","","",""
"","html-keyboard-response","6","51123","0.0-6.0","null","<br><br><br><br><p><img src='run_exp/static/images/blue_win.png' height='500'></p>","null","","","","","","","","","","","","","","","","",""
"","html-keyboard-response","7","51223","0.0-7.0","98.59999990463257","<br><br><br><br><p><img src='run_exp/static/images/blue.png' height='500'></p>","49","","","","","","","","","","","","","","","","",""
"","html-keyboard-response","8","52726","0.0-8.0","null","<br><br><br><br><p><img src='run_exp/static/images/blue_win.png' height='500'></p>","null","","","","","","","","","","","","","","","","",""
"","html-keyboard-response","9","53573","0.0-9.0","845.8999998569489","<br><br><br><br><p><img src='run_exp/static/images/blue.png' height='500'></p>","49","","","","","","","","","","","","","","","","",""
"","html-keyboard-response","10","55075","0.0-10.0","null","<br><br><br><br><p><img src='run_exp/static/images/blue_win.png' height='500'></p>","null","","","","","","","","","","","","","","","","",""
"","html-keyboard-response","11","55161","0.0-11.0","84.40000009536743","<br><br><br><br><p><img src='run_exp/static/images/blue.png' height='500'></p>","49","","","","","","","","","","","","","","","","",""
"","html-keyboard-response","12","56667","0.0-12.0","null","<br><br><br><br><p><img src='run_exp/static/images/blue_no_win.png' height='500'></p>","null","","","","","","","","","","","","","","","","",""
"","html-keyboard-response","13","57271","0.0-13.0","603.2999999523163","<br><br><br><br><p><img src='run_exp/static/images/blue.png' height='500'></p>","49","","","","","","","","","","","","","","","","",""
"","html-keyboard-response","14","58776","0.0-14.0","null","<br><br><br><br><p><img src='run_exp/static/images/blue_win.png' height='500'></p>","null","","","","","","","","","","","","","","","","",""
"","html-keyboard-response","15","59092","0.0-15.0","315.2999999523163","<br><br><br><br><p><img src='run_exp/static/images/blue.png' height='500'></p>","49","","","","","","","","","","","","","","","","",""
"","html-keyboard-response","16","60598","0.0-16.0","null","<br><br><br><br><p><img src='run_exp/static/images/blue_win.png' height='500'></p>","null","","","","","","","","","","","","","","","","",""
"","html-keyboard-response","17","60894","0.0-17.0","295.2999999523163","<br><br><br><br><p><img src='run_exp/static/images/blue.png' height='500'></p>","49","","","","","","","","","","","","","","","","",""
"","html-keyboard-response","18","62400","0.0-18.0","null","<br><br><br><br><p><img src='run_exp/static/images/blue_win.png' height='500'></p>","null","","","","","","","","","","","","","","","","",""
"","html-keyboard-response","19","62631","0.0-19.0","229.80000019073486","<br><br><br><br><p><img src='run_exp/static/images/blue.png' height='500'></p>","49","","","","","","","","","","","","","","","","",""
"","html-keyboard-response","20","64133","0.0-20.0","null","<br><br><br><br><p><img src='run_exp/static/images/blue_no_win.png' height='500'></p>","null","","","","","","","","","","","","","","","","",""
"","html-keyboard-response","21","64370","0.0-21.0","236.59999990463257","<br><br><br><br><p><img src='run_exp/static/images/blue.png' height='500'></p>","49","","","","","","","","","","","","","","","","",""
"","html-keyboard-response","22","65875","0.0-22.0","null","<br><br><br><br><p><img src='run_exp/static/images/blue_win.png' height='500'></p>","null","","","","","","","","","","","","","","","","",""
"","html-keyboard-response","23","66161","0.0-23.0","285.2999999523163","<br><br><br><br><p><img src='run_exp/static/images/blue.png' height='500'></p>","49","","","","","","","","","","","","","","","","",""
"","html-keyboard-response","24","67667","0.0-24.0","null","<br><br><br><br><p><img src='run_exp/static/images/blue_win.png' height='500'></p>","null","","","","","","","","","","","","","","","","",""
"","html-keyboard-response","25","70117","0.0-25.0","2449.5","<div class='center'><p> See, he was successful at robbing the ships most of the time but not every time. </p><p><b>[Press the space bar to continue]</b></p></div>","32","","","","","","","","","","","","","","","","",""
"","html-keyboard-response","26","77318","0.0-26.0","7199.099999904633","<div class='center'><p>In the game, you will get to choose which of three pirates you want to rob the next ship. <p>Press the <b>‘1’</b> button on your keyboard to pick the pirate with the red beard.</p><p> Press <b>‘2’</b> to pick the pirate with the white beard.</p><p> Press <b>‘3’</b> to pick the pirate with the black beard.</p><p>Try picking a pirate now!</p><p><img src='run_exp/static/images/all_pirates.png' height='500'></p></div>","51","","","","","","","","","","","","","","","","",""
"","html-keyboard-response","27","78920","0.0-27.0-0.0","1598.5999999046326","<div class='center'><p>This pirate was successful at robbing the ship!</p><p><img src='run_exp/static/images/black_win.png' height='500'></p><p><b>[Press the space bar to continue]</b></p></div>","32","","","","","","","","","","","","","","","","",""
"","html-keyboard-response","28","81016","0.0-27.0-1.0","2094.399999856949","<div class='center'><p>Now try choosing another</p><p><img src='run_exp/static/images/all_pirates.png' height='500'></p></div>","50","","","","","","","","","","","","","","","","",""
"","html-keyboard-response","29","82157","0.0-28.0-0.0","1139.5","<div class='center'><p>This pirate was not successful at robbing the ship!</p><p><img src='run_exp/static/images/white_no_win.png' height='500'></p><p><b>[Press the space bar to continue]</b></p></div>","32","","","","","","","","","","","","","","","","",""
"","html-keyboard-response","30","85676","0.0-29.0-0.0","3518.100000143051","<div class='center'><p>You’ll stop at these 6 places on your journey.</p><p><img src='run_exp/static/images/all_contexts.png' height='500'></p><p><b>[Press the space bar to continue]</b></p></div>","32","","","","","","","","","","","","","","","","",""
"","html-keyboard-response","31","90122","0.0-29.0-1.0","4444.700000047684","<div class='center'><p>How good a pirate is at robbing ships will depend on the current place.</p><p> Some pirates will have been to the place before, and will have more experience robbing ships there.</p><p>So, they will be more successful at stealing gold and bringing it back to you.</p><p><b>[Press the space bar to continue]</b></p></div>","32","","","","","","","","","","","","","","","","",""
"","html-keyboard-response","32","99531","0.0-29.0-2.0","9407.799999952316","<div class='center'><p>How successful a pirate is at robbing ships can also change in a place.<p> Ships may hear about the pirates coming and will improve their defenses. This may make it more difficult to rob them.</p><p> Ships may also grow lazy and lower their defenses. This may make it easier to rob them.</p><br><p>Things are always changing on the high seas! So, try your best to pay attention!</p><p><img src='run_exp/static/images/contingency.png' height='500'></p><p><b>[Press the space bar to continue]</b></p></div>","32","","","","","","","","","","","","","","","","",""
"","html-keyboard-response","33","117053","0.0-29.0-3.0","17521.099999904633","<div class='center'><p>Once you choose a pirate to rob a ship, you’ll be shown the ship they are robbing.</p><p>The ship will have a picture of the item they sold at the marketplace.</p><p> Try your best to remember the ship and where you saw the ship.</p><p> You’ll have to remember this for later, and remembering this correctly will help you win more bonus money!</p><p>You can remember the ship by remembering the item they sold at the marketplace</p><p>A helpful strategy is to try to come up with a story of the chosen pirate and ship’s item interacting with the scene.</p><p> For example, a ship might have sold travel mugs and you could imagine red beard walking through the city with a travel mug. </p><p>Or imagine an apple falling from a tree into white beard's hands in the forest.</p><p><img src='run_exp/static/images/example_probe.png' height='500'></p><p><b>[Press the space bar to continue]</b></p></div>","32","","","","","","","","","","","","","","","","",""
"","html-keyboard-response","34","122132","0.0-29.0-4.0","5078.099999904633","<div class='center'><p>If you don’t make your choice fast enough, you’ll have to wait a few seconds before you can make another one. </p><p>You can’t win more gold. You just have to sit and wait.</p><p><img src='run_exp/static/images/hurry_up.png' height='500'></p><p><b>[Press the space bar to continue]</b></p></div>","32","","","","","","","","","","","","","","","","",""
"","html-keyboard-response","35","148712","0.0-29.0-5.0","26579.400000095367","<div class='center'><p>Again, you have two important things to do: </p><b><p> 1. Pick the pirate who you think will be most successful at robbing the next ship.</p></b><b><p> 2. Remember where a pirate robbed a ship.</p> </b><p>Both are important in determining how much bonus money you’ll win.</p><br><p>Let’s try a practice game. The game will start by showing you the pirates. First pick a pirate using the <b> 1, 2, 3 </b> buttons on your keyboard. When you are shown a ship, try to remember the place you’re in by making up a story.</p><p> You only have 3 seconds to pick a pirate, so please make a choice quickly! If you are too slow, you’ll have to wait a bit during the time out.</p><p> Don’t feel rushed, but please do try to make a choice every time.</p><p>How good a pirate is at robbing a ship will change depending on the place they are in and how good the defenses are of the ship.</p> <p>This is just a practice game, so you’re not playing for money. </p><p>You’ll receive a bag which may or may not contain gold coins.</p><p> In the real game, though, you’ll be able to see whether or not you received the gold coins.</p><p> Good luck, remember press <b>'1'</b> to choose red beard, <b>'2'</b> to choose white beard, and <b>'3'</b> to choose black beard</p><p><b>[Press the space bar to begin the practice game]</b></p></div>","32","","","","","","","","","","","","","","","","",""
"","do_trial_prac","36","154547","0.0-29.0-6.0","1322.0999999046326","","","","49","","","","","","","","","","","","","","",""
"","do_trial_prac","37","161835","0.0-29.0-7.0","2780.7000000476837","","","","49","","","","","","","","","","","","","","",""
"","do_trial_prac","38","167841","0.0-29.0-8.0","null","","","","null","","","","","","","","","","","","","","",""
"","do_trial_prac","39","172805","0.0-29.0-9.0","455","","","","50","","","","","","","","","","","","","","",""
"","do_trial_prac","40","178194","0.0-29.0-10.0","880","","","","50","","","","","","","","","","","","","","",""
"","html-keyboard-response","41","183115","0.0-29.0-11.0","4919.5","<div class='center'><p>Great job on the practice game!</p><p> Now, you will be asked you some true or false questions to make sure you really understand the rules of the game.</p><p> Press <b>'1'</b> on the keyboard for true and press <b>'2'</b> for false.</p><p><b>[Press the space bar to begin the quiz]</b></p></div>","32","","","","","","","","","","","","","","","","",""
"","html-keyboard-response","42","187435","0.0-29.0-12.0","4318.200000047684","<div class='center'><p>You win bonus money by making choices as fast as possible.</p><p>Press 1 for true and press  2 for false.</p></div>","50","","","","","","","","","","","","","","","","",""
"","html-keyboard-response","43","188333","0.0-30.0-0.0","896.9000000953674","<br><br><br><br><p>That's correct!</p> <p><b>[press the space bar to continue with the quiz]</b></p>","32","","","","","","","","","","","","","","","","",""
"","html-keyboard-response","44","192997","0.0-30.0-1.0","4662.199999809265","<div class='center'><p>You press the <b>‘3’</b> button on the keyboard to choose the red bearded pirate? </p><p>Press 1 for true and press  2 for false.</p></div>","50","","","","","","","","","","","","","","","","",""
"","html-keyboard-response","45","193471","0.0-31.0-0.0","473.59999990463257","<br><br><br><br><p>That's correct!</p> <p><b>[press the space bar to continue with the quiz]</b></p>","32","","","","","","","","","","","","","","","","",""
"","html-keyboard-response","46","195848","0.0-31.0-1.0","2376.2999999523163","<div class='center'><p>A pirate will always be equally successful at robbing ships in each place</p><p>Press 1 for true and press  2 for false.</p></div>","50","","","","","","","","","","","","","","","","",""
"","html-keyboard-response","47","196336","0.0-32.0-0.0","487.7000000476837","<br><br><br><br><p>That's correct!</p> <p><b>[press the space bar to continue with the quiz]</b></p>","32","","","","","","","","","","","","","","","","",""
"","html-keyboard-response","48","198051","0.0-32.0-1.0","1714.2000000476837","<div class='center'><p>You should remember the place where a pirate robbed a ship.</p><p>Press 1 for true and press  2 for false.</p></div>","49","","","","","","","","","","","","","","","","",""
"","html-keyboard-response","49","198654","0.0-33.0-0.0","589.1999998092651","<br><br><br><br><p>That's correct!</p> <p><b>[press the space bar to continue with the quiz]</b></p>","32","","","","","","","","","","","","","","","","",""
"","html-keyboard-response","50","199515","0.0-34.0-0.0","859.7999999523163","<br><br><br><br><p>Good job! You’re now ready to move on to the real game!</p> <p><br>[press the space bar to begin!]</br></p>","32","","","","","","","","","","","","","","","","",""
"","do_welcome","51","201024","0.0-35.0-0.0","null","","","","null","","","","","","","","","","","","","","",""
"","do_trial","52","208474","0.0-36.0-0.0","1900.7999999523163","","","","49","1,0,0","0","forest","0","probe-24","1","0.4","0.1","1","","","","","",""
"","do_trial","53","215570","0.0-37.0-0.0","1546.5","","","","50","1,0,0","0","forest","1","probe-81","1","0.40947090670875136","0.05356481955296909","0","","","","","",""
"","do_trial","54","222417","0.0-38.0-0.0","1299.1000001430511","","","","51","1,1,0","0","forest","2","probe-42","1","0.5172640784875199","0.06961187494487085","0","","","","","",""
"","do_trial","55","229881","0.0-39.0-0.0","1912.4000000953674","","","","49","1,1,0","0","forest","3","probe-75","1","0.4583034531404562","0.08960785885311305","1","","","","","",""
"","do_trial","56","236987","0.0-40.0-0.0","1553.9000000953674","","","","50","1,0,0","0","forest","4","probe-91","0.8515928361502383","0.4284840079785719","0.10520856876488058","0","","","","","",""
"","do_trial","57","243465","0.0-41.0-0.0","927.7000000476837","","","","49","0,0,0","0","forest","5","probe-47","0.9016250327580211","0.3635228465063208","0.07013166564668472","0","","","","","",""
"","do_trial","58","250158","0.0-42.0-0.0","1142.6999998092651","","","","49","1,0,0","0","forest","6","probe-04","0.8704334190526036","0.30520482418743894","0.09830072142955336","1","","","","","",""
"","do_trial","59","256177","0.0-43.0-0.0","470.2999999523163","","","","50","1,1,0","0","forest","7","probe-174","0.8748198615755314","0.3422435322683465","0.07744622667362946","1","","","","","",""
"","do_trial","60","264106","0.0-44.0-0.0","2379.2999999523163","","","","50","1,0,0","0","forest","8","probe-202","0.9332016083055078","0.43859282360971913","0.12559512793551042","0","","","","","",""
"","do_trial","61","270397","0.0-45.0-0.0","737.5999999046326","","","","49","1,1,1","0","forest","9","probe-26","0.8260848394871039","0.3788336395061543","0.11956183744060397","1","","","","","",""
"","do_trial","62","276530","0.0-46.0-0.0","577.2999999523163","","","","51","1,0,0","0","forest","10","probe-05","0.6064477193979875","0.42194388022873325","0.23767391445670202","0","","","","","",""
"","do_trial","63","282404","0.0-47.0-0.0","322.7999999523163","","","","51","1,0,0","0","forest","11","probe-78","0.4365440520565134","0.6538595561936706","0.4400602542201707","0","","","","","",""
"","do_trial","64","288480","0.0-48.0-0.0","527","","","","49","0,0,0","0","forest","12","probe-107","0.23578268266877153","0.5945009624336134","0.3987101768701401","0","","","","","",""
"","do_trial","65","294317","0.0-49.0-0.0","287.59999990463257","","","","49","0,0,0","0","forest","13","probe-68","0.17277335470717967","0.7229427020217114","0.35054847913246917","0","","","","","",""
"","do_trial","66","300287","0.0-50.0-0.0","417.7000000476837","","","","50","1,0,0","0","forest","14","probe-54","0.11289779155424853","0.76934019216857","0.45912092625439643","0","","","","","",""
"","do_trial","67","306152","0.0-51.0-0.0","313.2000000476837","","","","50","0,0,0","0","forest","15","probe-18","0.16939889029577732","0.8089309972241228","0.42716670185694194","0","","","","","",""
"","do_trial","68","312043","0.0-52.0-0.0","337.5","","","","49","0,1,0","0","forest","16","probe-160","0.0817905432561976","0.850660939710981","0.3976707863216434","0","","","","","",""
"","do_trial","69","318214","0.0-53.0-0.0","623","","","","51","0,0,0","0","forest","17","probe-100","0.06127486757252138","0.8736348655955364","0.2959276688055365","0","","","","","",""
"","do_trial","70","324073","0.0-54.0-0.0","308.2000000476837","","","","49","0,1,1","0","forest","18","probe-136","0.14663756341870574","0.9372051334005791","0.4662380991064843","0","","","","","",""
"","do_trial","71","330184","0.0-55.0-0.0","559","","","","50","0,1,0","0","forest","19","probe-179","0.1449271464933158","0.9025549094347829","0.4167800280543152","1","","","","","",""
"","do_trial","72","336957","0.0-56.0-0.0","1221.0999999046326","","","","50","0,0,0","0","forest","20","probe-87","0.11470253481889144","0.8195101980270555","0.3059844747033268","0","","","","","",""
"","do_trial","73","342853","0.0-57.0-0.0","345.7999999523163","","","","49","1,0,0","0","forest","21","probe-98","0.17407233962100807","0.9247899637214294","0.355473491784021","1","","","","","",""
"","do_trial","74","348822","0.0-58.0-0.0","417.59999990463257","","","","49","0,0,1","0","forest","22","probe-127","0.062276050284163185","0.835406245969983","0.3922221130387916","0","","","","","",""
"","do_trial","75","354901","0.0-59.0-0.0","529.2999999523163","","","","51","0,1,0","0","forest","23","probe-212","0.07070752687072981","0.8344905201096232","0.30063764198285176","0","","","","","",""
"","do_trial","76","361076","0.0-60.0-0.0","622.7000000476837","","","","51","0,1,0","0","forest","24","probe-65","0.056089919496538576","0.8753645547849367","0.3828805891880391","0","","","","","",""
"","do_trial","77","367029","0.0-61.0-0.0","405.40000009536743","","","","49","0,1,0","0","forest","25","probe-16","0.1166356165005329","0.8167148266370278","0.3600458402093783","0","","","","","",""
"","do_trial","78","373045","0.0-62.0-0.0","464.5","","","","49","0,1,1","0","forest","26","probe-111","0.05240295876300593","0.6782567783331599","0.31739342975575485","0","","","","","",""
"","do_trial","79","379177","0.0-63.0-0.0","582.5","","","","50","0,0,0","0","forest","27","probe-154","0.07824313917163346","0.6557233536958991","0.3138544429170949","0","","","","","",""
"","do_trial","80","385814","0.0-64.0-0.0","1089.5","","","","50","0,0,1","0","forest","28","probe-72","0.09850710895054807","0.7246540654221684","0.43042236846799214","0","","","","","",""
"","do_trial","81","391778","0.0-65.0-0.0","411.2999999523163","","","","51","1,1,0","0","forest","29","probe-200","0.30905764637170924","0.8132024742492878","0.5421538003385798","0","","","","","",""
"","do_trial","82","397838","0.0-66.0-0.0","510.5","","","","51","0,1,1","0","forest","30","probe-138","0.22756587926602503","0.7404074769774381","0.40185644959625316","1","","","","","",""
"","do_trial","83","404478","0.0-67.0-0.0","1089.2999999523163","","","","51","0,1,0","0","forest","31","probe-132","0.13079560440475635","0.7620112018155856","0.3585553129829363","0","","","","","",""
"","do_trial","84","412304","0.0-68.0-0.0","2278","","","","49","0,1,1","0","forest","32","probe-32","0.15357039788616628","0.8942621037372068","0.3585016617372771","0","","","","","",""
"","do_trial","85","420292","0.0-69.0-0.0","2434.5999999046326","","","","50","0,1,0","0","forest","33","probe-102","0.08963766829810804","0.8332479419029672","0.39016774088480516","1","","","","","",""
"","do_trial","86","426197","0.0-70.0-0.0","354.80000019073486","","","","50","0,1,0","0","forest","34","probe-117","0.18718634280497476","0.8116071504173963","0.4074416745615195","1","","","","","",""
"","do_trial","87","432156","0.0-71.0-0.0","409.59999990463257","","","","50","1,1,0","0","forest","35","probe-156","0.3724084349624585","0.81889208299255","0.30194784443551315","1","","","","","",""
"","do_trial","88","438459","0.0-72.0-0.0","752.2000000476837","","","","50","0,0,0","0","forest","36","probe-73","0.3405339290274596","0.6894078283264166","0.21400940128392926","0","","","","","",""
"","do_trial","89","444494","0.0-73.0-0.0","488","","","","50","0,1,0","0","forest","37","probe-230","0.29169975969368755","0.744163885482589","0.25396423615165875","1","","","","","",""
"","do_trial","90","451271","0.0-74.0-0.0","1228.3999998569489","","","","51","0,1,0","0","forest","38","probe-103","0.27688300024316914","0.6740210408647143","0.46845802072133935","0","","","","","",""
"","do_trial","91","457153","0.0-75.0-0.0","330.89999985694885","","","","49","0,1,1","0","forest","39","probe-185","0.2565601867843481","0.7147613947593768","0.5008305897834879","0","","","","","",""
"","do_bye","92","458665","0.0-76.0-0.0","null","","","","null","","","","","","","","","","","","","","",""
"","do_travel","93","464671","0.0-77.0-0.0","null","","","","null","","","","","","","","","","","","","","",""
"","do_welcome","94","466178","0.0-77.0-1.0","null","","","","null","","","","","","","","","","","","","","",""
"","do_trial","95","472947","0.0-78.0-0.0","1223.6000001430511","","","","49","0,1,0","1","mountain","40","probe-234","0.3652312944878885","1","0.4806189131026901","0","","","","","",""
"","do_trial","96","478967","0.0-79.0-0.0","472.2000000476837","","","","50","1,1,0","1","mountain","41","probe-19","0.42534698702319323","1","0.6852683487363193","1","","","","","",""
"","do_trial","97","484905","0.0-80.0-0.0","390.5","","","","50","0,1,1","1","mountain","42","probe-183","0.3070567614282685","1","0.7742292171123241","1","","","","","",""
"","do_trial","98","490873","0.0-81.0-0.0","420.7000000476837","","","","50","0,1,1","1","mountain","43","probe-31","0.1848688444811383","1","0.5716537844130362","1","","","","","",""
"","do_trial","99","497068","0.0-82.0-0.0","643.2000000476837","","","","50","0,1,0","1","mountain","44","probe-134","0.07683992860513987","0.9121822806504132","0.3767727338437945","1","","","","","",""
"","do_trial","100","503228","0.0-83.0-0.0","608.2000000476837","","","","50","0,1,1","1","mountain","45","probe-158","0.08883203125750143","0.9451289131314776","0.3945115277587034","1","","","","","",""
"","do_trial","101","509257","0.0-84.0-0.0","479.5","","","","50","0,1,0","1","mountain","46","probe-80","0.15803501191246072","0.8351481036622633","0.4471053188132963","1","","","","","",""
"","do_trial","102","515624","0.0-85.0-0.0","819","","","","50","0,1,0","1","mountain","47","probe-88","0.20986582537098905","0.9078875566201172","0.24007172803755583","1","","","","","",""
"","do_trial","103","521694","0.0-86.0-0.0","517.1999998092651","","","","50","0,1,1","1","mountain","48","probe-240","0.0901891508382699","0.796127619997681","0.15965121277572053","1","","","","","",""
"","do_trial","104","527598","0.0-87.0-0.0","350.30000019073486","","","","50","0,0,0","1","mountain","49","probe-84","0.08729789689337583","0.6236875339862284","0.2269212026952187","0","","","","","",""
"","do_trial","105","533516","0.0-88.0-0.0","371.2999999523163","","","","51","0,0,0","1","mountain","50","probe-113","0.15153948402341044","0.4034541280695927","0.542522332204524","0","","","","","",""
"","do_trial","106","539515","0.0-89.0-0.0","450.7999999523163","","","","51","0,1,1","1","mountain","51","probe-07","0.26708316133117","0.08370399835572012","0.5782680560477841","1","","","","","",""
"","do_trial","107","545739","0.0-90.0-0.0","672.0999999046326","","","","51","0,0,1","1","mountain","52","probe-163","0.4249536405823467","0.11517508791648785","0.682411638136182","1","","","","","",""
"","do_trial","108","552194","0.0-91.0-0.0","902.2999999523163","","","","51","1,0,0","1","mountain","53","probe-178","0.5104832433287713","0.10478005084828046","0.5440021820319774","0","","","","","",""
"","do_trial","109","558066","0.0-92.0-0.0","320.5","","","","49","0,0,1","1","mountain","54","probe-175","0.6000043341699172","0.09210391501598986","0.702975214816065","0","","","","","",""
"","do_trial","110","563991","0.0-93.0-0.0","371.60000014305115","","","","50","0,1,1","1","mountain","55","probe-115","0.5455335082751525","0.10302457252779186","0.7247579245786656","1","","","","","",""
"","do_trial","111","570204","0.0-94.0-0.0","661.5","","","","50","1,0,0","1","mountain","56","probe-03","0.5190187284313502","0.14231274806733507","0.7741672812488283","0","","","","","",""
"","do_trial","112","576215","0.0-95.0-0.0","463.7999999523163","","","","50","0,0,1","1","mountain","57","probe-21","0.5957261622835143","0.11732498950777016","0.8329336996581924","0","","","","","",""
"","do_trial","113","582570","0.0-96.0-0.0","806.0999999046326","","","","50","0,0,0","1","mountain","58","probe-161","0.6079217753237743","0.18460950091016148","0.8371696265900234","0","","","","","",""
"","do_trial","114","588193","0.0-97.0-0.0","71.90000009536743","","","","51","0,0,1","1","mountain","59","probe-126","0.4406092395233056","0.1574476920889404","0.8199137360355934","1","","","","","",""
"","do_trial","115","594928","0.0-98.0-0.0","1183.5999999046326","","","","51","0,0,1","1","mountain","60","probe-43","0.20458825028237493","0.15493629908266546","0.8645577139595588","1","","","","","",""
"","do_trial","116","601390","0.0-99.0-0.0","910.7999999523163","","","","51","0,0,0","1","mountain","61","probe-20","0.29232053067725516","0.06266441321210266","0.8527872051295147","0","","","","","",""
"","do_trial","117","607548","0.0-100.0-0.0","608.5999999046326","","","","50","0,0,1","1","mountain","62","probe-190","0.29813870417514254","0.10185020408985426","0.7640344482038143","0","","","","","",""
"","do_trial","118","613481","0.0-101.0-0.0","386.60000014305115","","","","50","0,0,1","1","mountain","63","probe-129","0.1485083319041075","0.12050154075156928","0.8264871218706334","0","","","","","",""
"","do_trial","119","619421","0.0-102.0-0.0","391.2999999523163","","","","49","1,0,1","1","mountain","64","probe-114","0.28038411001698005","0.15447538236458094","0.9117320306680808","1","","","","","",""
"","do_trial","120","625718","0.0-103.0-0.0","750.0999999046326","","","","49","0,0,1","1","mountain","65","probe-25","0.2576261391070341","0.18058147610955522","0.6834038044406877","0","","","","","",""
"","do_trial","121","633016","0.0-104.0-0.0","1746.6999998092651","","","","49","1,0,1","1","mountain","66","probe-45","0.11678435168811674","0.21191930976715018","0.8562224516421599","1","","","","","",""
"","do_trial","122","639932","0.0-105.0-0.0","1367.1000001430511","","","","49","0,0,0","1","mountain","67","probe-142","0.24604559438990173","0.31604909212124077","0.9003201645065444","0","","","","","",""
"","do_trial","123","645894","0.0-106.0-0.0","415.19999980926514","","","","50","0,1,1","1","mountain","68","probe-38","0.3361238659742602","0.23062019469298312","0.9389171761695738","1","","","","","",""
"","do_trial","124","652025","0.0-107.0-0.0","580.7999999523163","","","","50","0,0,1","1","mountain","69","probe-189","0.39763109874610114","0.16757771743400787","0.8576135801051215","0","","","","","",""
"","do_trial","125","657915","0.0-108.0-0.0","342.5","","","","51","0,0,1","1","mountain","70","probe-197","0.3263897260177391","0.1712189380032889","0.8061551455171575","1","","","","","",""
"","do_trial","126","663848","0.0-109.0-0.0","384.59999990463257","","","","51","0,0,1","1","mountain","71","probe-182","0.282321913898624","0.05756976274605952","0.8409435667678871","1","","","","","",""
"","do_trial","127","669829","0.0-110.0-0.0","430.5","","","","51","1,0,1","1","mountain","72","probe-238","0.3598150441250089","0.0792270409859116","0.7480719227923162","1","","","","","",""
"","do_trial","128","675954","0.0-111.0-0.0","575.7000000476837","","","","51","1,1,0","1","mountain","73","probe-151","0.3989112142071076","0.17124732975614648","0.7232768373056138","0","","","","","",""
"","do_trial","129","681849","0.0-112.0-0.0","343.09999990463257","","","","50","0,0,1","1","mountain","74","probe-104","0.34289025409820784","0.12826135467906996","0.7630396618903192","0","","","","","",""
"","do_trial","130","687866","0.0-113.0-0.0","464.5","","","","50","0,0,0","1","mountain","75","probe-177","0.2780485228579525","0.15111784963156882","0.7956402578267201","0","","","","","",""
"","do_trial","131","693771","0.0-114.0-0.0","356.7999999523163","","","","49","1,0,1","1","mountain","76","probe-162","0.29252981593093363","0.056665980203190025","0.9358351078650234","1","","","","","",""
"","do_trial","132","700002","0.0-115.0-0.0","678.9000000953674","","","","49","1,0,1","1","mountain","77","probe-237","0.2994778298167523","0.09320156472123385","0.9309178199397201","1","","","","","",""
"","do_trial","133","706055","0.0-116.0-0.0","504.7999999523163","","","","49","0,0,0","1","mountain","78","probe-209","0.2504552947939744","0.21244145445740578","0.8300774131446922","0","","","","","",""
"","do_trial","134","711886","0.0-117.0-0.0","280.60000014305115","","","","51","1,1,1","1","mountain","79","probe-128","0.149532541260076","0.14422949110819386","0.8924458928746691","1","","","","","",""
"","do_bye","135","713395","0.0-118.0-0.0","null","","","","null","","","","","","","","","","","","","","",""
"","do_travel","136","719397","0.0-119.0-0.0","null","","","","null","","","","","","","","","","","","","","",""
"","do_welcome","137","720906","0.0-119.0-1.0","null","","","","null","","","","","","","","","","","","","","",""
"","do_trial","138","727185","0.0-120.0-0.0","730.9000000953674","","","","50","0,0,1","2","city","80","probe-232","0.1407309305369008","0.14421950712447681","1","0","","","","","",""
"","do_trial","139","733057","0.0-121.0-0.0","324.5","","","","49","0,1,1","2","city","81","probe-120","0.15891697546853245","0.14548562884436644","1","0","","","","","",""
"","do_trial","140","738999","0.0-122.0-0.0","393.7000000476837","","","","51","1,0,1","2","city","82","probe-205","0.2668503465185097","0.15784978229592406","1","1","","","","","",""
"","do_trial","141","745260","0.0-123.0-0.0","710.7000000476837","","","","51","0,0,1","2","city","83","probe-229","0.35495325489027224","0.11457005553975944","1","1","","","","","",""
"","do_trial","142","751108","0.0-124.0-0.0","301.40000009536743","","","","51","0,0,1","2","city","84","probe-52","0.23103880814833666","0.22750771439850795","0.938141961866356","1","","","","","",""
"","do_trial","143","757511","0.0-125.0-0.0","854.4000000953674","","","","51","0,0,0","2","city","85","probe-30","0.271564073460975","0.06878320839146056","0.783390707964194","0","","","","","",""
"","do_trial","144","763336","0.0-126.0-0.0","275.10000014305115","","","","49","0,0,1","2","city","86","probe-139","0.41622143316475707","0.052221409837825805","0.6490119493431208","0","","","","","",""
"","do_trial","145","769575","0.0-127.0-0.0","687.4000000953674","","","","49","0,0,1","2","city","87","probe-85","0.2510897772189452","0.08727107352636143","0.799859841755123","0","","","","","",""
"","do_trial","146","775508","0.0-128.0-0.0","383.90000009536743","","","","51","0,0,1","2","city","88","probe-150","0.3085698542073686","0.06969533071763882","0.7522378863025968","1","","","","","",""
"","do_trial","147","781395","0.0-129.0-0.0","337.5","","","","51","0,0,0","2","city","89","probe-79","0.29333187480175416","0.0531938822096633","0.7876945704739362","0","","","","","",""
"","do_trial","148","787202","0.0-130.0-0.0","251.40000009536743","","","","50","1,1,0","2","city","90","probe-199","0.5339377466972749","0.28884674012037626","0.48563948419590136","1","","","","","",""
"","do_trial","149","794178","0.0-131.0-0.0","1426.7000000476837","","","","50","1,0,0","2","city","91","probe-188","0.6993071164145793","0.26485856930146584","0.44462104239931355","0","","","","","",""
"","do_trial","150","800043","0.0-132.0-0.0","306.80000019073486","","","","51","1,0,0","2","city","92","probe-121","0.6470158343279038","0.24867662862247242","0.220065071294897","0","","","","","",""
"","do_trial","151","806012","0.0-133.0-0.0","418.39999985694885","","","","50","1,0,0","2","city","93","probe-110","0.7122673289628452","0.279957186209667","0.1990640960379616","0","","","","","",""
"","do_trial","152","811818","0.0-134.0-0.0","258.2000000476837","","","","49","1,0,0","2","city","94","probe-56","0.6587212316544354","0.2720412834006296","0.18214409514998905","1","","","","","",""
"","do_trial","153","818916","0.0-135.0-0.0","1548.2000000476837","","","","51","1,0,0","2","city","95","probe-116","0.6915110691603844","0.4666842976925216","0.1637412711887824","0","","","","","",""
"","do_trial","154","824879","0.0-136.0-0.0","413.89999985694885","","","","50","1,0,0","2","city","96","probe-89","0.8381650772451559","0.41007689622015037","0.2180089507376148","0","","","","","",""
"","do_trial","155","830864","0.0-137.0-0.0","435.90000009536743","","","","49","1,0,0","2","city","97","probe-239","0.8767504040637059","0.5335943331508727","0.1797724660120128","1","","","","","",""
"","do_trial","156","838430","0.0-138.0-0.0","2016.8000001907349","","","","51","1,0,1","2","city","98","probe-193","0.8804952284618379","0.4402172200666415","0.23199488768135396","1","","","","","",""
"","do_trial","157","845298","0.0-139.0-0.0","1319.4000000953674","","","","51","1,1,1","2","city","99","probe-14","0.8687533842397344","0.4463958626147481","0.17528635556649252","1","","","","","",""
"","do_trial","158","852107","0.0-140.0-0.0","1259.3999998569489","","","","51","1,1,0","2","city","100","probe-207","0.7757383225832305","0.43114322070026573","0.05802879787116503","0","","","","","",""
"","do_trial","159","857952","0.0-141.0-0.0","298.40000009536743","","","","50","1,1,0","2","city","101","probe-131","0.886323482648705","0.3545018620171034","0.11657258093669348","1","","","","","",""
"","do_trial","160","864876","0.0-142.0-0.0","1373.3000001907349","","","","50","1,0,0","2","city","102","probe-08","0.8151782102445916","0.2513408810687653","0.05591044725010457","0","","","","","",""
"","do_trial","161","870826","0.0-143.0-0.0","395.09999990463257","","","","49","1,0,0","2","city","103","probe-228","0.8545323414779016","0.45622923933299014","0.062343750173431974","1","","","","","",""
"","do_trial","162","876899","0.0-144.0-0.0","525.9000000953674","","","","49","0,0,0","2","city","104","probe-93","0.7895618707014569","0.5897250474168273","0.1444420309885079","0","","","","","",""
"","do_trial","163","882951","0.0-145.0-0.0","null","","","","null","0,1,0","2","city","105","probe-231","0.7479389878693458","0.5709548417249621","0.09822259276046671","","","","","","",""
"","do_trial","164","888580","0.0-146.0-0.0","81.59999990463257","","","","50","1,0,0","2","city","106","probe-196","0.7094139336552189","0.4297917842673946","0.05835611973711258","0","","","","","",""
"","do_trial","165","894399","0.0-147.0-0.0","267.2000000476837","","","","51","1,0,0","2","city","107","probe-71","0.6926593965135271","0.37435677962425234","0.0937067948830249","0","","","","","",""
"","do_trial","166","900246","0.0-148.0-0.0","299.7000000476837","","","","50","0,1,0","2","city","108","probe-192","0.7657604405554155","0.4514389244197593","0.06564538513129317","1","","","","","",""
"","do_trial","167","906180","0.0-149.0-0.0","382.2000000476837","","","","50","1,0,0","2","city","109","probe-155","0.8674223502690147","0.42760518764935673","0.1133347704888171","0","","","","","",""
"","do_trial","168","912092","0.0-150.0-0.0","361.2000000476837","","","","50","1,0,1","2","city","110","probe-135","0.9288012169605206","0.4408715217828016","0.09612685564675671","0","","","","","",""
"","do_trial","169","918139","0.0-151.0-0.0","493.7000000476837","","","","49","1,0,1","2","city","111","probe-67","0.9024812767583859","0.46896629589523536","0.18239322507479672","1","","","","","",""
"","do_trial","170","925983","0.0-152.0-0.0","2296.2000000476837","","","","49","1,0,0","2","city","112","probe-22","0.9195900554308469","0.43617646889548023","0.1729483265696643","1","","","","","",""
"","do_trial","171","932280","0.0-153.0-0.0","744.0999999046326","","","","49","0,1,1","2","city","113","probe-206","0.7224294575507","0.3465648232461047","0.08934879411522363","0","","","","","",""
"","do_trial","172","938565","0.0-154.0-0.0","732.5999999046326","","","","51","0,0,0","2","city","114","probe-133","0.6020447647066133","0.3765687620368422","0.06404127293662425","0","","","","","",""
"","do_trial","173","944446","0.0-155.0-0.0","334.2000000476837","","","","51","1,0,0","2","city","115","probe-215","0.8244749360620487","0.48132026307033476","0.10355511444846424","0","","","","","",""
"","do_trial","174","950309","0.0-156.0-0.0","314.40000009536743","","","","50","1,0,0","2","city","116","probe-10","0.9033176942223275","0.4292668372472062","0.08407235163457306","0","","","","","",""
"","do_trial","175","956357","0.0-157.0-0.0","null","","","","null","1,0,1","2","city","117","probe-57","0.9079791661991241","0.43333183681578746","0.14161716182429354","","","","","","",""
"","do_trial","176","962971","0.0-158.0-0.0","1068.1999998092651","","","","51","1,1,1","2","city","118","probe-28","0.9413184689540686","0.40116232937935875","0.19095516873837498","1","","","","","",""
"","do_trial","177","969639","0.0-159.0-0.0","1116.2000000476837","","","","49","1,0,0","2","city","119","probe-109","0.8572598900739177","0.3427063103660186","0.19649219811935567","1","","","","","",""
"","do_bye","178","971150","0.0-160.0-0.0","null","","","","null","","","","","","","","","","","","","","",""
"","do_travel","179","977157","0.0-161.0-0.0","null","","","","null","","","","","","","","","","","","","","",""
"","do_welcome","180","978668","0.0-161.0-1.0","null","","","","null","","","","","","","","","","","","","","",""
"","do_trial","181","985320","0.0-162.0-0.0","1100.5","","","","50","1,0,0","3","highway","120","probe-50","1","0.2864386487372297","0.15897162892706024","0","","","","","",""
"","do_trial","182","991414","0.0-163.0-0.0","547.1999998092651","","","","51","1,0,1","3","highway","121","probe-235","1","0.14688568548636316","0.17453815876573217","1","","","","","",""
"","do_trial","183","997445","0.0-164.0-0.0","482.10000014305115","","","","49","1,0,0","3","highway","122","probe-213","1","0.1500366486824105","0.19696516954032153","1","","","","","",""
"","do_trial","184","1003797","0.0-165.0-0.0","800.3999998569489","","","","49","1,0,0","3","highway","123","probe-09","1","0.1946152520905266","0.2070552183302532","1","","","","","",""
"","do_trial","185","1010016","0.0-166.0-0.0","670.7999999523163","","","","51","1,0,0","3","highway","124","probe-186","0.9269994876302466","0.13983147496725754","0.22507309186051136","0","","","","","",""
"","do_trial","186","1016117","0.0-167.0-0.0","552.2999999523163","","","","51","1,0,0","3","highway","125","probe-12","0.7475746865670674","0.09971330821595643","0.13138812702163552","0","","","","","",""
"","do_trial","187","1022037","0.0-168.0-0.0","368.59999990463257","","","","50","1,0,0","3","highway","126","probe-35","0.8738791264256379","0.2056564219184574","0.08525296613192751","0","","","","","",""
"","do_trial","188","1027895","0.0-169.0-0.0","311.2999999523163","","","","50","1,0,0","3","highway","127","probe-94","0.7483959912034419","0.23252375215126006","0.16076583274285583","0","","","","","",""
"","do_trial","189","1033830","0.0-170.0-0.0","385.10000014305115","","","","51","1,0,0","3","highway","128","probe-29","0.8462128758467214","0.19441440739837276","0.05641012094003417","0","","","","","",""
"","do_trial","190","1040010","0.0-171.0-0.0","627.6000001430511","","","","51","1,1,0","3","highway","129","probe-217","0.8237130738264838","0.2550638721829576","0.18957902896208775","0","","","","","",""
"","do_trial","191","1047023","0.0-172.0-0.0","1465.3999998569489","","","","49","0,1,0","3","highway","130","probe-165","0.6508179733060397","0.48670309679128976","0.1810704444248797","0","","","","","",""
"","do_trial","192","1054353","0.0-173.0-0.0","1774.5999999046326","","","","51","1,1,0","3","highway","131","probe-203","0.6082700351885072","0.5262009745264837","0.13816818467925052","0","","","","","",""
"","do_trial","193","1060630","0.0-174.0-0.0","726.4000000953674","","","","51","1,0,1","3","highway","132","probe-108","0.585038185918093","0.6155821808610947","0.08315725310342892","1","","","","","",""
"","do_trial","194","1066547","0.0-175.0-0.0","365.2999999523163","","","","51","0,0,0","3","highway","133","probe-236","0.4839513232891306","0.6777114271381501","0.08631970870628253","0","","","","","",""
"","do_trial","195","1072480","0.0-176.0-0.0","381.7000000476837","","","","50","0,0,0","3","highway","134","probe-64","0.3193014014534609","0.8302644178884918","0.050700346772583754","0","","","","","",""
"","do_trial","196","1080582","0.0-177.0-0.0","2553.5999999046326","","","","50","0,1,0","3","highway","135","probe-62","0.31002786615828576","0.5895414131427265","0.08177447817717794","1","","","","","",""
"","do_trial","197","1086431","0.0-178.0-0.0","303.09999990463257","","","","49","0,1,0","3","highway","136","probe-211","0.3838125657119656","0.6742529623081447","0.13747274861376366","0","","","","","",""
"","do_trial","198","1092336","0.0-179.0-0.0","354.10000014305115","","","","51","1,1,0","3","highway","137","probe-184","0.4611529641832722","0.6521530713942106","0.07736418583718395","0","","","","","",""
"","do_trial","199","1098738","0.0-180.0-0.0","852.5","","","","50","1,1,0","3","highway","138","probe-171","0.5330822759360963","0.6075017509285727","0.19173635189197172","1","","","","","",""
"","do_trial","200","1104911","0.0-181.0-0.0","621","","","","50","0,0,0","3","highway","139","probe-143","0.39556104830825234","0.6272040444997363","0.1426197929098979","0","","","","","",""
"","do_trial","201","1110913","0.0-182.0-0.0","450.5","","","","50","0,1,0","3","highway","140","probe-130","0.3784395048445817","0.6963064305703576","0.2864992417481503","1","","","","","",""
"","do_trial","202","1117123","0.0-183.0-0.0","662.7999999523163","","","","50","0,1,1","3","highway","141","probe-219","0.42072558432468776","0.7518456251308939","0.12252600164914475","1","","","","","",""
"","do_trial","203","1123327","0.0-184.0-0.0","655.2999999523163","","","","50","1,1,0","3","highway","142","probe-55","0.4055053068281574","0.714461835767245","0.15103352603425899","1","","","","","",""
"","do_trial","204","1129398","0.0-185.0-0.0","521.8999998569489","","","","50","1,0,0","3","highway","143","probe-187","0.3688197218489018","0.6275914845846126","0.11637478903494904","0","","","","","",""
"","do_trial","205","1135962","0.0-186.0-0.0","1011","","","","49","0,1,0","3","highway","144","probe-169","0.3534837382996441","0.78665060969309","0.05475889649948077","0","","","","","",""
"","do_trial","206","1142337","0.0-187.0-0.0","823.9000000953674","","","","49","0,1,0","3","highway","145","probe-221","0.31597352094242204","0.9026120426208004","0.1278658005678634","0","","","","","",""
"","do_trial","207","1148546","0.0-188.0-0.0","656.4000000953674","","","","51","0,1,0","3","highway","146","probe-70","0.45025537892799017","0.7844296205569526","0.05779814730839898","0","","","","","",""
"","do_trial","208","1154601","0.0-189.0-0.0","503.59999990463257","","","","50","1,1,0","3","highway","147","probe-208","0.369104204527499","0.8672913639210159","0.05390184105044862","1","","","","","",""
"","do_trial","209","1160540","0.0-190.0-0.0","391.30000019073486","","","","50","0,1,0","3","highway","148","probe-95","0.3553267945432599","0.7290207443942123","0.11245990155666276","1","","","","","",""
"","do_trial","210","1166748","0.0-191.0-0.0","658.1000001430511","","","","50","0,1,0","3","highway","149","probe-201","0.330654565576652","0.8186189972852916","0.20881231406532444","1","","","","","",""
"","do_trial","211","1173889","0.0-192.0-0.0","1590.6000001430511","","","","50","1,1,0","3","highway","150","probe-59","0.40188594101079333","0.8980019590384808","0.0944077362468542","1","","","","","",""
"","do_trial","212","1180049","0.0-193.0-0.0","608.5","","","","50","0,1,1","3","highway","151","probe-01","0.36968248772914114","0.7364593267917111","0.15915587039462767","1","","","","","",""
"","do_trial","213","1186023","0.0-194.0-0.0","422.5","","","","49","0,1,0","3","highway","152","probe-49","0.39497277664467084","0.8073768644361532","0.05155088012680217","0","","","","","",""
"","do_trial","214","1192081","0.0-195.0-0.0","510.2000000476837","","","","49","0,1,0","3","highway","153","probe-23","0.420869297888268","0.74824051670661","0.11252315084479504","0","","","","","",""
"","do_trial","215","1197981","0.0-196.0-0.0","347.2000000476837","","","","51","1,0,0","3","highway","154","probe-226","0.3696200195734637","0.7972231940089536","0.1082521655399806","0","","","","","",""
"","do_trial","216","1204158","0.0-197.0-0.0","627.1000001430511","","","","50","1,1,0","3","highway","155","probe-124","0.26027069793159263","0.6899626471218082","0.06477723651675601","1","","","","","",""
"","do_trial","217","1210252","0.0-198.0-0.0","541.3000001907349","","","","49","1,1,0","3","highway","156","probe-53","0.3193453069312858","0.654504985368244","0.12940364587341058","1","","","","","",""
"","do_trial","218","1216081","0.0-199.0-0.0","282.69999980926514","","","","51","0,1,1","3","highway","157","probe-27","0.38173756861675834","0.7354971892256169","0.08883055100695889","1","","","","","",""
"","do_trial","219","1222911","0.0-200.0-0.0","1283.1999998092651","","","","51","0,1,0","3","highway","158","probe-141","0.2471074380447999","0.8412950947847186","0.20977226086448322","0","","","","","",""
"","do_trial","220","1228876","0.0-201.0-0.0","413.09999990463257","","","","49","1,1,0","3","highway","159","probe-122","0.19152360460396328","0.7489824964179129","0.05225784589285958","1","","","","","",""
"","do_bye","221","1230385","0.0-202.0-0.0","null","","","","null","","","","","","","","","","","","","","",""
"","do_travel","222","1236391","0.0-203.0-0.0","null","","","","null","","","","","","","","","","","","","","",""
"","do_welcome","223","1237897","0.0-203.0-1.0","null","","","","null","","","","","","","","","","","","","","",""
"","do_trial","224","1244950","0.0-204.0-0.0","1507.2000000476837","","","","49","0,1,0","4","countryside","160","probe-172","0.31083458788926327","1","0.08486472338893761","0","","","","","",""
"","do_trial","225","1252199","0.0-205.0-0.0","1697.2000000476837","","","","49","0,1,1","4","countryside","161","probe-77","0.31592330814640496","1","0.12435550670284701","0","","","","","",""
"","do_trial","226","1258331","0.0-206.0-0.0","585.5","","","","49","1,1,0","4","countryside","162","probe-210","0.3317581110863672","1","0.10192682425467509","1","","","","","",""
"","do_trial","227","1264782","0.0-207.0-0.0","903.3999998569489","","","","50","0,1,0","4","countryside","163","probe-181","0.3239204571352142","1","0.06568980020586972","1","","","","","",""
"","do_trial","228","1271311","0.0-208.0-0.0","978.5","","","","50","0,1,0","4","countryside","164","probe-195","0.3680663555464028","0.8584473993390662","0.09518466346408713","1","","","","","",""
"","do_trial","229","1277743","0.0-209.0-0.0","882.1000001430511","","","","50","0,1,0","4","countryside","165","probe-144","0.5115616149440451","0.8794625586168396","0.09725053824508102","1","","","","","",""
"","do_trial","230","1284186","0.0-210.0-0.0","895.4000000953674","","","","51","1,1,0","4","countryside","166","probe-58","0.43533785188965307","0.9025322894363137","0.10867833944970814","0","","","","","",""
"","do_trial","231","1290060","0.0-211.0-0.0","322","","","","50","0,0,1","4","countryside","167","probe-15","0.31017876404252887","0.7738597168882032","0.2010840787783368","0","","","","","",""
"","do_trial","232","1296310","0.0-212.0-0.0","698.3999998569489","","","","49","0,1,0","4","countryside","168","probe-214","0.37364823933761343","0.8318133592120519","0.07107374403630884","0","","","","","",""
"","do_trial","233","1302365","0.0-213.0-0.0","null","","","","null","0,1,0","4","countryside","169","probe-61","0.46024328611292326","0.7508269718001305","0.10174233456788467","","","","","","",""
"","do_trial","234","1308299","0.0-214.0-0.0","376.90000009536743","","","","51","1,1,0","4","countryside","170","probe-216","0.473969237615437","0.4880744641547831","0.1412949706886682","0","","","","","",""
"","do_trial","235","1314843","0.0-215.0-0.0","994","","","","51","0,0,0","4","countryside","171","probe-180","0.5678778480930761","0.342403623865319","0.3196000258678693","0","","","","","",""
"","do_trial","236","1320746","0.0-216.0-0.0","350","","","","50","1,0,0","4","countryside","172","probe-222","0.7026877286836793","0.21371277164121807","0.21818346340086925","0","","","","","",""
"","do_trial","237","1327824","0.0-217.0-0.0","1527.7999999523163","","","","50","1,0,0","4","countryside","173","probe-97","0.784500020530987","0.23416552410398614","0.39354932703517903","0","","","","","",""
"","do_trial","238","1333718","0.0-218.0-0.0","342.2999999523163","","","","50","1,0,1","4","countryside","174","probe-112","0.6672216574874351","0.0841393194402606","0.5099634644061914","0","","","","","",""
"","do_trial","239","1339618","0.0-219.0-0.0","349.40000009536743","","","","51","0,1,1","4","countryside","175","probe-92","0.7336128194317106","0.1784487658248157","0.5703556993638801","1","","","","","",""
"","do_trial","240","1345582","0.0-220.0-0.0","412","","","","51","1,0,0","4","countryside","176","probe-82","0.7479001067254033","0.21593874578306","0.30454725099983293","0","","","","","",""
"","do_trial","241","1351701","0.0-221.0-0.0","571.5999999046326","","","","51","1,0,0","4","countryside","177","probe-06","0.7570287825678491","0.17686238574057583","0.41637492580009783","0","","","","","",""
"","do_trial","242","1357582","0.0-222.0-0.0","333.39999985694885","","","","50","1,0,1","4","countryside","178","probe-140","0.5976600756799334","0.3273562609220003","0.43259204194963646","0","","","","","",""
"","do_trial","243","1363461","0.0-223.0-0.0","327.80000019073486","","","","49","1,1,1","4","countryside","179","probe-11","0.7891758703332284","0.20678716356237956","0.393897724194785","1","","","","","",""
"","do_trial","244","1369537","0.0-224.0-0.0","529.3000001907349","","","","49","1,0,0","4","countryside","180","probe-227","0.7380700135548302","0.08916467341375796","0.3856686838066827","1","","","","","",""
"","do_trial","245","1375584","0.0-225.0-0.0","498.5","","","","49","1,0,0","4","countryside","181","probe-46","0.7180977887812731","0.08245481240854867","0.3213125754153625","1","","","","","",""
"","do_trial","246","1381946","0.0-226.0-0.0","810","","","","49","1,0,0","4","countryside","182","probe-105","0.6663193201820048","0.11453212982695314","0.31042946769283364","1","","","","","",""
"","do_trial","247","1388426","0.0-227.0-0.0","929.0999999046326","","","","49","1,0,0","4","countryside","183","probe-218","0.7216599727261275","0.11982223164463159","0.2148502712269611","1","","","","","",""
"","do_trial","248","1395056","0.0-228.0-0.0","1079.0999999046326","","","","49","1,0,0","4","countryside","184","probe-37","0.8911040040114973","0.08156865175069238","0.45369785357101694","1","","","","","",""
"","do_trial","249","1400977","0.0-229.0-0.0","367","","","","49","1,0,0","4","countryside","185","probe-153","0.8581028820984277","0.18681860651617568","0.30991771868863743","1","","","","","",""
"","do_trial","250","1407606","0.0-230.0-0.0","1082.0999999046326","","","","49","1,0,0","4","countryside","186","probe-146","0.917844474691255","0.194217564623825","0.46020251514344046","1","","","","","",""
"","do_trial","251","1414168","0.0-231.0-0.0","1008.5999999046326","","","","49","1,0,0","4","countryside","187","probe-51","0.8053958741017395","0.1583641142293736","0.44671935731871515","1","","","","","",""
"","do_trial","252","1420329","0.0-232.0-0.0","608.8999998569489","","","","49","1,0,0","4","countryside","188","probe-173","0.7846706448908767","0.14299912536192172","0.4385206677201209","1","","","","","",""
"","do_trial","253","1426532","0.0-233.0-0.0","651.8999998569489","","","","49","1,1,1","4","countryside","189","probe-191","0.9073633937396811","0.082884686162346","0.47752235570235135","1","","","","","",""
"","do_trial","254","1433804","0.0-234.0-0.0","1719.7000000476837","","","","49","1,0,0","4","countryside","190","probe-44","0.9154444567844644","0.08782045061761312","0.43089592397332","1","","","","","",""
"","do_trial","255","1440258","0.0-235.0-0.0","904.3000001907349","","","","49","1,0,0","4","countryside","191","probe-167","0.9446394205672677","0.07862915972738138","0.2749521352651302","1","","","","","",""
"","do_trial","256","1447088","0.0-236.0-0.0","1279.7999999523163","","","","49","0,0,1","4","countryside","192","probe-74","0.7511222719275512","0.2993722341543344","0.39206137858042783","0","","","","","",""
"","do_trial","257","1453337","0.0-237.0-0.0","698.1000001430511","","","","50","1,0,0","4","countryside","193","probe-159","0.7601170109171299","0.23852704665111585","0.47916282257403453","0","","","","","",""
"","do_trial","258","1459282","0.0-238.0-0.0","395.09999990463257","","","","51","1,0,1","4","countryside","194","probe-198","0.8017093685976715","0.10123312286412556","0.5084622977181537","1","","","","","",""
"","do_trial","259","1465329","0.0-239.0-0.0","495.89999985694885","","","","51","0,0,0","4","countryside","195","probe-39","0.7932119487393535","0.10449875591360533","0.4465969114529065","0","","","","","",""
"","do_trial","260","1471319","0.0-240.0-0.0","438.2000000476837","","","","50","1,0,0","4","countryside","196","probe-90","0.8125491028109734","0.07450030403590141","0.5299491554245715","0","","","","","",""
"","do_trial","261","1477182","0.0-241.0-0.0","314","","","","49","0,1,0","4","countryside","197","probe-224","0.7499057725403705","0.1515030036522822","0.571745327632726","0","","","","","",""
"","do_trial","262","1483217","0.0-242.0-0.0","486.10000014305115","","","","49","1,0,1","4","countryside","198","probe-83","0.6582453210987635","0.25429799018711313","0.6230322949496426","1","","","","","",""
"","do_trial","263","1489122","0.0-243.0-0.0","353.2000000476837","","","","49","1,0,1","4","countryside","199","probe-157","0.680897251999105","0.2249979025684309","0.4865580019790633","1","","","","","",""
"","do_bye","264","1490633","0.0-244.0-0.0","null","","","","null","","","","","","","","","","","","","","",""
"","do_travel","265","1496637","0.0-245.0-0.0","null","","","","null","","","","","","","","","","","","","","",""
"","do_welcome","266","1498146","0.0-245.0-1.0","null","","","","null","","","","","","","","","","","","","","",""
"","do_trial","267","1504214","0.0-246.0-0.0","516","","","","49","1,0,1","5","coast","200","probe-40","1","0.24014931392726493","0.479809666672635","1","","","","","",""
"","do_trial","268","1510026","0.0-247.0-0.0","260.7000000476837","","","","49","1,0,1","5","coast","201","probe-106","1","0.1998082618310263","0.3855576079864247","1","","","","","",""
"","do_trial","269","1516977","0.0-248.0-0.0","1398.7999999523163","","","","49","1,0,0","5","coast","202","probe-194","1","0.22026341160016555","0.28816625698037895","1","","","","","",""
"","do_trial","270","1522971","0.0-249.0-0.0","441.09999990463257","","","","49","1,0,0","5","coast","203","probe-34","1","0.1860828111812175","0.3062737435055504","1","","","","","",""
"","do_trial","271","1529038","0.0-250.0-0.0","517","","","","49","1,0,1","5","coast","204","probe-36","0.9148125117208915","0.19038144699449114","0.2902766714990694","1","","","","","",""
"","do_trial","272","1535239","0.0-251.0-0.0","650.0999999046326","","","","49","1,0,1","5","coast","205","probe-17","0.7870645317649648","0.187079281685697","0.2542672131659567","1","","","","","",""
"","do_trial","273","1541244","0.0-252.0-0.0","457.5","","","","49","1,0,0","5","coast","206","probe-118","0.8265136878094221","0.2027757842273485","0.29439399370396824","1","","","","","",""
"","do_trial","274","1547356","0.0-253.0-0.0","562.7000000476837","","","","49","0,0,0","5","coast","207","probe-123","0.7377691840714614","0.24138165541016118","0.3138101192496048","0","","","","","",""
"","do_trial","275","1553195","0.0-254.0-0.0","287.60000014305115","","","","50","1,0,0","5","coast","208","probe-148","0.8894758999242605","0.3312953339439602","0.2002261129553396","0","","","","","",""
"","do_trial","276","1559246","0.0-255.0-0.0","null","","","","null","1,1,0","5","coast","209","probe-233","0.6578847955393462","0.23496210609660204","0.3208221192146414","","","","","","",""
"","do_trial","277","1565193","0.0-256.0-0.0","395.7000000476837","","","","49","0,0,0","5","coast","210","probe-204","0.4765826356669103","0.32695921412696377","0.3711834352430098","0","","","","","",""
"","do_trial","278","1571233","0.0-257.0-0.0","488.39999985694885","","","","50","0,0,0","5","coast","211","probe-02","0.3655236208323317","0.420936080323393","0.3929462194552291","0","","","","","",""
"","do_trial","279","1577033","0.0-258.0-0.0","251.90000009536743","","","","51","0,1,0","5","coast","212","probe-164","0.32824385199266987","0.6283173269637261","0.5183122718033096","0","","","","","",""
"","do_trial","280","1582877","0.0-259.0-0.0","295.40000009536743","","","","50","0,1,1","5","coast","213","probe-166","0.27175514854133365","0.6494299051582945","0.46834409872507304","1","","","","","",""
"","do_trial","281","1588942","0.0-260.0-0.0","513.3999998569489","","","","50","1,1,0","5","coast","214","probe-220","0.20178777944646506","0.6796432898227239","0.372704342872811","1","","","","","",""
"","do_trial","282","1594912","0.0-261.0-0.0","422.10000014305115","","","","50","0,1,0","5","coast","215","probe-168","0.29414920701536384","0.7582007590706575","0.4462067910094619","1","","","","","",""
"","do_trial","283","1600798","0.0-262.0-0.0","336","","","","50","0,0,0","5","coast","216","probe-152","0.33971616031459734","0.751717529585678","0.48113940495123714","0","","","","","",""
"","do_trial","284","1606627","0.0-263.0-0.0","278.09999990463257","","","","49","0,1,0","5","coast","217","probe-99","0.3355382662012359","0.7510409750041971","0.306296101196506","0","","","","","",""
"","do_trial","285","1612659","0.0-264.0-0.0","484.5","","","","50","0,1,0","5","coast","218","probe-170","0.2904152582734115","0.8172746169103917","0.277714699132273","1","","","","","",""
"","do_trial","286","1618947","0.0-265.0-0.0","738.4000000953674","","","","50","0,1,0","5","coast","219","probe-145","0.26716573825024154","0.6191085690250046","0.2494702507361869","1","","","","","",""
"","do_trial","287","1625073","0.0-266.0-0.0","577","","","","50","0,1,0","5","coast","220","probe-119","0.23913662705582003","0.7274924588417381","0.2595126441697828","1","","","","","",""
"","do_trial","288","1631089","0.0-267.0-0.0","464.7000000476837","","","","50","1,1,0","5","coast","221","probe-76","0.18850951846878217","0.6675642896728347","0.3053300282551492","1","","","","","",""
"","do_trial","289","1637470","0.0-268.0-0.0","829","","","","50","1,1,1","5","coast","222","probe-60","0.25504190303062","0.7461415233158694","0.4748126248756895","1","","","","","",""
"","do_trial","290","1643608","0.0-269.0-0.0","589.8000001907349","","","","50","0,1,1","5","coast","223","probe-223","0.1715033184878336","0.8983818531625228","0.3870641435327892","1","","","","","",""
"","do_trial","291","1651169","0.0-270.0-0.0","1998","","","","50","0,1,0","5","coast","224","probe-137","0.0696770512745961","0.9037612754368017","0.4512758207501669","1","","","","","",""
"","do_trial","292","1657263","0.0-271.0-0.0","541.8999998569489","","","","50","0,1,0","5","coast","225","probe-13","0.3005490884780646","0.8308299686128905","0.5138606366951125","1","","","","","",""
"","do_trial","293","1663292","0.0-272.0-0.0","481.2999999523163","","","","50","0,1,0","5","coast","226","probe-63","0.2407057094262283","0.906665083242215","0.5171881409583865","1","","","","","",""
"","do_trial","294","1669951","0.0-273.0-0.0","1108","","","","50","0,1,0","5","coast","227","probe-96","0.07956213365057031","0.875795656318265","0.4107455836667543","1","","","","","",""
"","do_trial","295","1675910","0.0-274.0-0.0","406.60000014305115","","","","50","0,1,1","5","coast","228","probe-176","0.18235974702503804","0.7924489391093288","0.3928984307042562","1","","","","","",""
"","do_trial","296","1682392","0.0-275.0-0.0","931","","","","50","0,1,0","5","coast","229","probe-41","0.057333085606272434","0.7771807138397349","0.5892867817502478","1","","","","","",""
"","do_trial","297","1688424","0.0-276.0-0.0","480.7000000476837","","","","50","0,1,1","5","coast","230","probe-125","0.1021480125832726","0.8187848916276229","0.44501426441330266","1","","","","","",""
"","do_trial","298","1695260","0.0-277.0-0.0","1283.7999999523163","","","","50","0,1,0","5","coast","231","probe-225","0.1368894448152525","0.926344230180454","0.4259769801044977","1","","","","","",""
"","do_trial","299","1701172","0.0-278.0-0.0","360.5","","","","50","0,0,1","5","coast","232","probe-147","0.07702670613687296","0.9030658711283295","0.49528724707904154","0","","","","","",""
"","do_trial","300","1707103","0.0-279.0-0.0","379.90000009536743","","","","49","0,0,0","5","coast","233","probe-33","0.14130890700615928","0.7444848976073162","0.607325128978735","0","","","","","",""
"","do_trial","301","1713054","0.0-280.0-0.0","404.90000009536743","","","","49","0,1,0","5","coast","234","probe-86","0.21388352678286338","0.6274284555875572","0.5284372936455565","0","","","","","",""
"","do_trial","302","1719107","0.0-281.0-0.0","null","","","","null","0,1,1","5","coast","235","probe-69","0.16481324660515626","0.6940934272211021","0.4397186807439429","","","","","","",""
"","do_trial","303","1725155","0.0-282.0-0.0","null","","","","null","0,1,1","5","coast","236","probe-48","0.20517802840014984","0.7183982317679667","0.45355281087366633","","","","","","",""
"","do_trial","304","1731097","0.0-283.0-0.0","396.7000000476837","","","","51","0,1,0","5","coast","237","probe-66","0.06181970261444993","0.8416244858115922","0.42159755342516975","0","","","","","",""
"","do_trial","305","1737084","0.0-284.0-0.0","439.59999990463257","","","","49","0,0,1","5","coast","238","probe-101","0.10998175497505573","0.8023498737255268","0.4576953291273297","0","","","","","",""
"","do_trial","306","1743142","0.0-285.0-0.0","509.5","","","","50","0,0,1","5","coast","239","probe-149","0.1642471620305543","0.6892390473610547","0.4697640128062484","0","","","","","",""
"","do_bye","307","1744648","0.0-286.0-0.0","null","","","","null","","","","","","","","","","","","","","",""
"","html-keyboard-response","308","1774319","0.0-286.0-1.0","29669.5","<div class='center'><p>You may take a break now!</p><p> Stretch for a little bit. Get a glass of water.</p><p> You have two minutes to rest. Then, the game will automatically move on.</p><p>If you’d like to get started on the second half of the experiment sooner, then press the <b>space bar</b></p></div>","32","","","","","","","","","","","","","","","","",""
"","html-keyboard-response","309","1781562","0.0-286.0-2.0","7241.200000047684","<div class='center'><p>You’ve arrived at the final destination of your journey! Unfortunately, it’s very foggy out, so you won’t be able to see it in the distance like in previous places you've visited.</p><p>You’ll still be deciding which pirates you want to rob ships. However, because of the fog you also won’t be able to see the ship in the distance. </p><p><b>[Press the space bar to continue]</b></p></div>","32","","","","","","","","","","","","","","","","",""
"","html-keyboard-response","310","1869047","0.0-286.0-3.0","87482.79999995232","<div class='center'><p> Sometimes you’ll be asked if you’ve seen a ship before (see the example below). You will use the 5, 6, 7, 8 buttons on your keyboard to respond. </p><p> If you definitely did not see the ship, pick the the big red thumbs down by pressing <b>5</b>.</p><p> If you don’t think you saw it but aren’t sure, then pick the small red thumbs down by pressing <b>6</b>.</p><p> If you think you might have seen it, then pick the small green thumbs up by pressing <b>7</b>.</p><p> If you definitely did see this ship before, then pick the big thumb green thumbs up by pressing <b>8</b>.</p><p> If you recall correctly, then you’ll get a gold coin!</p><p><b>[Press the space bar to begin the next phase of the experiment]</b></p><p><img src='run_exp/static/images/example_recog_trial.png' height='500'></p></div>","32","","","","","","","","","","","","","","","","",""
"","do_welcome","311","1870557","0.0-286.0-4.0","null","","","","null","","","","","","","","","","","","","","",""
"","do_trial","312","1876608","0.0-287.0-0.0","null","","","","null","0,1,0","6","blank","240","null","0.2907528996976172","1","0.4153306091258912","","","","","","",""
"","do_recog","313","1882625","0.0-288.0-0.0","null","","","","null","","","","241","probe-58","","","","","1","[object Object]","166","4","0",""
"","do_trial","314","1887369","0.0-289.0-0.0","1196.8999998569489","","","","49","1,1,0","6","blank","242","null","0.35219905362109794","0.7814881618339056","0.301994882617778","1","","","","","",""
"","do_recog","315","1890839","0.0-290.0-0.0","1959","","","","53","","","","243","probe-52","","","","","1","[object Object]","84","2","0",""
"","do_trial","316","1894931","0.0-291.0-0.0","542","","","","49","0,1,0","6","blank","244","null","0.1809907674755724","0.8070520686427766","0.3616115824061909","0","","","","","",""
"","do_recog","317","1897493","0.0-292.0-0.0","1052.2000000476837","","","","53","","","","245","probe-36","","","","","1","[object Object]","204","5","0",""
"","do_trial","318","1901764","0.0-293.0-0.0","725.0999999046326","","","","49","0,1,1","6","blank","246","null","0.05125029774886048","0.8549458987588908","0.3304607201232738","0","","","","","",""
"","do_recog","319","1905310","0.0-294.0-0.0","2035.8999998569489","","","","55","","","","247","probe-148","","","","","1","[object Object]","208","5","1",""
"","do_trial","320","1909447","0.0-295.0-0.0","590.1000001430511","","","","51","0,1,0","6","blank","248","null","0.13342830968480035","0.7896077184209215","0.38995180489723774","0","","","","","",""
"","do_trial","321","1913956","0.0-296.0-0.0","957.7000000476837","","","","50","0,1,0","6","blank","249","null","0.2072688754841055","0.6926042495042595","0.3530419505256982","1","","","","","",""
"","do_trial","322","1918478","0.0-297.0-0.0","969.4000000953674","","","","49","1,1,1","6","blank","250","null","0.31702588254291614","0.8375915924173571","0.3554637076646595","1","","","","","",""
"","do_trial","323","1922373","0.0-298.0-0.0","346.5","","","","50","1,1,0","6","blank","251","null","0.334165432585899","0.8745895728091051","0.42180735968935495","1","","","","","",""
"","do_trial","324","1926256","0.0-299.0-0.0","330.59999990463257","","","","49","0,1,1","6","blank","252","null","0.23912442611226797","0.9108749359804132","0.48048827529974275","0","","","","","",""
"","do_trial","325","1930151","0.0-300.0-0.0","346.7000000476837","","","","50","0,1,0","6","blank","253","null","0.1497534159785747","0.827429558455665","0.531196291094122","1","","","","","",""
"","do_recog","326","1933751","0.0-301.0-0.0","2087.2999999523163","","","","55","","","","254","probe-29","","","","","1","[object Object]","128","3","1",""
"","do_trial","327","1938039","0.0-302.0-0.0","736.1000001430511","","","","51","0,1,1","6","blank","255","null","0.38801122307949754","0.6331108971482714","0.340374646037181","1","","","","","",""
"","do_recog","328","1940621","0.0-303.0-0.0","1070.5","","","","55","","","","256","probe-118","","","","","1","[object Object]","206","5","1",""
"","do_trial","329","1944519","0.0-304.0-0.0","346.2000000476837","","","","51","0,1,0","6","blank","257","null","0.5224780106141658","0.5506155179214518","0.2988664715756311","0","","","","","",""
"","do_recog","330","1946946","0.0-305.0-0.0","915.2999999523163","","","","55","","","","258","probe-240","","","","","1","[object Object]","48","1","1",""
"","do_trial","331","1950834","0.0-306.0-0.0","339","","","","50","0,1,0","6","blank","259","null","0.6753584843998784","0.5412471485850096","0.17243047498692846","1","","","","","",""
"","do_recog","332","1952975","0.0-307.0-0.0","628.7000000476837","","","","55","","","","260","probe-241","","","","","0","[object Object]","null","null","0",""
"","do_trial","333","1956964","0.0-308.0-0.0","439.39999985694885","","","","50","1,1,0","6","blank","261","null","0.7122424542096439","0.4625210916681278","0.25745644852346977","1","","","","","",""
"","do_recog","334","1959385","0.0-309.0-0.0","910.2000000476837","","","","55","","","","262","probe-80","","","","","1","[object Object]","46","1","1",""
"","do_trial","335","1963210","0.0-310.0-0.0","274.2000000476837","","","","50","0,1,0","6","blank","263","null","0.7283046828694013","0.40667293745239075","0.22358530324705947","1","","","","","",""
"","do_recog","336","1965890","0.0-311.0-0.0","1166.7999999523163","","","","56","","","","264","probe-120","","","","","1","[object Object]","81","2","1",""
"","do_trial","337","1969774","0.0-312.0-0.0","335.09999990463257","","","","49","1,1,0","6","blank","265","null","0.7205138269580489","0.44220959974380863","0.058355705474492224","1","","","","","",""
"","do_recog","338","1972296","0.0-313.0-0.0","1011.7000000476837","","","","56","","","","266","probe-77","","","","","1","[object Object]","161","4","1",""
"","do_trial","339","1976098","0.0-314.0-0.0","252.79999995231628","","","","49","0,0,0","6","blank","267","null","0.8568195882573989","0.4949736952366285","0.13085135235436135","0","","","","","",""
"","do_trial","340","1980132","0.0-315.0-0.0","483.10000014305115","","","","50","1,0,0","6","blank","268","null","0.9107284480356674","0.3834336297122865","0.09472794285808796","0","","","","","",""
"","do_trial","341","1983997","0.0-316.0-0.0","313.5","","","","51","1,0,0","6","blank","269","null","0.9070511991008722","0.4489670206215821","0.05241121276132663","0","","","","","",""
"","do_recog","342","1986485","0.0-317.0-0.0","976.0999999046326","","","","55","","","","270","probe-172","","","","","1","[object Object]","160","4","1",""
"","do_trial","343","1990477","0.0-318.0-0.0","440.90000009536743","","","","49","1,1,0","6","blank","271","null","0.8292124562860361","0.47153151842956936","0.1363567713372796","1","","","","","",""
"","do_trial","344","1994485","0.0-319.0-0.0","461","","","","50","1,0,0","6","blank","272","null","0.7868973148575249","0.4121895984991495","0.101495338702742","0","","","","","",""
"","do_trial","345","1998417","0.0-320.0-0.0","385.2000000476837","","","","50","1,0,0","6","blank","273","null","0.8530811142079796","0.4037974265190285","0.06834031786375626","0","","","","","",""
"","do_trial","346","2002282","0.0-321.0-0.0","314.2000000476837","","","","49","1,0,0","6","blank","274","null","0.9350891535747637","0.3371755617940741","0.25599671955338194","1","","","","","",""
"","do_recog","347","2004909","0.0-322.0-0.0","1113.5999999046326","","","","56","","","","275","probe-158","","","","","1","[object Object]","45","1","1",""
"","do_trial","348","2009136","0.0-323.0-0.0","675.2000000476837","","","","49","1,1,0","6","blank","276","null","0.9244843023500193","0.38799964746382065","0.0753551343761016","1","","","","","",""
"","do_recog","349","2012535","0.0-324.0-0.0","1887.2000000476837","","","","54","","","","277","probe-12","","","","","1","[object Object]","125","3","0",""
"","do_trial","350","2017994","0.0-325.0-0.0","1908.4000000953674","","","","50","1,0,0","6","blank","278","null","0.9296677594826371","0.4558275648098067","0.07002179395398211","0","","","","","",""
"","do_trial","351","2022814","0.0-326.0-0.0","1270","","","","49","1,0,0","6","blank","279","null","0.9453505729920008","0.3733075929358164","0.11127013219132464","1","","","","","",""
"","do_trial","352","2027148","0.0-327.0-0.0","786.5999999046326","","","","49","1,0,0","6","blank","280","null","0.8535835653447178","0.3730356160499387","0.2241866477042243","1","","","","","",""
"","do_trial","353","2031085","0.0-328.0-0.0","385.40000009536743","","","","50","1,0,0","6","blank","281","null","0.7382833562327781","0.3526975757880259","0.20258092296337787","0","","","","","",""
"","do_trial","354","2035161","0.0-329.0-0.0","525.5999999046326","","","","49","0,0,0","6","blank","282","null","0.6460746517456784","0.2494461151328473","0.23824713800270053","0","","","","","",""
"","do_trial","355","2038982","0.0-330.0-0.0","270.2000000476837","","","","50","1,1,0","6","blank","283","null","0.6893384724542898","0.3070963767999211","0.21614417655788568","1","","","","","",""
"","do_recog","356","2041785","0.0-331.0-0.0","1295.1000001430511","","","","55","","","","284","probe-213","","","","","1","[object Object]","122","3","1",""
"","do_trial","357","2045820","0.0-332.0-0.0","487.5","","","","50","1,0,0","6","blank","285","null","1","0.3188076826398125","0.08320125539623328","0","","","","","",""
"","do_recog","358","2048195","0.0-333.0-0.0","863.9000000953674","","","","55","","","","286","probe-229","","","","","1","[object Object]","83","2","1",""
"","do_trial","359","2051997","0.0-334.0-0.0","254.89999985694885","","","","51","1,1,1","6","blank","287","null","0.8687258753924578","0.4210427348844427","0.08396320918132334","1","","","","","",""
"","do_recog","360","2054358","0.0-335.0-0.0","852.8999998569489","","","","55","","","","288","probe-144","","","","","1","[object Object]","165","4","1",""
"","do_trial","361","2058151","0.0-336.0-0.0","244.80000019073486","","","","51","1,0,0","6","blank","289","null","0.8403044056128799","0.4539169328851223","0.06636247436863955","0","","","","","",""
"","do_recog","362","2060233","0.0-337.0-0.0","570.5","","","","55","","","","290","probe-35","","","","","1","[object Object]","126","3","1",""
"","do_trial","363","2064174","0.0-338.0-0.0","391.89999985694885","","","","49","1,1,0","6","blank","291","null","0.7193815504227711","0.4815480104410522","0.0984747777855542","1","","","","","",""
"","do_trial","364","2068729","0.0-339.0-0.0","994.7999999523163","","","","50","1,1,0","6","blank","292","null","0.8011016085988862","0.49880633234699295","0.07468003588243946","1","","","","","",""
"","do_trial","365","2072757","0.0-340.0-0.0","478.09999990463257","","","","50","1,0,0","6","blank","293","null","0.8215588857118844","0.4402991614054077","0.1514888787858621","0","","","","","",""
"","do_trial","366","2076743","0.0-341.0-0.0","438.69999980926514","","","","50","1,1,0","6","blank","294","null","0.7708042094835516","0.34868313920862515","0.191145789604426","1","","","","","",""
"","do_trial","367","2080700","0.0-342.0-0.0","405.40000009536743","","","","49","1,1,0","6","blank","295","null","0.7291360835126359","0.2973923562999269","0.11538085430199864","1","","","","","",""
"","do_recog","368","2084072","0.0-343.0-0.0","1860.9000000953674","","","","54","","","","296","probe-34","","","","","1","[object Object]","203","5","0",""
"","do_trial","369","2087940","0.0-344.0-0.0","321.2999999523163","","","","49","1,1,0","6","blank","297","null","0.748221802671973","0.43945530461047705","0.25625030296313345","1","","","","","",""
"","do_trial","370","2091900","0.0-345.0-0.0","411.19999980926514","","","","49","0,1,0","6","blank","298","null","0.7828440642660169","0.4858063313914559","0.08320800920349417","0","","","","","",""
"","do_trial","371","2095775","0.0-346.0-0.0","324.90000009536743","","","","50","0,1,0","6","blank","299","null","0.6427079105954961","0.5623451243083339","0.1909309653215188","1","","","","","",""
"","do_trial","372","2099821","0.0-347.0-0.0","493.89999985694885","","","","50","1,1,0","6","blank","300","null","0.43876568209354355","0.5342373224888927","0.13230888427738915","1","","","","","",""
"","do_trial","373","2103703","0.0-348.0-0.0","333.2000000476837","","","","50","1,0,0","6","blank","301","null","0.41144662966579326","0.47658420907530086","0.38443562553256433","0","","","","","",""
"","do_trial","374","2107735","0.0-349.0-0.0","480.2999999523163","","","","50","0,0,0","6","blank","302","null","0.31816474834870906","0.41223960311446717","0.4893122736588175","0","","","","","",""
"","do_recog","375","2111789","0.0-350.0-0.0","2543.2000000476837","","","","55","","","","303","probe-235","","","","","1","[object Object]","121","3","1",""
"","do_trial","376","2117070","0.0-351.0-0.0","1730.9000000953674","","","","51","0,0,1","6","blank","304","null","0.23760564931603465","0.49643886780583407","0.6314492268577607","1","","","","","",""
"","do_recog","377","2120347","0.0-352.0-0.0","1765.8999998569489","","","","54","","","","305","probe-245","","","","","0","[object Object]","null","null","1",""
"","do_trial","378","2125218","0.0-353.0-0.0","1322.5","","","","50","0,1,1","6","blank","306","null","0.27709938913435067","0.46520341631730716","0.6908656236359423","1","","","","","",""
"","do_recog","379","2128760","0.0-354.0-0.0","2032.1000001430511","","","","54","","","","307","probe-123","","","","","1","[object Object]","207","5","0",""
"","do_trial","380","2133491","0.0-355.0-0.0","1179.6999998092651","","","","49","0,1,1","6","blank","308","null","0.15250296389414025","0.3771304385848153","0.5915078967957973","0","","","","","",""
"","do_trial","381","2137722","0.0-356.0-0.0","679.5","","","","50","0,0,0","6","blank","309","null","0.07547361890009052","0.3412778914201117","0.5910643963154338","0","","","","","",""
"","do_trial","382","2141552","0.0-357.0-0.0","277.60000014305115","","","","49","0,0,1","6","blank","310","null","0.129222576416717","0.31446469323498444","0.6536662337803162","0","","","","","",""
"","do_trial","383","2145429","0.0-358.0-0.0","327.2000000476837","","","","51","0,0,1","6","blank","311","null","0.17044988388959417","0.3695647392688036","0.7963940234417571","1","","","","","",""
"","do_recog","384","2148671","0.0-359.0-0.0","1733.7000000476837","","","","55","","","","312","probe-85","","","","","1","[object Object]","87","2","1",""
"","do_trial","385","2153613","0.0-360.0-0.0","1390.4000000953674","","","","50","0,0,1","6","blank","313","null","0.156418047925045","0.3955657542257747","0.7160303603400711","0","","","","","",""
"","do_recog","386","2157370","0.0-361.0-0.0","2246.5999999046326","","","","54","","","","314","probe-186","","","","","1","[object Object]","124","3","0",""
"","do_trial","387","2162441","0.0-362.0-0.0","1522.5999999046326","","","","50","0,0,1","6","blank","315","null","0.1966629641920396","0.3912209048248655","0.6854430351598919","0","","","","","",""
"","do_trial","388","2166391","0.0-363.0-0.0","404.30000019073486","","","","49","0,1,0","6","blank","316","null","0.15209948835922482","0.4660952080316899","0.7700860976679408","0","","","","","",""
"","do_recog","389","2170363","0.0-364.0-0.0","2459.5999999046326","","","","53","","","","317","probe-134","","","","","1","[object Object]","44","1","0",""
"","do_trial","390","2176178","0.0-365.0-0.0","2263.2999999523163","","","","49","0,1,1","6","blank","318","null","0.1340462924988999","0.37279559696057957","0.7476132050116399","0","","","","","",""
"","do_trial","391","2180144","0.0-366.0-0.0","417.7000000476837","","","","50","1,0,1","6","blank","319","null","0.25676782661717906","0.4160836183272763","0.7492921550275975","0","","","","","",""
"","do_recog","392","2183536","0.0-367.0-0.0","1880","","","","55","","","","320","probe-84","","","","","1","[object Object]","49","1","1",""
"","do_trial","393","2187627","0.0-368.0-0.0","538.2000000476837","","","","50","0,1,1","6","blank","321","null","0.1372473833254786","0.4678776085229314","0.7858314324949655","1","","","","","",""
"","do_recog","394","2190973","0.0-369.0-0.0","1838","","","","53","","","","322","probe-31","","","","","1","[object Object]","43","1","0",""
"","do_trial","395","2196649","0.0-370.0-0.0","2125.300000190735","","","","49","0,0,1","6","blank","323","null","0.07356778454523732","0.4005001258892977","0.6647691497426209","0","","","","","",""
"","do_recog","396","2199727","0.0-371.0-0.0","1565","","","","54","","","","324","probe-214","","","","","1","[object Object]","168","4","0",""
"","do_trial","397","2204728","0.0-372.0-0.0","1450.2999999523163","","","","49","0,0,0","6","blank","325","null","0.13730250187715534","0.34460853301345606","0.7446420612787358","0","","","","","",""
"","do_recog","398","2208093","0.0-373.0-0.0","1851.2999999523163","","","","55","","","","326","probe-106","","","","","1","[object Object]","201","5","1",""
"","do_trial","399","2212831","0.0-374.0-0.0","1187.0999999046326","","","","49","0,1,1","6","blank","327","null","0.13364359903841835","0.5042240858703194","0.6267278046058907","0","","","","","",""
"","do_trial","400","2216831","0.0-375.0-0.0","448.40000009536743","","","","50","1,1,0","6","blank","328","null","0.23169147263448295","0.5141903729426487","0.6914642094905648","1","","","","","",""
"","do_trial","401","2220936","0.0-376.0-0.0","558.2000000476837","","","","51","0,0,1","6","blank","329","null","0.25612155411186344","0.39036403436397193","1","1","","","","","",""
"","do_trial","402","2224973","0.0-377.0-0.0","490.2999999523163","","","","50","0,0,1","6","blank","330","null","0.22031954279482638","0.38195473963036786","0.9060194296452447","0","","","","","",""
"","do_trial","403","2229075","0.0-378.0-0.0","549.8999998569489","","","","51","1,0,1","6","blank","331","null","0.18602485541917002","0.4105867843593911","0.8061553566279885","1","","","","","",""
"","do_trial","404","2232800","0.0-379.0-0.0","179.60000014305115","","","","51","0,0,1","6","blank","332","null","0.09934744956416275","0.4809860163278615","0.7955695760705156","1","","","","","",""
"","do_trial","405","2236986","0.0-380.0-0.0","637.7999999523163","","","","51","0,0,1","6","blank","333","null","0.0717037774709328","0.4066509757607126","0.6704002401891918","1","","","","","",""
"","do_recog","406","2240163","0.0-381.0-0.0","1663.0999999046326","","","","53","","","","334","probe-258","","","","","0","[object Object]","null","null","1",""
"","do_trial","407","2244272","0.0-382.0-0.0","557.7999999523163","","","","49","0,0,1","6","blank","335","null","0.09671383548043264","0.35947603759009816","0.7197680168980495","0","","","","","",""
"","do_recog","408","2247099","0.0-383.0-0.0","1314.4000000953674","","","","55","","","","336","probe-217","","","","","1","[object Object]","129","3","1",""
"","do_trial","409","2251035","0.0-384.0-0.0","387","","","","49","0,0,1","6","blank","337","null","0.08571789240611018","0.4171272964288486","0.7682727820489101","0","","","","","",""
"","do_trial","410","2254859","0.0-385.0-0.0","271.5","","","","50","0,1,1","6","blank","338","null","0.0716551394520695","0.44138091685421993","0.7726405141057383","1","","","","","",""
"","do_recog","411","2257462","0.0-386.0-0.0","1093.7999999523163","","","","55","","","","339","probe-181","","","","","1","[object Object]","163","4","1",""
"","do_trial","412","2261288","0.0-387.0-0.0","277.09999990463257","","","","51","0,0,1","6","blank","340","null","0.21967052789523564","0.2719349906651107","0.6416964137428501","1","","","","","",""
"","do_trial","413","2265393","0.0-388.0-0.0","553.7000000476837","","","","51","0,0,1","6","blank","341","null","0.2740824697150112","0.27309025798603154","0.7546586959987066","1","","","","","",""
"","do_trial","414","2269267","0.0-389.0-0.0","324","","","","51","0,1,1","6","blank","342","null","0.42283673948636213","0.53583212840498","0.6912657770486391","1","","","","","",""
"","do_trial","415","2273136","0.0-390.0-0.0","322.10000014305115","","","","51","1,1,0","6","blank","343","null","0.2483712796905341","0.4971415886375701","0.5031371916390964","0","","","","","",""
"","do_recog","416","2275736","0.0-391.0-0.0","1090","","","","55","","","","344","probe-210","","","","","1","[object Object]","162","4","1",""
"","do_trial","417","2279547","0.0-392.0-0.0","260.40000009536743","","","","50","0,0,1","6","blank","345","null","0.12485487513668275","0.5739640638446237","0.4270611387074385","0","","","","","",""
"","do_recog","418","2281946","0.0-393.0-0.0","887.5","","","","53","","","","346","probe-242","","","","","0","[object Object]","null","null","1",""
"","do_trial","419","2285936","0.0-394.0-0.0","443.2000000476837","","","","49","0,0,0","6","blank","347","null","0.18451962010792897","0.7496262497018406","0.45124261564048873","0","","","","","",""
"","do_recog","420","2288209","0.0-395.0-0.0","764.2000000476837","","","","54","","","","348","probe-183","","","","","1","[object Object]","42","1","0",""
"","do_trial","421","2292032","0.0-396.0-0.0","271.40000009536743","","","","51","0,1,0","6","blank","349","null","0.22772911192765757","0.6914881389693532","0.392314505197886","0","","","","","",""
"","do_recog","422","2294505","0.0-397.0-0.0","960.5","","","","53","","","","350","probe-17","","","","","1","[object Object]","205","5","0",""
"","do_trial","423","2298404","0.0-398.0-0.0","347.5","","","","49","0,1,0","6","blank","351","null","0.2728735307966979","0.7591506570668388","0.37057200289200803","0","","","","","",""
"","do_recog","424","2300872","0.0-399.0-0.0","955.5999999046326","","","","54","","","","352","probe-94","","","","","1","[object Object]","127","3","0",""
"","do_trial","425","2304867","0.0-400.0-0.0","448.5","","","","50","0,0,0","6","blank","353","null","0.24269200937756047","0.7638226954502914","0.32442208243194254","0","","","","","",""
"","do_recog","426","2307606","0.0-401.0-0.0","1231.2000000476837","","","","54","","","","354","probe-139","","","","","1","[object Object]","86","2","0",""
"","do_trial","427","2311807","0.0-402.0-0.0","654","","","","49","0,1,1","6","blank","355","null","0.213528840804394","0.8249335680859339","0.3090005579251724","0","","","","","",""
"","do_recog","428","2314107","0.0-403.0-0.0","788.7000000476837","","","","55","","","","356","probe-50","","","","","1","[object Object]","120","3","1",""
"","do_trial","429","2317990","0.0-404.0-0.0","334.7999999523163","","","","49","0,1,0","6","blank","357","null","0.057673885704023695","0.7995012880487345","0.19430486706819505","0","","","","","",""
"","do_recog","430","2320260","0.0-405.0-0.0","760.7999999523163","","","","55","","","","358","probe-195","","","","","1","[object Object]","164","4","1",""
"","do_trial","431","2324131","0.0-406.0-0.0","319.89999985694885","","","","50","0,1,0","6","blank","359","null","0.07385866199885252","0.7741966179185272","0.28736277131996535","1","","","","","",""
"","do_recog","432","2326464","0.0-407.0-0.0","825.7000000476837","","","","55","","","","360","probe-232","","","","","1","[object Object]","80","2","1",""
"","do_trial","433","2330509","0.0-408.0-0.0","495.09999990463257","","","","50","0,1,0","6","blank","361","null","0.06423719668334775","0.7780614298977304","0.37192883622808204","1","","","","","",""
"","do_trial","434","2334980","0.0-409.0-0.0","921.8999998569489","","","","50","0,1,0","6","blank","362","null","0.1029106541483438","0.799453949897284","0.3812396646582081","1","","","","","",""
"","do_recog","435","2337205","0.0-410.0-0.0","715.2999999523163","","","","55","","","","363","probe-150","","","","","1","[object Object]","88","2","1",""
"","do_trial","436","2341109","0.0-411.0-0.0","354.7000000476837","","","","50","0,1,1","6","blank","364","null","0.1590962242737403","0.7591671036588886","0.4003808534422861","1","","","","","",""
"","do_trial","437","2345109","0.0-412.0-0.0","448.90000009536743","","","","50","0,0,0","6","blank","365","null","0.08782560188122027","0.7843968992806041","0.385688209894904","0","","","","","",""
"","do_trial","438","2349083","0.0-413.0-0.0","422.60000014305115","","","","51","1,1,0","6","blank","366","null","0.1899022525181422","0.6999550006484399","0.23983866645378307","0","","","","","",""
"","do_trial","439","2353160","0.0-414.0-0.0","526.4000000953674","","","","49","0,1,1","6","blank","367","null","0.11674220416546333","0.6962198968893213","0.484442437583147","0","","","","","",""
"","do_trial","440","2357158","0.0-415.0-0.0","450.7999999523163","","","","50","0,1,0","6","blank","368","null","0.05773460993733151","0.8174747211262205","0.4490729688020831","1","","","","","",""
"","do_trial","441","2361243","0.0-416.0-0.0","533.9000000953674","","","","50","0,0,1","6","blank","369","null","0.1269097080730531","0.829619424508916","0.5988120400347835","0","","","","","",""
"","do_trial","442","2365226","0.0-417.0-0.0","433.69999980926514","","","","50","0,1,0","6","blank","370","null","0.20717980342080375","0.8754796490164756","0.43684025555213324","1","","","","","",""
"","do_recog","443","2367360","0.0-418.0-0.0","623.7000000476837","","","","55","","","","371","probe-15","","","","","1","[object Object]","167","4","1",""
"","do_trial","444","2371197","0.0-419.0-0.0","290.2000000476837","","","","51","0,1,0","6","blank","372","null","0.09112053431908386","0.8796595415000202","0.45867103923858893","0","","","","","",""
"","do_recog","445","2373544","0.0-420.0-0.0","838.6000001430511","","","","55","","","","373","probe-246","","","","","0","[object Object]","null","null","0",""
"","do_trial","446","2377550","0.0-421.0-0.0","451.2999999523163","","","","50","0,1,0","6","blank","374","null","0.057486075337438484","1","0.6910757545812924","1","","","","","",""
"","do_recog","447","2379845","0.0-422.0-0.0","785.2999999523163","","","","55","","","","375","probe-88","","","","","1","[object Object]","47","1","1",""
"","do_trial","448","2383735","0.0-423.0-0.0","337.89999985694885","","","","50","0,1,0","6","blank","376","null","0.08340287925874602","0.9286189895777814","0.47826813620549097","1","","","","","",""
"","do_recog","449","2385902","0.0-424.0-0.0","654.2999999523163","","","","55","","","","377","probe-30","","","","","1","[object Object]","85","2","1",""
"","do_trial","450","2389456","0.0-425.0-0.0","0.09999990463256836","","","","49","0,1,0","6","blank","378","null","0.14022582345050696","0.8668396114523228","0.44788660788493295","0","","","","","",""
"","do_recog","451","2391656","0.0-426.0-0.0","687.1000001430511","","","","54","","","","379","probe-234","","","","","1","[object Object]","40","1","0",""
"","do_trial","452","2395419","0.0-427.0-0.0","211.79999995231628","","","","50","0,1,0","6","blank","380","null","0.1515464775170876","0.751990674444543","0.41618015215758847","1","","","","","",""
"","do_recog","453","2398496","0.0-428.0-0.0","1566.5999999046326","","","","55","","","","381","probe-09","","","","","1","[object Object]","123","3","1",""
"","do_trial","454","2402419","0.0-429.0-0.0","372","","","","51","0,1,0","6","blank","382","null","0.14476408041317557","0.8371805987589492","0.4599651784710459","0","","","","","",""
"","do_trial","455","2406897","0.0-430.0-0.0","928.1000001430511","","","","50","1,0,1","6","blank","383","null","0.16879533876989045","0.8491115697185743","0.4575466448265963","0","","","","","",""
"","do_trial","456","2411297","0.0-431.0-0.0","848.5","","","","49","0,1,1","6","blank","384","null","0.2194503084370562","0.8439612975030671","0.44169293033259877","0","","","","","",""
"","do_recog","457","2415182","0.0-432.0-0.0","2372.2000000476837","","","","56","","","","385","probe-79","","","","","1","[object Object]","89","2","1",""
"","do_trial","458","2420666","0.0-433.0-0.0","1937.3999998569489","","","","49","0,1,0","6","blank","386","null","0.16948272448073265","0.8376949675508606","0.47823719070805776","0","","","","","",""
"","do_trial","459","2424576","0.0-434.0-0.0","358.69999980926514","","","","50","0,0,1","6","blank","387","null","0.1288555430706966","0.7779175578226657","0.32687641862241845","0","","","","","",""
"","do_trial","460","2429374","0.0-435.0-0.0","1248","","","","51","0,1,0","6","blank","388","null","0.26225182368456634","0.7729765374731926","0.3551925782570268","0","","","","","",""
"","do_trial","461","2433969","0.0-436.0-0.0","1045.7999999523163","","","","49","0,0,1","6","blank","389","null","0.27628598216100636","0.6351208358279791","0.5605806897176057","0","","","","","",""
"","do_recog","462","2437616","0.0-437.0-0.0","2134.600000143051","","","","54","","","","390","probe-19","","","","","1","[object Object]","41","1","0",""
"","do_trial","463","2442694","0.0-438.0-0.0","1528.5999999046326","","","","49","1,1,0","6","blank","391","null","0.24698524996405932","0.6463554673942905","0.6319377194033173","1","","","","","",""
"","do_trial","464","2447301","0.0-439.0-0.0","1060.1000001430511","","","","50","0,1,1","6","blank","392","null","0.09069411254198695","0.46507584936235885","0.5332527226438336","1","","","","","",""
"","do_trial","465","2451762","0.0-440.0-0.0","917","","","","50","0,0,1","6","blank","393","null","0.10407095054499277","0.4201120307574242","0.69156791907212","0","","","","","",""
"","do_recog","466","2456548","0.0-441.0-0.0","3272.7999999523163","","","","54","","","","394","probe-252","","","","","0","[object Object]","null","null","1",""
"","do_trial","467","2461450","0.0-442.0-0.0","1350.3999998569489","","","","50","0,0,1","6","blank","395","null","0.08604791170704265","0.37968464071281355","0.8351178222737059","0","","","","","",""
"","do_recog","468","2464484","0.0-443.0-0.0","1522","","","","55","","","","396","probe-40","","","","","1","[object Object]","200","5","1",""
"","do_trial","469","2469418","0.0-444.0-0.0","1385.7999999523163","","","","50","0,0,0","6","blank","397","null","0.08329933917997344","0.4023111241628216","0.9040430639912664","0","","","","","",""
"","do_trial","470","2475468","0.0-445.0-0.0","null","","","","null","0,0,1","6","blank","398","null","0.06328960056848197","0.3850580983569288","0.9115424784033482","","","","","","",""
"","do_recog","471","2478274","0.0-446.0-0.0","1294.4000000953674","","","","54","","","","399","probe-194","","","","","1","[object Object]","202","5","0",""
"","do_trial","472","2483106","0.0-447.0-0.0","1282.5","","","","49","0,1,1","6","blank","400","null","0.12634556010641548","0.36523574850546575","0.818105593270585","0","","","","","",""
"","do_trial","473","2487133","0.0-448.0-0.0","468.10000014305115","","","","50","1,0,1","6","blank","401","null","0.17536830427905942","0.43746161378267834","0.8282414847607542","0","","","","","",""
"","do_recog","474","2489936","0.0-449.0-0.0","1291.2000000476837","","","","54","","","","402","probe-205","","","","","1","[object Object]","82","2","0",""
"","do_trial","475","2494464","0.0-450.0-0.0","980.7999999523163","","","","50","1,1,0","6","blank","403","null","0.13828567085342777","0.4925288432677645","0.8494008468592011","1","","","","","",""
"","do_trial","476","2498726","0.0-451.0-0.0","710.7000000476837","","","","50","0,1,1","6","blank","404","null","0.10903406150374817","0.5083431051825285","0.838480393636384","1","","","","","",""
"","do_trial","477","2502754","0.0-452.0-0.0","479.39999985694885","","","","50","0,1,1","6","blank","405","null","0.10455227808823184","0.5620256291896093","0.7893375540362447","1","","","","","",""
"","do_recog","478","2506044","0.0-453.0-0.0","1777.5999999046326","","","","56","","","","406","probe-248","","","","","0","[object Object]","null","null","0",""
"","do_trial","479","2509949","0.0-454.0-0.0","356.40000009536743","","","","50","0,0,0","6","blank","407","null","0.07731132253274263","0.6483528018594916","0.7971242696614778","0","","","","","",""
"","do_recog","480","2513730","0.0-455.0-0.0","2268","","","","54","","","","408","probe-251","","","","","0","[object Object]","null","null","1",""
"","do_trial","481","2517787","0.0-456.0-0.0","508","","","","50","0,0,1","6","blank","409","null","0.0944362408044817","0.554772203332513","0.8422840366365794","0","","","","","",""
