"success","trial_type","trial_index","time_elapsed","internal_node_id","rt","stimulus","key_press","subject_id","response","choice_outcomes","context_n","context_img_id","trial_n","probe_img_id","pR_red","pR_white","pR_black","outcome","is_valid","image_to_show","probed_trial","probed_context","correct","context_id"
"true","fullscreen","0","14992","0.0-0.0","","","","","","","","","","","","","","","","","","","",""
"","pavlovia","1","14996","0.0-1.0","","","","","","","","","","","","","","","","","","","",""
"","html-keyboard-response","2","26956","0.0-2.0","11958.300000011921","<div class='center'><p>Welcome! This experiment will last ~1 hour. In this experiment, you are the head captain of a pirate ship traveling around the world to different places. You will complete several different tasks during this experiment. Here is an overview of these tasks:</p><br><p>1. Tutorial and quiz</p><p>2. Pick a pirate game in 6 different places</p><p>3. Pick a pirate game and memory game</p><p>4. Final questions and payment</p><br><p>If you complete the entire experiment, you will receive $15 and a possible bonus payment.</p><p><b>[Press the space bar to begin the tutorial]</b></p></div>","32","61327318da83edb47b6f9525","","","","","","","","","","","","","","","",""
"","html-keyboard-response","3","34652","0.0-3.0","7694.9000000059605","<div class='center'><p>You are the head captain of a pirate ship.</p><p> Your pirates rob other ships as they leave the marketplace port.</p> These ships have just sold all their goods at the marketplace, so they have lots and lots of gold on them.</p><p><img src='run_exp/static/images/ship_center.png' height='400'></p><p><b>[Press the space bar to continue]</b></p></div>","32","","","","","","","","","","","","","","","","",""
"","html-keyboard-response","4","44213","0.0-4.0","9560.09999999404","<div class='center'><p>As the head captain, you do not have to rob any ships yourself.</p><p>You get to choose which pirate you want to rob the next ship. </p><p>If they are successful at robbing the ship, then you will get gold coins.</p><p> If they are not successful, then you will get no gold coins.</p><p> The more coins you collect, the more bonus money you will win. So, choose your pirate wisely.</p><p><img src='run_exp/static/images/goal.png' height='400'></p><p><b>[Press the space bar to continue]</b></p><div>","32","","","","","","","","","","","","","","","","",""
"","html-keyboard-response","5","53596","0.0-5.0","9382.199999988079","<div class='center'><p>Even the most skilled pirate will not be able to rob EVERY ship.</p><p> Some ships will have very strong defenses against attacks.</p><p> For example, blue beard, here,  is very good at robbing ships.</p><p> You can press the <b>‘1’</b> button on the keyboard to choose him.</p><p> Try choosing him 10 times to see how often he is successful at robbing ships. </p><p><img src='run_exp/static/images/blue.png' height='500'></p></div>","49","","","","","","","","","","","","","","","","",""
"","html-keyboard-response","6","55101","0.0-6.0","null","<br><br><br><br><p><img src='run_exp/static/images/blue_win.png' height='500'></p>","null","","","","","","","","","","","","","","","","",""
"","html-keyboard-response","7","55213","0.0-7.0","111","<br><br><br><br><p><img src='run_exp/static/images/blue.png' height='500'></p>","49","","","","","","","","","","","","","","","","",""
"","html-keyboard-response","8","56719","0.0-8.0","null","<br><br><br><br><p><img src='run_exp/static/images/blue_win.png' height='500'></p>","null","","","","","","","","","","","","","","","","",""
"","html-keyboard-response","9","57604","0.0-9.0","884.0999999940395","<br><br><br><br><p><img src='run_exp/static/images/blue.png' height='500'></p>","49","","","","","","","","","","","","","","","","",""
"","html-keyboard-response","10","59109","0.0-10.0","null","<br><br><br><br><p><img src='run_exp/static/images/blue_win.png' height='500'></p>","null","","","","","","","","","","","","","","","","",""
"","html-keyboard-response","11","59636","0.0-11.0","526.5","<br><br><br><br><p><img src='run_exp/static/images/blue.png' height='500'></p>","49","","","","","","","","","","","","","","","","",""
"","html-keyboard-response","12","61139","0.0-12.0","null","<br><br><br><br><p><img src='run_exp/static/images/blue_no_win.png' height='500'></p>","null","","","","","","","","","","","","","","","","",""
"","html-keyboard-response","13","61876","0.0-13.0","736.9000000059605","<br><br><br><br><p><img src='run_exp/static/images/blue.png' height='500'></p>","49","","","","","","","","","","","","","","","","",""
"","html-keyboard-response","14","63378","0.0-14.0","null","<br><br><br><br><p><img src='run_exp/static/images/blue_win.png' height='500'></p>","null","","","","","","","","","","","","","","","","",""
"","html-keyboard-response","15","63948","0.0-15.0","569.2999999821186","<br><br><br><br><p><img src='run_exp/static/images/blue.png' height='500'></p>","49","","","","","","","","","","","","","","","","",""
"","html-keyboard-response","16","65454","0.0-16.0","null","<br><br><br><br><p><img src='run_exp/static/images/blue_win.png' height='500'></p>","null","","","","","","","","","","","","","","","","",""
"","html-keyboard-response","17","65981","0.0-17.0","526.4000000059605","<br><br><br><br><p><img src='run_exp/static/images/blue.png' height='500'></p>","49","","","","","","","","","","","","","","","","",""
"","html-keyboard-response","18","67487","0.0-18.0","null","<br><br><br><br><p><img src='run_exp/static/images/blue_win.png' height='500'></p>","null","","","","","","","","","","","","","","","","",""
"","html-keyboard-response","19","68061","0.0-19.0","572.7999999821186","<br><br><br><br><p><img src='run_exp/static/images/blue.png' height='500'></p>","49","","","","","","","","","","","","","","","","",""
"","html-keyboard-response","20","69565","0.0-20.0","null","<br><br><br><br><p><img src='run_exp/static/images/blue_no_win.png' height='500'></p>","null","","","","","","","","","","","","","","","","",""
"","html-keyboard-response","21","70156","0.0-21.0","590.8000000119209","<br><br><br><br><p><img src='run_exp/static/images/blue.png' height='500'></p>","49","","","","","","","","","","","","","","","","",""
"","html-keyboard-response","22","71661","0.0-22.0","null","<br><br><br><br><p><img src='run_exp/static/images/blue_win.png' height='500'></p>","null","","","","","","","","","","","","","","","","",""
"","html-keyboard-response","23","72221","0.0-23.0","558.8999999761581","<br><br><br><br><p><img src='run_exp/static/images/blue.png' height='500'></p>","49","","","","","","","","","","","","","","","","",""
"","html-keyboard-response","24","73724","0.0-24.0","null","<br><br><br><br><p><img src='run_exp/static/images/blue_win.png' height='500'></p>","null","","","","","","","","","","","","","","","","",""
"","html-keyboard-response","25","76613","0.0-25.0","2888.399999976158","<div class='center'><p> See, he was successful at robbing the ships most of the time but not every time. </p><p><b>[Press the space bar to continue]</b></p></div>","32","","","","","","","","","","","","","","","","",""
"","html-keyboard-response","26","82836","0.0-26.0","6221.9000000059605","<div class='center'><p>In the game, you will get to choose which of three pirates you want to rob the next ship. <p>Press the <b>‘1’</b> button on your keyboard to pick the pirate with the red beard.</p><p> Press <b>‘2’</b> to pick the pirate with the white beard.</p><p> Press <b>‘3’</b> to pick the pirate with the black beard.</p><p>Try picking a pirate now!</p><p><img src='run_exp/static/images/all_pirates.png' height='500'></p></div>","49","","","","","","","","","","","","","","","","",""
"","html-keyboard-response","27","85117","0.0-27.0-0.0","2278.5","<div class='center'><p>This pirate was successful at robbing the ship!</p><p><img src='run_exp/static/images/red_win.png' height='500'></p><p><b>[Press the space bar to continue]</b></p></div>","32","","","","","","","","","","","","","","","","",""
"","html-keyboard-response","28","86429","0.0-27.0-1.0","1311.0999999940395","<div class='center'><p>Now try choosing another</p><p><img src='run_exp/static/images/all_pirates.png' height='500'></p></div>","51","","","","","","","","","","","","","","","","",""
"","html-keyboard-response","29","87630","0.0-28.0-0.0","1199.800000011921","<div class='center'><p>This pirate was not successful at robbing the ship!</p><p><img src='run_exp/static/images/black_no_win.png' height='500'></p><p><b>[Press the space bar to continue]</b></p></div>","32","","","","","","","","","","","","","","","","",""
"","html-keyboard-response","30","95517","0.0-29.0-0.0","7886.5999999940395","<div class='center'><p>You’ll stop at these 6 places on your journey.</p><p><img src='run_exp/static/images/all_contexts.png' height='500'></p><p><b>[Press the space bar to continue]</b></p></div>","32","","","","","","","","","","","","","","","","",""
"","html-keyboard-response","31","101902","0.0-29.0-1.0","6384.300000011921","<div class='center'><p>How good a pirate is at robbing ships will depend on the current place.</p><p> Some pirates will have been to the place before, and will have more experience robbing ships there.</p><p>So, they will be more successful at stealing gold and bringing it back to you.</p><p><b>[Press the space bar to continue]</b></p></div>","32","","","","","","","","","","","","","","","","",""
"","html-keyboard-response","32","110238","0.0-29.0-2.0","8335.09999999404","<div class='center'><p>How successful a pirate is at robbing ships can also change in a place.<p> Ships may hear about the pirates coming and will improve their defenses. This may make it more difficult to rob them.</p><p> Ships may also grow lazy and lower their defenses. This may make it easier to rob them.</p><br><p>Things are always changing on the high seas! So, try your best to pay attention!</p><p><img src='run_exp/static/images/contingency.png' height='500'></p><p><b>[Press the space bar to continue]</b></p></div>","32","","","","","","","","","","","","","","","","",""
"","html-keyboard-response","33","138358","0.0-29.0-3.0","28119.30000001192","<div class='center'><p>Once you choose a pirate to rob a ship, you’ll be shown the ship they are robbing.</p><p>The ship will have a picture of the item they sold at the marketplace.</p><p> Try your best to remember the ship and where you saw the ship.</p><p> You’ll have to remember this for later, and remembering this correctly will help you win more bonus money!</p><p>You can remember the ship by remembering the item they sold at the marketplace</p><p>A helpful strategy is to try to come up with a story of the chosen pirate and ship’s item interacting with the scene.</p><p> For example, a ship might have sold travel mugs and you could imagine red beard walking through the city with a travel mug. </p><p>Or imagine an apple falling from a tree into white beard's hands in the forest.</p><p><img src='run_exp/static/images/example_probe.png' height='500'></p><p><b>[Press the space bar to continue]</b></p></div>","32","","","","","","","","","","","","","","","","",""
"","html-keyboard-response","34","144246","0.0-29.0-4.0","5886.4000000059605","<div class='center'><p>If you don’t make your choice fast enough, you’ll have to wait a few seconds before you can make another one. </p><p>You can’t win more gold. You just have to sit and wait.</p><p><img src='run_exp/static/images/hurry_up.png' height='500'></p><p><b>[Press the space bar to continue]</b></p></div>","32","","","","","","","","","","","","","","","","",""
"","html-keyboard-response","35","167999","0.0-29.0-5.0","23752.09999999404","<div class='center'><p>Again, you have two important things to do: </p><b><p> 1. Pick the pirate who you think will be most successful at robbing the next ship.</p></b><b><p> 2. Remember where a pirate robbed a ship.</p> </b><p>Both are important in determining how much bonus money you’ll win.</p><br><p>Let’s try a practice game. The game will start by showing you the pirates. First pick a pirate using the <b> 1, 2, 3 </b> buttons on your keyboard. When you are shown a ship, try to remember the place you’re in by making up a story.</p><p> You only have 3 seconds to pick a pirate, so please make a choice quickly! If you are too slow, you’ll have to wait a bit during the time out.</p><p> Don’t feel rushed, but please do try to make a choice every time.</p><p>How good a pirate is at robbing a ship will change depending on the place they are in and how good the defenses are of the ship.</p> <p>This is just a practice game, so you’re not playing for money. </p><p>You’ll receive a bag which may or may not contain gold coins.</p><p> In the real game, though, you’ll be able to see whether or not you received the gold coins.</p><p> Good luck, remember press <b>'1'</b> to choose red beard, <b>'2'</b> to choose white beard, and <b>'3'</b> to choose black beard</p><p><b>[Press the space bar to begin the practice game]</b></p></div>","32","","","","","","","","","","","","","","","","",""
"","do_trial_prac","36","173767","0.0-29.0-6.0","1257.4000000059605","","","","50","","","","","","","","","","","","","","",""
"","do_trial_prac","37","179645","0.0-29.0-7.0","1370.5999999940395","","","","51","","","","","","","","","","","","","","",""
"","do_trial_prac","38","185115","0.0-29.0-8.0","965","","","","49","","","","","","","","","","","","","","",""
"","do_trial_prac","39","190686","0.0-29.0-9.0","1062.2999999821186","","","","49","","","","","","","","","","","","","","",""
"","do_trial_prac","40","196296","0.0-29.0-10.0","1100.699999988079","","","","51","","","","","","","","","","","","","","",""
"","html-keyboard-response","41","200319","0.0-29.0-11.0","4021.699999988079","<div class='center'><p>Great job on the practice game!</p><p> Now, you will be asked you some true or false questions to make sure you really understand the rules of the game.</p><p> Press <b>'1'</b> on the keyboard for true and press <b>'2'</b> for false.</p><p><b>[Press the space bar to begin the quiz]</b></p></div>","32","","","","","","","","","","","","","","","","",""
"","html-keyboard-response","42","202271","0.0-29.0-12.0","1951.5999999940395","<div class='center'><p>You win bonus money by making choices as fast as possible.</p><p>Press 1 for true and press  2 for false.</p></div>","49","","","","","","","","","","","","","","","","",""
"","html-keyboard-response","43","204654","0.0-30.0-0.0","2382.100000023842","<br><br><br><br><p>That’s incorrect! You win bonus money by collecting as many gold coins as possible!</p><p><b>[press the space bar to continue with the quiz]</b></p>","32","","","","","","","","","","","","","","","","",""
"","html-keyboard-response","44","207807","0.0-30.0-1.0","3151.5999999940395","<div class='center'><p>You press the <b>‘3’</b> button on the keyboard to choose the red bearded pirate? </p><p>Press 1 for true and press  2 for false.</p></div>","50","","","","","","","","","","","","","","","","",""
"","html-keyboard-response","45","209054","0.0-31.0-0.0","1246.5","<br><br><br><br><p>That's correct!</p> <p><b>[press the space bar to continue with the quiz]</b></p>","32","","","","","","","","","","","","","","","","",""
"","html-keyboard-response","46","211119","0.0-31.0-1.0","2064.5","<div class='center'><p>A pirate will always be equally successful at robbing ships in each place</p><p>Press 1 for true and press  2 for false.</p></div>","50","","","","","","","","","","","","","","","","",""
"","html-keyboard-response","47","212047","0.0-32.0-0.0","927.2999999821186","<br><br><br><br><p>That's correct!</p> <p><b>[press the space bar to continue with the quiz]</b></p>","32","","","","","","","","","","","","","","","","",""
"","html-keyboard-response","48","215072","0.0-32.0-1.0","3024.2999999821186","<div class='center'><p>You should remember the place where a pirate robbed a ship.</p><p>Press 1 for true and press  2 for false.</p></div>","49","","","","","","","","","","","","","","","","",""
"","html-keyboard-response","49","216143","0.0-33.0-0.0","1070.0999999940395","<br><br><br><br><p>That's correct!</p> <p><b>[press the space bar to continue with the quiz]</b></p>","32","","","","","","","","","","","","","","","","",""
"","html-keyboard-response","50","220727","0.0-34.0-0.0","4583.4000000059605","<br><br><br><br><p>Oops, you missed some questions. Now that you’ve heard the correct answers. Try the quiz again! If you fail the quiz too many times, you won’t be able to do the experiment. </p> <p><br>[press the space bar to repeat the quiz]</br></p>","32","","","","","","","","","","","","","","","","",""
"","html-keyboard-response","51","225240","0.0-34.0-1.0","4512.300000011921","<div class='center'><p>You win bonus money by making choices as fast as possible.</p><p>Press 1 for true and press  2 for false.</p></div>","49","","","","","","","","","","","","","","","","",""
"","html-keyboard-response","52","228494","0.0-35.0-0.0","3253.9000000059605","<br><br><br><br><p>That’s incorrect! You win bonus money by collecting as many gold coins as possible!</p><p><b>[press the space bar to continue with the quiz]</b></p>","32","","","","","","","","","","","","","","","","",""
"","html-keyboard-response","53","230583","0.0-35.0-1.0","2087.5999999940395","<div class='center'><p>You press the <b>‘3’</b> button on the keyboard to choose the red bearded pirate? </p><p>Press 1 for true and press  2 for false.</p></div>","50","","","","","","","","","","","","","","","","",""
"","html-keyboard-response","54","231494","0.0-36.0-0.0","911.0999999940395","<br><br><br><br><p>That's correct!</p> <p><b>[press the space bar to continue with the quiz]</b></p>","32","","","","","","","","","","","","","","","","",""
"","html-keyboard-response","55","234022","0.0-36.0-1.0","2527.5999999940395","<div class='center'><p>A pirate will always be equally successful at robbing ships in each place</p><p>Press 1 for true and press  2 for false.</p></div>","50","","","","","","","","","","","","","","","","",""
"","html-keyboard-response","56","234767","0.0-37.0-0.0","744.1999999880791","<br><br><br><br><p>That's correct!</p> <p><b>[press the space bar to continue with the quiz]</b></p>","32","","","","","","","","","","","","","","","","",""
"","html-keyboard-response","57","238016","0.0-37.0-1.0","3248.2999999821186","<div class='center'><p>You should remember the place where a pirate robbed a ship.</p><p>Press 1 for true and press  2 for false.</p></div>","49","","","","","","","","","","","","","","","","",""
"","html-keyboard-response","58","238639","0.0-38.0-0.0","622.3000000119209","<br><br><br><br><p>That's correct!</p> <p><b>[press the space bar to continue with the quiz]</b></p>","32","","","","","","","","","","","","","","","","",""
"","html-keyboard-response","59","239615","0.0-39.0-0.0","974.6999999880791","<br><br><br><br><p>Oops, you missed some questions. Now that you’ve heard the correct answers. Try the quiz again! If you fail the quiz too many times, you won’t be able to do the experiment. </p> <p><br>[press the space bar to repeat the quiz]</br></p>","32","","","","","","","","","","","","","","","","",""
"","html-keyboard-response","60","241127","0.0-39.0-1.0","1511.5","<div class='center'><p>You win bonus money by making choices as fast as possible.</p><p>Press 1 for true and press  2 for false.</p></div>","50","","","","","","","","","","","","","","","","",""
"","html-keyboard-response","61","241927","0.0-40.0-0.0","799","<br><br><br><br><p>That's correct!</p> <p><b>[press the space bar to continue with the quiz]</b></p>","32","","","","","","","","","","","","","","","","",""
"","html-keyboard-response","62","244055","0.0-40.0-1.0","2127.7000000178814","<div class='center'><p>You press the <b>‘3’</b> button on the keyboard to choose the red bearded pirate? </p><p>Press 1 for true and press  2 for false.</p></div>","50","","","","","","","","","","","","","","","","",""
"","html-keyboard-response","63","244815","0.0-41.0-0.0","759.1999999880791","<br><br><br><br><p>That's correct!</p> <p><b>[press the space bar to continue with the quiz]</b></p>","32","","","","","","","","","","","","","","","","",""
"","html-keyboard-response","64","246527","0.0-41.0-1.0","1711.4000000059605","<div class='center'><p>A pirate will always be equally successful at robbing ships in each place</p><p>Press 1 for true and press  2 for false.</p></div>","50","","","","","","","","","","","","","","","","",""
"","html-keyboard-response","65","247103","0.0-42.0-0.0","575.5999999940395","<br><br><br><br><p>That's correct!</p> <p><b>[press the space bar to continue with the quiz]</b></p>","32","","","","","","","","","","","","","","","","",""
"","html-keyboard-response","66","248488","0.0-42.0-1.0","1384.2000000178814","<div class='center'><p>You should remember the place where a pirate robbed a ship.</p><p>Press 1 for true and press  2 for false.</p></div>","49","","","","","","","","","","","","","","","","",""
"","html-keyboard-response","67","249072","0.0-43.0-0.0","574.9000000059605","<br><br><br><br><p>That's correct!</p> <p><b>[press the space bar to continue with the quiz]</b></p>","32","","","","","","","","","","","","","","","","",""
"","html-keyboard-response","68","250240","0.0-44.0-0.0","1167.5","<br><br><br><br><p>Good job! You’re now ready to move on to the real game!</p> <p><br>[press the space bar to begin!]</br></p>","32","","","","","","","","","","","","","","","","",""
"","do_welcome","69","251747","0.0-45.0-0.0","null","","","","null","","","","","","","","","","","","","","",""
"","do_trial","70","258823","0.0-46.0-0.0","1532","","","","49","1,1,0","0","coast","0","probe-77","1","0.4","0.1","1","","","","","",""
"","do_trial","71","265904","0.0-47.0-0.0","1537.2000000178814","","","","50","1,1,0","0","coast","1","probe-165","1","0.2935871762050434","0.10639825807280875","1","","","","","",""
"","do_trial","72","273382","0.0-48.0-0.0","1936.7000000178814","","","","49","1,0,0","0","coast","2","probe-163","1","0.362128123030181","0.16636554305822648","1","","","","","",""
"","do_trial","73","279762","0.0-49.0-0.0","837.6000000238419","","","","51","1,0,0","0","coast","3","probe-01","1","0.2632661664300154","0.10631370357654568","0","","","","","",""
"","do_trial","74","286095","0.0-50.0-0.0","791.1999999880791","","","","50","1,0,0","0","coast","4","probe-220","0.8740273556100213","0.217383589392564","0.16232667926879032","0","","","","","",""
"","do_trial","75","292335","0.0-51.0-0.0","698.5999999940395","","","","49","1,0,0","0","coast","5","probe-181","0.7786275168292254","0.4358163198827284","0.13739678622593463","1","","","","","",""
"","do_trial","76","298866","0.0-52.0-0.0","986.6999999880791","","","","50","1,1,0","0","coast","6","probe-174","0.7744633423328732","0.41549445158425236","0.269919332506169","1","","","","","",""
"","do_trial","77","305322","0.0-53.0-0.0","912.9000000059605","","","","49","1,0,0","0","coast","7","probe-59","0.7018993936729174","0.5788144595510234","0.29274250978556665","1","","","","","",""
"","do_trial","78","313298","0.0-54.0-0.0","2431.7999999821186","","","","49","0,1,0","0","coast","8","probe-12","0.6526546439933977","0.4877452207417457","0.06484493404113253","0","","","","","",""
"","do_trial","79","320137","0.0-55.0-0.0","1297","","","","50","0,1,0","0","coast","9","probe-209","0.7619132627925106","0.4605360189496583","0.06442259434939754","1","","","","","",""
"","do_trial","80","326313","0.0-56.0-0.0","632.4000000059605","","","","49","1,1,0","0","coast","10","probe-27","0.6775343440387559","0.568626454489904","0.07939625068547874","1","","","","","",""
"","do_trial","81","333362","0.0-57.0-0.0","1504.5","","","","49","1,1,0","0","coast","11","probe-112","0.6333056042816266","0.562122047959381","0.15241182724681537","1","","","","","",""
"","do_trial","82","341121","0.0-58.0-0.0","2215.4000000059605","","","","51","0,0,1","0","coast","12","probe-200","0.5742058259649673","0.6447939998383799","0.1319881020107623","1","","","","","",""
"","do_trial","83","347329","0.0-59.0-0.0","665.1999999880791","","","","49","0,1,0","0","coast","13","probe-149","0.5694443763630838","0.7546660273672893","0.17681952440946633","0","","","","","",""
"","do_trial","84","353382","0.0-60.0-0.0","null","","","","null","1,1,0","0","coast","14","probe-137","0.6708999817110626","0.7579558678089175","0.0729965867963862","","","","","","",""
"","do_trial","85","359465","0.0-61.0-0.0","535.4000000059605","","","","50","1,1,0","0","coast","15","probe-79","0.600518003385613","0.7253807412185762","0.15331694031401516","1","","","","","",""
"","do_trial","86","365491","0.0-62.0-0.0","480.5","","","","50","0,0,1","0","coast","16","probe-75","0.5224829738737268","0.8273362989740318","0.16910916496587686","0","","","","","",""
"","do_trial","87","371911","0.0-63.0-0.0","880.5","","","","50","0,0,0","0","coast","17","probe-58","0.31831574836145865","0.7944937745379113","0.227084183574233","0","","","","","",""
"","do_trial","88","377977","0.0-64.0-0.0","518.6999999880791","","","","49","0,1,0","0","coast","18","probe-215","0.28383302737245664","0.8776040917632946","0.1468798862813555","0","","","","","",""
"","do_trial","89","384567","0.0-65.0-0.0","1049.8999999761581","","","","49","0,1,0","0","coast","19","probe-51","0.22269640702876917","0.9089196826298354","0.16300866564180744","0","","","","","",""
"","do_trial","90","390575","0.0-66.0-0.0","467.90000000596046","","","","51","1,1,0","0","coast","20","probe-29","0.3783886675676599","0.7844589438923519","0.07301606935804342","0","","","","","",""
"","do_trial","91","396548","0.0-67.0-0.0","429.39999997615814","","","","50","1,1,0","0","coast","21","probe-172","0.36618816167951407","0.9100194294981173","0.12679563125864277","1","","","","","",""
"","do_trial","92","403027","0.0-68.0-0.0","934.9000000059605","","","","50","0,1,0","0","coast","22","probe-17","0.3512107846371973","0.8747462792991574","0.16900787898361436","1","","","","","",""
"","do_trial","93","409251","0.0-69.0-0.0","681.1999999880791","","","","50","1,1,0","0","coast","23","probe-49","0.3789446339349376","0.8781055077324669","0.15358852617895452","1","","","","","",""
"","do_trial","94","415206","0.0-70.0-0.0","415.5","","","","49","0,1,0","0","coast","24","probe-183","0.288854220193599","0.8015331908607196","0.057005783100335494","0","","","","","",""
"","do_trial","95","421243","0.0-71.0-0.0","494.5","","","","50","0,1,0","0","coast","25","probe-44","0.311324371610834","0.751719508246471","0.07078227638424604","1","","","","","",""
"","do_trial","96","427576","0.0-72.0-0.0","792.5","","","","50","0,1,0","0","coast","26","probe-90","0.33794642711308426","0.8847130849042648","0.05409114317215909","1","","","","","",""
"","do_trial","97","433930","0.0-73.0-0.0","812.5","","","","51","0,1,0","0","coast","27","probe-146","0.3957977429353881","0.7458249953651503","0.22763975726738145","0","","","","","",""
"","do_trial","98","439939","0.0-74.0-0.0","463.7999999821186","","","","50","0,1,0","0","coast","28","probe-02","0.39765978079239106","0.6954824712103174","0.10069396965421426","1","","","","","",""
"","do_trial","99","446404","0.0-75.0-0.0","921.8000000119209","","","","50","0,0,0","0","coast","29","probe-217","0.5658914218417893","0.7176230061394372","0.056753216075537224","0","","","","","",""
"","do_trial","100","452443","0.0-76.0-0.0","496","","","","49","1,1,0","0","coast","30","probe-72","0.5111743393085699","0.761688028006182","0.11325534179348562","1","","","","","",""
"","do_trial","101","458837","0.0-77.0-0.0","850","","","","49","0,1,0","0","coast","31","probe-09","0.46177321836494406","0.7003348631133771","0.08179123699240297","0","","","","","",""
"","do_trial","102","465025","0.0-78.0-0.0","647.8000000119209","","","","49","0,1,0","0","coast","32","probe-31","0.3338186267973316","0.7998787719191631","0.08908045557987102","0","","","","","",""
"","do_trial","103","471252","0.0-79.0-0.0","684.2999999821186","","","","50","1,1,1","0","coast","33","probe-185","0.4474111933326371","0.7081543902288233","0.20425404831105348","1","","","","","",""
"","do_trial","104","477467","0.0-80.0-0.0","672.5","","","","50","0,1,0","0","coast","34","probe-140","0.5403240521782268","0.811361927278384","0.12770895219033854","1","","","","","",""
"","do_trial","105","484652","0.0-81.0-0.0","1642.300000011921","","","","51","1,1,0","0","coast","35","probe-56","0.5846667580591174","0.7774484200812697","0.13026903633984438","0","","","","","",""
"","do_trial","106","490492","0.0-82.0-0.0","297","","","","50","1,1,0","0","coast","36","probe-99","0.45115984384442714","0.7920014815551244","0.09701058334054695","1","","","","","",""
"","do_trial","107","496750","0.0-83.0-0.0","713.8000000119209","","","","50","0,1,0","0","coast","37","probe-231","0.471422699638169","0.7511954582777993","0.23214331798894286","1","","","","","",""
"","do_trial","108","503101","0.0-84.0-0.0","806.5","","","","49","0,1,0","0","coast","38","probe-87","0.4066371164134619","0.8405028298768419","0.11764323958711032","0","","","","","",""
"","do_trial","109","509178","0.0-85.0-0.0","537.4000000059605","","","","50","1,1,0","0","coast","39","probe-234","0.4511763704474144","0.8666136408018104","0.16471637737904712","1","","","","","",""
"","do_bye","110","510688","0.0-86.0-0.0","null","","","","null","","","","","","","","","","","","","","",""
"","do_travel","111","516690","0.0-87.0-0.0","null","","","","null","","","","","","","","","","","","","","",""
"","do_welcome","112","518199","0.0-87.0-1.0","null","","","","null","","","","","","","","","","","","","","",""
"","do_trial","113","524248","0.0-88.0-0.0","null","","","","null","0,1,0","1","countryside","40","probe-114","0.4624338728238663","1","0.05509776637380734","","","","","","",""
"","do_trial","114","530657","0.0-89.0-0.0","864.4000000059605","","","","49","1,1,0","1","countryside","41","probe-161","0.5430323718428167","1","0.08689190702289881","1","","","","","",""
"","do_trial","115","536816","0.0-90.0-0.0","621.2999999821186","","","","49","1,1,0","1","countryside","42","probe-19","0.500231852896117","1","0.07065554185712511","1","","","","","",""
"","do_trial","116","543102","0.0-91.0-0.0","741.0999999940395","","","","49","1,1,0","1","countryside","43","probe-69","0.5788994732982521","1","0.17689293111846788","1","","","","","",""
"","do_trial","117","549460","0.0-92.0-0.0","816.0999999940395","","","","49","1,1,1","1","countryside","44","probe-26","0.46110007268898445","0.9307372807640943","0.07857520066156824","1","","","","","",""
"","do_trial","118","555370","0.0-93.0-0.0","370.2000000178814","","","","49","1,1,0","1","countryside","45","probe-177","0.38518798045495173","0.9171896687878701","0.08934836491510353","1","","","","","",""
"","do_trial","119","561610","0.0-94.0-0.0","699.3999999761581","","","","49","1,1,1","1","countryside","46","probe-178","0.3282873557433456","0.7653457098919393","0.242631851813154","1","","","","","",""
"","do_trial","120","567630","0.0-95.0-0.0","476.30000001192093","","","","49","0,1,0","1","countryside","47","probe-55","0.43926769047415753","0.7992863280088982","0.2068784128158444","0","","","","","",""
"","do_trial","121","573505","0.0-96.0-0.0","336.5","","","","50","0,1,0","1","countryside","48","probe-65","0.4339634450604735","0.9137675433958434","0.314385115511753","1","","","","","",""
"","do_trial","122","579469","0.0-97.0-0.0","420.19999998807907","","","","50","1,0,0","1","countryside","49","probe-34","0.48873330347910526","0.7311414442381876","0.06750608011597603","0","","","","","",""
"","do_trial","123","585381","0.0-98.0-0.0","368.5","","","","51","1,0,1","1","countryside","50","probe-138","0.3428113393404398","0.5179099331006929","0.538600364867947","1","","","","","",""
"","do_trial","124","591274","0.0-99.0-0.0","353.2000000178814","","","","51","0,0,1","1","countryside","51","probe-07","0.3103014539754692","0.4603073693687573","0.6469081704669236","1","","","","","",""
"","do_trial","125","597605","0.0-100.0-0.0","788.5","","","","51","0,1,1","1","countryside","52","probe-214","0.07102793778614994","0.5975038347838251","0.7556589872963844","1","","","","","",""
"","do_trial","126","603522","0.0-101.0-0.0","377.5","","","","51","0,1,0","1","countryside","53","probe-100","0.11499302080745923","0.5366203528835988","0.6300128446256321","0","","","","","",""
"","do_trial","127","609347","0.0-102.0-0.0","284.69999998807907","","","","49","0,0,1","1","countryside","54","probe-171","0.08792401336771583","0.47318429007512974","0.6044258103051741","0","","","","","",""
"","do_trial","128","615318","0.0-103.0-0.0","428.5","","","","49","0,0,1","1","countryside","55","probe-141","0.13816231349824684","0.32182371860886905","0.6931309164229194","0","","","","","",""
"","do_trial","129","621269","0.0-104.0-0.0","408.40000000596046","","","","50","0,0,1","1","countryside","56","probe-238","0.33137268398621444","0.2161865779509518","0.6971584978254957","0","","","","","",""
"","do_trial","130","627207","0.0-105.0-0.0","393.90000000596046","","","","51","0,0,1","1","countryside","57","probe-216","0.3873681698565734","0.22933243843958337","0.8717313279250037","1","","","","","",""
"","do_trial","131","633213","0.0-106.0-0.0","463.7000000178814","","","","51","1,0,1","1","countryside","58","probe-120","0.324215411653757","0.3681320457781716","0.814824158520009","1","","","","","",""
"","do_trial","132","639381","0.0-107.0-0.0","626.4000000059605","","","","51","0,1,0","1","countryside","59","probe-115","0.26618950877172604","0.3319885137614976","0.6987013046766093","0","","","","","",""
"","do_trial","133","645534","0.0-108.0-0.0","610.5","","","","51","1,0,0","1","countryside","60","probe-70","0.32302175934124927","0.27562297570994465","0.7555287423969405","0","","","","","",""
"","do_trial","134","651397","0.0-109.0-0.0","321.5","","","","49","0,0,1","1","countryside","61","probe-175","0.12317568226764404","0.37422948657364763","0.6736185364605228","0","","","","","",""
"","do_trial","135","657318","0.0-110.0-0.0","377.2999999821186","","","","50","0,0,1","1","countryside","62","probe-96","0.06890227065824943","0.4252837905040219","0.7445592391279692","0","","","","","",""
"","do_trial","136","663239","0.0-111.0-0.0","378.19999998807907","","","","51","1,1,1","1","countryside","63","probe-57","0.14820088627213038","0.4584849195400875","0.7149197755949561","1","","","","","",""
"","do_trial","137","669197","0.0-112.0-0.0","415.60000002384186","","","","51","0,1,1","1","countryside","64","probe-110","0.1364806215090644","0.3975725377040433","0.8914224179615274","1","","","","","",""
"","do_trial","138","675366","0.0-113.0-0.0","627.5999999940395","","","","51","1,0,1","1","countryside","65","probe-121","0.0519699136650307","0.5019515925664526","0.8738811791603432","1","","","","","",""
"","do_trial","139","681406","0.0-114.0-0.0","497","","","","51","0,1,1","1","countryside","66","probe-131","0.07225671090046404","0.5897562047215531","0.8260168518460413","1","","","","","",""
"","do_trial","140","687463","0.0-115.0-0.0","513.9000000059605","","","","51","0,0,0","1","countryside","67","probe-48","0.17113200461096206","0.4728560823566392","0.8050676020916885","0","","","","","",""
"","do_trial","141","693687","0.0-116.0-0.0","680.8000000119209","","","","51","0,1,1","1","countryside","68","probe-54","0.11888719329482271","0.5434726404706681","0.6327184781337257","1","","","","","",""
"","do_trial","142","699702","0.0-117.0-0.0","473.10000002384186","","","","51","1,0,0","1","countryside","69","probe-106","0.14761284371701114","0.37445632742052426","0.7753310274584874","0","","","","","",""
"","do_trial","143","705678","0.0-118.0-0.0","435.2999999821186","","","","51","0,1,0","1","countryside","70","probe-74","0.16437219669569872","0.36939001047982944","0.6749479937201044","0","","","","","",""
"","do_trial","144","711567","0.0-119.0-0.0","343.2999999821186","","","","49","0,0,1","1","countryside","71","probe-93","0.21333243219225492","0.43484023439953545","0.6582133567191705","0","","","","","",""
"","do_trial","145","717471","0.0-120.0-0.0","360.19999998807907","","","","50","0,0,1","1","countryside","72","probe-227","0.05896291371673037","0.3716915148484992","0.5878005580843053","0","","","","","",""
"","do_trial","146","723432","0.0-121.0-0.0","418.69999998807907","","","","51","0,1,1","1","countryside","73","probe-142","0.12326311907287425","0.611327478641427","0.6789110212444236","1","","","","","",""
"","do_trial","147","729400","0.0-122.0-0.0","423.40000000596046","","","","51","0,0,0","1","countryside","74","probe-35","0.20655066499585442","0.5262709666747425","0.6718863364645496","0","","","","","",""
"","do_trial","148","735409","0.0-123.0-0.0","464.80000001192093","","","","49","0,1,0","1","countryside","75","probe-81","0.17565632181725796","0.4738578395720917","0.8097348027669139","0","","","","","",""
"","do_trial","149","741376","0.0-124.0-0.0","423","","","","50","0,0,1","1","countryside","76","probe-170","0.1493345617370592","0.3370683639119326","0.7902147247782453","0","","","","","",""
"","do_trial","150","747367","0.0-125.0-0.0","449.90000000596046","","","","51","0,0,0","1","countryside","77","probe-89","0.150274514180691","0.3485210616037223","0.6823175526022155","0","","","","","",""
"","do_trial","151","753352","0.0-126.0-0.0","441.7999999821186","","","","49","0,0,1","1","countryside","78","probe-129","0.28923149515737795","0.4360953555017493","0.7547045902146725","0","","","","","",""
"","do_trial","152","759302","0.0-127.0-0.0","406.59999999403954","","","","50","0,0,1","1","countryside","79","probe-60","0.20661488058967137","0.4261976250356738","0.6652292719956419","0","","","","","",""
"","do_bye","153","760811","0.0-128.0-0.0","null","","","","null","","","","","","","","","","","","","","",""
"","do_travel","154","766814","0.0-129.0-0.0","null","","","","null","","","","","","","","","","","","","","",""
"","do_welcome","155","768323","0.0-129.0-1.0","null","","","","null","","","","","","","","","","","","","","",""
"","do_trial","156","774528","0.0-130.0-0.0","663.3000000119209","","","","51","1,1,1","2","forest","80","probe-122","0.14678208608861396","0.4806874665980867","1","1","","","","","",""
"","do_trial","157","780612","0.0-131.0-0.0","546.1999999880791","","","","51","0,1,1","2","forest","81","probe-50","0.22910573215357222","0.49236990526966823","1","1","","","","","",""
"","do_trial","158","786530","0.0-132.0-0.0","374","","","","51","1,0,1","2","forest","82","probe-76","0.09543227255305971","0.493160657025872","1","1","","","","","",""
"","do_trial","159","792567","0.0-133.0-0.0","495.40000000596046","","","","51","1,0,1","2","forest","83","probe-63","0.1231026948686009","0.3890015481591476","1","1","","","","","",""
"","do_trial","160","798847","0.0-134.0-0.0","738.7999999821186","","","","51","0,1,1","2","forest","84","probe-41","0.19180620546636878","0.5574754804468525","0.8951415470066966","1","","","","","",""
"","do_trial","161","804920","0.0-135.0-0.0","530.5999999940395","","","","51","0,1,1","2","forest","85","probe-97","0.19324369025502944","0.5869213940596599","0.8922083683727159","1","","","","","",""
"","do_trial","162","811385","0.0-136.0-0.0","922.5","","","","51","0,1,0","2","forest","86","probe-10","0.16587945867649068","0.6511792688299741","0.7535792574136768","0","","","","","",""
"","do_trial","163","817260","0.0-137.0-0.0","335.80000001192093","","","","49","0,1,1","2","forest","87","probe-156","0.18580612775054006","0.4789358834606095","0.6914659217224035","0","","","","","",""
"","do_trial","164","823158","0.0-138.0-0.0","358.19999998807907","","","","50","0,0,1","2","forest","88","probe-52","0.13882933644389162","0.5603615581440845","0.7821220270524237","0","","","","","",""
"","do_trial","165","829311","0.0-139.0-0.0","612.7000000178814","","","","49","0,1,1","2","forest","89","probe-84","0.09021344295546938","0.597926613869988","0.8561252703159117","0","","","","","",""
"","do_trial","166","835633","0.0-140.0-0.0","780.1999999880791","","","","51","1,0,1","2","forest","90","probe-11","0.47798362042304093","0.5218839831771805","0.6980697228557844","1","","","","","",""
"","do_trial","167","841647","0.0-141.0-0.0","472.90000000596046","","","","51","1,0,0","2","forest","91","probe-184","0.6021345408232288","0.479760527819232","0.5638907052129387","0","","","","","",""
"","do_trial","168","848055","0.0-142.0-0.0","867.1999999880791","","","","51","0,1,0","2","forest","92","probe-225","0.6748617267295381","0.3653195458226382","0.4191941489506475","0","","","","","",""
"","do_trial","169","854418","0.0-143.0-0.0","818.8000000119209","","","","51","0,0,0","2","forest","93","probe-32","0.7774909643270053","0.3415774374455618","0.38302883736226523","0","","","","","",""
"","do_trial","170","860281","0.0-144.0-0.0","321.09999999403954","","","","50","1,0,1","2","forest","94","probe-240","0.8898941399522035","0.29892413653634453","0.3163212447805931","0","","","","","",""
"","do_trial","171","866318","0.0-145.0-0.0","496.7999999821186","","","","50","1,0,0","2","forest","95","probe-189","0.7958331890584933","0.2918328386193338","0.2594505377608965","0","","","","","",""
"","do_trial","172","872268","0.0-146.0-0.0","404.39999997615814","","","","49","1,1,0","2","forest","96","probe-88","0.7565012155489526","0.2058421524463932","0.39105384861885845","1","","","","","",""
"","do_trial","173","878161","0.0-147.0-0.0","350.90000000596046","","","","49","1,1,1","2","forest","97","probe-154","0.8175331038326549","0.21140235142956587","0.24328174300909328","1","","","","","",""
"","do_trial","174","884443","0.0-148.0-0.0","603.1999999880791","","","","49","1,0,0","2","forest","98","probe-205","0.9351585060747379","0.11059543801384378","0.3235954171467836","1","","","","","",""
"","do_trial","175","890432","0.0-149.0-0.0","450.2999999821186","","","","49","1,0,1","2","forest","99","probe-199","0.8179232340764522","0.0673944751420016","0.4204025393774041","1","","","","","",""
"","do_trial","176","896509","0.0-150.0-0.0","534.0999999940395","","","","49","0,0,0","2","forest","100","probe-42","0.6671700008363328","0.09940358422209801","0.43377528959068906","0","","","","","",""
"","do_trial","177","902541","0.0-151.0-0.0","486.69999998807907","","","","49","1,0,0","2","forest","101","probe-68","0.7183856089344565","0.2678731513290994","0.42484246403678805","1","","","","","",""
"","do_trial","178","908834","0.0-152.0-0.0","752.8000000119209","","","","49","1,0,1","2","forest","102","probe-155","0.72854440232734","0.1052985764107879","0.4907816638282149","1","","","","","",""
"","do_trial","179","914900","0.0-153.0-0.0","522.4000000059605","","","","49","0,0,1","2","forest","103","probe-222","0.684754986644114","0.21806689759561312","0.5224699118585346","0","","","","","",""
"","do_trial","180","920875","0.0-154.0-0.0","433.7999999821186","","","","49","1,0,0","2","forest","104","probe-228","0.82407360426292","0.2406777514081591","0.46093930752131523","1","","","","","",""
"","do_trial","181","927131","0.0-155.0-0.0","714.7000000178814","","","","49","0,0,1","2","forest","105","probe-113","0.8378570957569694","0.22746615880888915","0.35110201219409987","0","","","","","",""
"","do_trial","182","933703","0.0-156.0-0.0","1027.1000000238419","","","","50","1,0,0","2","forest","106","probe-30","0.874534449247044","0.09731264893879232","0.43896461554386923","0","","","","","",""
"","do_trial","183","939578","0.0-157.0-0.0","335.59999999403954","","","","51","1,0,0","2","forest","107","probe-36","0.8407209680808958","0.14136324112090864","0.32645296443047644","0","","","","","",""
"","do_trial","184","945662","0.0-158.0-0.0","541.9000000059605","","","","49","1,0,0","2","forest","108","probe-102","0.822499126285923","0.05289638345768536","0.38776205044191514","1","","","","","",""
"","do_trial","185","952007","0.0-159.0-0.0","801","","","","49","1,0,0","2","forest","109","probe-46","0.8848392677181335","0.08124386523936403","0.2958674121947879","1","","","","","",""
"","do_trial","186","958067","0.0-160.0-0.0","520.0999999940395","","","","49","1,0,0","2","forest","110","probe-226","0.8022163121402979","0.11968521387854482","0.40765600643740846","1","","","","","",""
"","do_trial","187","964359","0.0-161.0-0.0","747.6999999880791","","","","49","1,1,0","2","forest","111","probe-85","0.8192196639867383","0.060773900818161364","0.4642960764744893","1","","","","","",""
"","do_trial","188","970724","0.0-162.0-0.0","824.8000000119209","","","","50","1,0,0","2","forest","112","probe-123","0.9329914304528226","0.18422440598392714","0.5664230293775231","0","","","","","",""
"","do_trial","189","976614","0.0-163.0-0.0","347","","","","49","1,0,1","2","forest","113","probe-139","0.8711241612590772","0.15133718032959195","0.5308959305510702","1","","","","","",""
"","do_trial","190","982879","0.0-164.0-0.0","722.1999999880791","","","","49","1,1,1","2","forest","114","probe-118","0.7284872897575568","0.28105811968989863","0.3835902821172906","1","","","","","",""
"","do_trial","191","988965","0.0-165.0-0.0","541.3000000119209","","","","49","1,1,0","2","forest","115","probe-192","0.75840365708544","0.1589988666559089","0.20533525911586703","1","","","","","",""
"","do_trial","192","995197","0.0-166.0-0.0","690.3000000119209","","","","49","1,1,0","2","forest","116","probe-157","0.8551041553943526","0.13286975307246915","0.23932867279926065","1","","","","","",""
"","do_trial","193","1001661","0.0-167.0-0.0","923.1999999880791","","","","49","1,0,0","2","forest","117","probe-91","0.8721529384060968","0.0898587639312922","0.21098224091272444","1","","","","","",""
"","do_trial","194","1007841","0.0-168.0-0.0","635.3000000119209","","","","49","1,1,1","2","forest","118","probe-116","0.8778729780271476","0.09850447702409154","0.34205486599527235","1","","","","","",""
"","do_trial","195","1013936","0.0-169.0-0.0","551.0999999940395","","","","49","0,0,1","2","forest","119","probe-168","0.8087684315941273","0.10649216505732509","0.3653701880717955","0","","","","","",""
"","do_bye","196","1015441","0.0-170.0-0.0","null","","","","null","","","","","","","","","","","","","","",""
"","do_travel","197","1021448","0.0-171.0-0.0","null","","","","null","","","","","","","","","","","","","","",""
"","do_welcome","198","1022955","0.0-171.0-1.0","null","","","","null","","","","","","","","","","","","","","",""
"","do_trial","199","1029233","0.0-172.0-0.0","734.0999999940395","","","","50","1,0,1","3","city","120","probe-64","1","0.29036492356965476","0.3333819040469664","0","","","","","",""
"","do_trial","200","1035189","0.0-173.0-0.0","416.19999998807907","","","","50","1,1,1","3","city","121","probe-219","1","0.2248248621019719","0.2529962261252126","1","","","","","",""
"","do_trial","201","1041096","0.0-174.0-0.0","365.39999997615814","","","","50","1,0,0","3","city","122","probe-05","1","0.10856123410352606","0.19425230465241716","0","","","","","",""
"","do_trial","202","1047031","0.0-175.0-0.0","393.40000000596046","","","","51","1,0,0","3","city","123","probe-158","1","0.14708635202935866","0.27496996303368765","0","","","","","",""
"","do_trial","203","1052889","0.0-176.0-0.0","313.90000000596046","","","","49","1,0,0","3","city","124","probe-218","0.9276491158346337","0.14299622969191517","0.3896449078667484","1","","","","","",""
"","do_trial","204","1058952","0.0-177.0-0.0","516.2999999821186","","","","49","1,0,1","3","city","125","probe-130","0.9135064953106988","0.12026346857174232","0.489757290517982","1","","","","","",""
"","do_trial","205","1065039","0.0-178.0-0.0","546.3999999761581","","","","49","1,0,0","3","city","126","probe-28","0.7791258225125034","0.215718262885397","0.38398616274471364","1","","","","","",""
"","do_trial","206","1071018","0.0-179.0-0.0","430.80000001192093","","","","49","1,0,0","3","city","127","probe-152","0.77755052280779","0.1207352247158165","0.42744755669298534","1","","","","","",""
"","do_trial","207","1077129","0.0-180.0-0.0","568.8999999761581","","","","49","1,0,1","3","city","128","probe-128","0.7467796070042471","0.23630588061998198","0.42603792945661834","1","","","","","",""
"","do_trial","208","1083238","0.0-181.0-0.0","570.1999999880791","","","","49","1,0,0","3","city","129","probe-18","0.7936735796122474","0.17899701302010104","0.252366829123517","1","","","","","",""
"","do_trial","209","1089392","0.0-182.0-0.0","612.5","","","","49","1,1,1","3","city","130","probe-14","0.5491235730885043","0.46532898148859875","0.39909761126595994","1","","","","","",""
"","do_trial","210","1095383","0.0-183.0-0.0","450.40000000596046","","","","49","1,1,0","3","city","131","probe-197","0.38039029978669037","0.4534032873184763","0.374402182425005","1","","","","","",""
"","do_trial","211","1101495","0.0-184.0-0.0","571.2000000178814","","","","49","0,1,0","3","city","132","probe-159","0.3273698970009677","0.407554347465086","0.447995468995099","0","","","","","",""
"","do_trial","212","1107440","0.0-185.0-0.0","401.69999998807907","","","","49","0,1,1","3","city","133","probe-61","0.17652809952397142","0.6830177832739304","0.3990997682150757","0","","","","","",""
"","do_trial","213","1113379","0.0-186.0-0.0","395.40000000596046","","","","50","0,0,0","3","city","134","probe-233","0.18580331481019843","0.7744574896680139","0.40908718688720114","0","","","","","",""
"","do_trial","214","1119282","0.0-187.0-0.0","360","","","","51","0,0,0","3","city","135","probe-40","0.13635677457409323","0.6718229632721773","0.35439330399289704","0","","","","","",""
"","do_trial","215","1125489","0.0-188.0-0.0","666.6000000238419","","","","50","0,1,0","3","city","136","probe-166","0.12745782743505119","0.8527081797257353","0.36895849223974336","1","","","","","",""
"","do_trial","216","1131473","0.0-189.0-0.0","443.09999999403954","","","","50","0,1,0","3","city","137","probe-237","0.1549585994552015","0.7323158325822605","0.33370374123741464","1","","","","","",""
"","do_trial","217","1137569","0.0-190.0-0.0","555.5","","","","50","0,1,1","3","city","138","probe-182","0.24219115905847843","0.9423347436521379","0.488006183240072","1","","","","","",""
"","do_trial","218","1143635","0.0-191.0-0.0","523.7999999821186","","","","50","0,1,1","3","city","139","probe-16","0.3216217239092443","0.9392932223344191","0.44590709192703404","1","","","","","",""
"","do_trial","219","1149829","0.0-192.0-0.0","648.9000000059605","","","","50","0,1,0","3","city","140","probe-95","0.05646195113548586","0.9416839613673886","0.42469921087970525","1","","","","","",""
"","do_trial","220","1156023","0.0-193.0-0.0","655","","","","50","1,1,0","3","city","141","probe-153","0.17228467962910615","0.9279116153053966","0.5277877796405822","1","","","","","",""
"","do_trial","221","1162965","0.0-194.0-0.0","1398.0999999940395","","","","50","0,1,1","3","city","142","probe-210","0.05263754248874118","0.8087984355783207","0.40148762771849195","1","","","","","",""
"","do_trial","222","1169160","0.0-195.0-0.0","656","","","","50","0,1,0","3","city","143","probe-105","0.05777429817617595","0.8494600975906357","0.15631811642803634","1","","","","","",""
"","do_trial","223","1175273","0.0-196.0-0.0","573.9000000059605","","","","50","0,1,0","3","city","144","probe-38","0.12295293447727723","0.7996656475622232","0.1444754694571294","1","","","","","",""
"","do_trial","224","1181369","0.0-197.0-0.0","554.9000000059605","","","","50","0,1,0","3","city","145","probe-20","0.06647896448741658","0.7697456241402951","0.16445268484829562","1","","","","","",""
"","do_trial","225","1187290","0.0-198.0-0.0","381.5","","","","50","0,1,0","3","city","146","probe-194","0.0702778789127514","0.684770882558467","0.18894051926547714","1","","","","","",""
"","do_trial","226","1193539","0.0-199.0-0.0","707.0999999940395","","","","50","0,1,0","3","city","147","probe-207","0.07501002761316207","0.6261059959180003","0.16628713188740182","1","","","","","",""
"","do_trial","227","1199765","0.0-200.0-0.0","683.7999999821186","","","","50","0,1,0","3","city","148","probe-22","0.20649665283705226","0.6993629687925962","0.1850662114785509","1","","","","","",""
"","do_trial","228","1205692","0.0-201.0-0.0","384.30000001192093","","","","50","0,1,0","3","city","149","probe-111","0.18719828320532447","0.6770885385677916","0.19214075863066668","1","","","","","",""
"","do_trial","229","1211815","0.0-202.0-0.0","577.6999999880791","","","","50","0,1,0","3","city","150","probe-33","0.14028457374007566","0.7118715024113257","0.369218672759755","1","","","","","",""
"","do_trial","230","1218237","0.0-203.0-0.0","879.5999999940395","","","","50","0,1,0","3","city","151","probe-180","0.21002027553805147","0.866189981506208","0.5690084051548726","1","","","","","",""
"","do_trial","231","1224533","0.0-204.0-0.0","753.7000000178814","","","","50","0,0,1","3","city","152","probe-104","0.3291124783316856","0.7674393167056635","0.5567565700497666","0","","","","","",""
"","do_trial","232","1230597","0.0-205.0-0.0","521.1999999880791","","","","50","1,1,0","3","city","153","probe-212","0.18450512292654275","0.7248173573825407","0.46078975900259855","1","","","","","",""
"","do_trial","233","1236691","0.0-206.0-0.0","555.1999999880791","","","","50","0,1,0","3","city","154","probe-107","0.08114493789473347","0.859875807327608","0.43834945776522655","1","","","","","",""
"","do_trial","234","1242990","0.0-207.0-0.0","755.9000000059605","","","","50","0,1,1","3","city","155","probe-03","0.16005585159550606","0.9373024749594668","0.43691711780122783","1","","","","","",""
"","do_trial","235","1248987","0.0-208.0-0.0","455.2999999821186","","","","50","0,1,1","3","city","156","probe-67","0.13200566002221115","0.8110841865945047","0.557544006994664","1","","","","","",""
"","do_trial","236","1255254","0.0-209.0-0.0","724.5999999940395","","","","50","0,0,1","3","city","157","probe-190","0.06751084765941125","0.7143828367887822","0.49594253384554055","0","","","","","",""
"","do_trial","237","1261213","0.0-210.0-0.0","418.90000000596046","","","","50","0,1,1","3","city","158","probe-78","0.0738003450956933","0.7553356899873204","0.5662307067259369","1","","","","","",""
"","do_trial","238","1267331","0.0-211.0-0.0","578.2000000178814","","","","50","0,1,1","3","city","159","probe-133","0.11379525577753877","0.7769369629337995","0.5216820143164984","1","","","","","",""
"","do_bye","239","1268839","0.0-212.0-0.0","null","","","","null","","","","","","","","","","","","","","",""
"","do_travel","240","1274843","0.0-213.0-0.0","null","","","","null","","","","","","","","","","","","","","",""
"","do_welcome","241","1276350","0.0-213.0-1.0","null","","","","null","","","","","","","","","","","","","","",""
"","do_trial","242","1282396","0.0-214.0-0.0","null","","","","null","0,1,1","4","mountain","160","probe-82","0.05172861751094608","1","0.45805445219802227","","","","","","",""
"","do_trial","243","1288526","0.0-215.0-0.0","589","","","","51","0,1,1","4","mountain","161","probe-143","0.15722942793986863","1","0.6455907784841703","1","","","","","",""
"","do_trial","244","1294408","0.0-216.0-0.0","338.80000001192093","","","","51","1,1,0","4","mountain","162","probe-24","0.16433320503043508","1","0.5752586662836895","0","","","","","",""
"","do_trial","245","1300415","0.0-217.0-0.0","465.69999998807907","","","","51","0,1,1","4","mountain","163","probe-43","0.06777530928139922","1","0.5939988610218848","1","","","","","",""
"","do_trial","246","1306325","0.0-218.0-0.0","369.7000000178814","","","","51","0,1,0","4","mountain","164","probe-06","0.05489063152152152","0.858656830699265","0.3113208681382788","0","","","","","",""
"","do_trial","247","1312240","0.0-219.0-0.0","372.90000000596046","","","","49","0,1,1","4","mountain","165","probe-135","0.12599340793612906","0.7298781060004373","0.369133174340719","0","","","","","",""
"","do_trial","248","1318289","0.0-220.0-0.0","505.09999999403954","","","","50","0,1,1","4","mountain","166","probe-204","0.13650610581660508","0.9071745735173558","0.45067721343829176","1","","","","","",""
"","do_trial","249","1324207","0.0-221.0-0.0","376.19999998807907","","","","49","0,1,1","4","mountain","167","probe-101","0.09378185343533217","0.9039990275711982","0.46831127312389476","0","","","","","",""
"","do_trial","250","1330137","0.0-222.0-0.0","386.7000000178814","","","","50","0,1,1","4","mountain","168","probe-203","0.08759664668626897","0.8666989450454554","0.41364561249885146","1","","","","","",""
"","do_trial","251","1336314","0.0-223.0-0.0","633.4000000059605","","","","50","0,1,0","4","mountain","169","probe-119","0.06236399925903701","0.735880436183343","0.3856809256627263","1","","","","","",""
"","do_trial","252","1342305","0.0-224.0-0.0","447.69999998807907","","","","50","1,1,0","4","mountain","170","probe-108","0.37520898421325355","0.500422235595067","0.432134379350005","1","","","","","",""
"","do_trial","253","1348330","0.0-225.0-0.0","482.30000001192093","","","","50","1,1,0","4","mountain","171","probe-13","0.6081611305541014","0.30811541369931017","0.4574944285256466","1","","","","","",""
"","do_trial","254","1354496","0.0-226.0-0.0","624.0999999940395","","","","50","1,0,1","4","mountain","172","probe-213","0.6082540249297517","0.07662084617210019","0.36849616659405804","0","","","","","",""
"","do_trial","255","1360440","0.0-227.0-0.0","403.59999999403954","","","","50","1,0,1","4","mountain","173","probe-208","0.7507405488669626","0.120842101340505","0.38800873459545293","0","","","","","",""
"","do_trial","256","1366391","0.0-228.0-0.0","410.19999998807907","","","","49","1,0,0","4","mountain","174","probe-04","0.8792257735527027","0.11397668746927746","0.47237819544839654","1","","","","","",""
"","do_trial","257","1372331","0.0-229.0-0.0","397.09999999403954","","","","49","0,0,1","4","mountain","175","probe-187","0.7725441552615749","0.2461582002098888","0.5995251980780794","0","","","","","",""
"","do_trial","258","1378233","0.0-230.0-0.0","360.09999999403954","","","","49","1,0,1","4","mountain","176","probe-98","0.814142779116132","0.22487412914238872","0.635748250808659","1","","","","","",""
"","do_trial","259","1384306","0.0-231.0-0.0","530.2000000178814","","","","49","1,1,0","4","mountain","177","probe-198","0.7956212517360285","0.06861070812794953","0.3980577169318808","1","","","","","",""
"","do_trial","260","1390291","0.0-232.0-0.0","441.90000000596046","","","","49","0,0,0","4","mountain","178","probe-191","0.6799210097367437","0.084411250291553","0.38163058718328724","0","","","","","",""
"","do_trial","261","1396258","0.0-233.0-0.0","425.2999999821186","","","","49","1,0,1","4","mountain","179","probe-71","0.741691415639543","0.05202308964590874","0.3620216216744156","1","","","","","",""
"","do_trial","262","1402258","0.0-234.0-0.0","457.69999998807907","","","","49","0,0,0","4","mountain","180","probe-80","0.7596975094546676","0.21067885688624635","0.42498916601350717","0","","","","","",""
"","do_trial","263","1408402","0.0-235.0-0.0","601.6999999880791","","","","49","1,0,0","4","mountain","181","probe-134","0.6951262140117708","0.21540741157958465","0.49241663528478496","1","","","","","",""
"","do_trial","264","1414336","0.0-236.0-0.0","394.19999998807907","","","","49","0,0,0","4","mountain","182","probe-66","0.6400818919278639","0.11573642045632437","0.376068293316066","0","","","","","",""
"","do_trial","265","1420251","0.0-237.0-0.0","372.40000000596046","","","","51","1,0,0","4","mountain","183","probe-176","0.7057033020717443","0.09282156275965563","0.4409981646312782","0","","","","","",""
"","do_trial","266","1426120","0.0-238.0-0.0","328.40000000596046","","","","50","0,0,1","4","mountain","184","probe-221","0.6772905215912509","0.17375562366178102","0.5937935399323242","0","","","","","",""
"","do_trial","267","1431971","0.0-239.0-0.0","309.80000001192093","","","","49","1,0,0","4","mountain","185","probe-103","0.7505643400684342","0.11082485483056782","0.521510170854993","1","","","","","",""
"","do_trial","268","1437893","0.0-240.0-0.0","377.59999999403954","","","","49","1,0,1","4","mountain","186","probe-127","0.8177798595748823","0.16920986451526215","0.4118185882344595","1","","","","","",""
"","do_trial","269","1443765","0.0-241.0-0.0","329","","","","49","1,0,0","4","mountain","187","probe-109","0.817168756942318","0.14434313662225381","0.5009157929046949","1","","","","","",""
"","do_trial","270","1449677","0.0-242.0-0.0","368.19999998807907","","","","49","1,0,1","4","mountain","188","probe-229","0.7920446888816157","0.0993669481054394","0.3582177619914706","1","","","","","",""
"","do_trial","271","1455699","0.0-243.0-0.0","481.19999998807907","","","","49","1,0,0","4","mountain","189","probe-147","0.7892168637325944","0.1453278971795955","0.4664364205681902","1","","","","","",""
"","do_trial","272","1461613","0.0-244.0-0.0","370.7999999821186","","","","49","1,0,0","4","mountain","190","probe-224","0.8193244493481552","0.11108629204216854","0.5036543663766844","1","","","","","",""
"","do_trial","273","1467668","0.0-245.0-0.0","512.6999999880791","","","","49","1,0,0","4","mountain","191","probe-195","0.8720112789412272","0.1728074753353099","0.432286662782916","1","","","","","",""
"","do_trial","274","1473635","0.0-246.0-0.0","425.5","","","","49","1,0,1","4","mountain","192","probe-08","0.8028799462074006","0.05955111812045292","0.545961243017387","1","","","","","",""
"","do_trial","275","1479667","0.0-247.0-0.0","490.89999997615814","","","","49","1,0,0","4","mountain","193","probe-39","0.6897244785093843","0.12184418813203313","0.4282847115695174","1","","","","","",""
"","do_trial","276","1485820","0.0-248.0-0.0","610.8000000119209","","","","49","0,0,1","4","mountain","194","probe-145","0.730672853393666","0.29014754863695447","0.6029814178704149","0","","","","","",""
"","do_trial","277","1491731","0.0-249.0-0.0","371","","","","49","1,0,1","4","mountain","195","probe-167","0.798673282837833","0.1952837988840125","0.5742677988747136","1","","","","","",""
"","do_trial","278","1497699","0.0-250.0-0.0","427.60000002384186","","","","49","1,1,1","4","mountain","196","probe-136","0.9048889240868146","0.12861435316949232","0.3956709624584155","1","","","","","",""
"","do_trial","279","1503596","0.0-251.0-0.0","354.80000001192093","","","","49","1,0,0","4","mountain","197","probe-124","0.8946547595032901","0.17569374066591675","0.3389986372598229","1","","","","","",""
"","do_trial","280","1509610","0.0-252.0-0.0","475.30000001192093","","","","49","0,1,0","4","mountain","198","probe-25","0.7363735656676509","0.22944226405941778","0.34784566522090415","0","","","","","",""
"","do_trial","281","1515920","0.0-253.0-0.0","766.5","","","","49","0,0,1","4","mountain","199","probe-193","0.823280131126792","0.1903896424509986","0.4494763638023722","0","","","","","",""
"","do_bye","282","1517430","0.0-254.0-0.0","null","","","","null","","","","","","","","","","","","","","",""
"","do_travel","283","1523432","0.0-255.0-0.0","null","","","","null","","","","","","","","","","","","","","",""
"","do_welcome","284","1524941","0.0-255.0-1.0","null","","","","null","","","","","","","","","","","","","","",""
"","do_trial","285","1531623","0.0-256.0-0.0","1140.0999999940395","","","","51","1,0,0","5","highway","200","probe-164","1","0.1265204665739059","0.43024022146647484","0","","","","","",""
"","do_trial","286","1537573","0.0-257.0-0.0","408.2999999821186","","","","50","1,0,0","5","highway","201","probe-47","1","0.09295667303843004","0.392791144999336","0","","","","","",""
"","do_trial","287","1543463","0.0-258.0-0.0","346.5","","","","49","1,0,0","5","highway","202","probe-37","1","0.16922136352024464","0.4158383179742611","1","","","","","",""
"","do_trial","288","1549352","0.0-259.0-0.0","345.90000000596046","","","","49","1,1,0","5","highway","203","probe-23","1","0.25203133454370535","0.20345553569803876","1","","","","","",""
"","do_trial","289","1555393","0.0-260.0-0.0","498.59999999403954","","","","49","1,1,1","5","highway","204","probe-196","0.9028830394161065","0.3774124912954828","0.25401678422916446","1","","","","","",""
"","do_trial","290","1561444","0.0-261.0-0.0","511.59999999403954","","","","49","1,0,0","5","highway","205","probe-206","0.8312413635822397","0.2800298192570948","0.41274309999049286","1","","","","","",""
"","do_trial","291","1567743","0.0-262.0-0.0","758.0999999940395","","","","49","1,0,0","5","highway","206","probe-73","0.8056343086765133","0.10829129417301996","0.45923587687131817","1","","","","","",""
"","do_trial","292","1573864","0.0-263.0-0.0","577.7999999821186","","","","49","1,0,0","5","highway","207","probe-125","0.7758768619430703","0.11671338693048594","0.39647354492031456","1","","","","","",""
"","do_trial","293","1579934","0.0-264.0-0.0","530.5","","","","49","0,0,0","5","highway","208","probe-151","0.6205063474590464","0.13523417421812103","0.5289199989080468","0","","","","","",""
"","do_trial","294","1585855","0.0-265.0-0.0","378.5","","","","49","1,0,1","5","highway","209","probe-53","0.6364050384736387","0.08096862390441618","0.3804858645928987","1","","","","","",""
"","do_trial","295","1593117","0.0-266.0-0.0","1723","","","","49","0,0,0","5","highway","210","probe-132","0.3994997908266494","0.31358469137312056","0.3532960832999421","0","","","","","",""
"","do_trial","296","1599178","0.0-267.0-0.0","518.0999999940395","","","","49","0,1,1","5","highway","211","probe-162","0.23777099698338622","0.44239585600816456","0.2695230951964283","0","","","","","",""
"","do_trial","297","1605302","0.0-268.0-0.0","584.9000000059605","","","","50","0,0,1","5","highway","212","probe-126","0.188635071955778","0.6630178092376948","0.204772799384445","0","","","","","",""
"","do_trial","298","1611287","0.0-269.0-0.0","443.90000000596046","","","","51","0,1,0","5","highway","213","probe-150","0.19161682280724285","0.6761229025614179","0.1907168847586438","0","","","","","",""
"","do_trial","299","1617193","0.0-270.0-0.0","363.80000001192093","","","","49","0,0,0","5","highway","214","probe-186","0.1464115723541449","0.6528847589261594","0.20610339013455922","0","","","","","",""
"","do_trial","300","1623054","0.0-271.0-0.0","320.90000000596046","","","","49","0,1,0","5","highway","215","probe-230","0.2476432221366869","0.655371682574183","0.3196080256286455","0","","","","","",""
"","do_trial","301","1628952","0.0-272.0-0.0","356.59999999403954","","","","50","0,1,1","5","highway","216","probe-45","0.24784036987289085","0.7640479181764321","0.2886770011111815","1","","","","","",""
"","do_trial","302","1634874","0.0-273.0-0.0","379.39999997615814","","","","50","0,0,0","5","highway","217","probe-201","0.24116708430975445","0.7549971182463956","0.36797191761164727","0","","","","","",""
"","do_trial","303","1640810","0.0-274.0-0.0","393.5","","","","50","0,0,0","5","highway","218","probe-144","0.12083770934504955","0.8912511830939037","0.37966784914876683","0","","","","","",""
"","do_trial","304","1646719","0.0-275.0-0.0","368.5","","","","51","0,1,1","5","highway","219","probe-62","0.15499158540910454","0.8288864799796387","0.39713311937375523","1","","","","","",""
"","do_trial","305","1652603","0.0-276.0-0.0","341.80000001192093","","","","51","1,1,0","5","highway","220","probe-173","0.10912575899494474","0.9064250996004285","0.2574917547385259","0","","","","","",""
"","do_trial","306","1659192","0.0-277.0-0.0","1047.5999999940395","","","","51","0,1,0","5","highway","221","probe-169","0.06212062072900402","0.8424544872859946","0.3059410776161181","0","","","","","",""
"","do_trial","307","1665258","0.0-278.0-0.0","524.6999999880791","","","","49","0,1,0","5","highway","222","probe-94","0.11509802880913181","0.8085157964900054","0.40096746324690996","0","","","","","",""
"","do_trial","308","1671354","0.0-279.0-0.0","553.7999999821186","","","","49","0,1,0","5","highway","223","probe-92","0.10881536652532572","0.8410020737485318","0.4191791008391452","0","","","","","",""
"","do_trial","309","1677390","0.0-280.0-0.0","493.5","","","","50","1,1,1","5","highway","224","probe-188","0.06396553189112857","0.7016661774298463","0.49581068384516563","1","","","","","",""
"","do_trial","310","1683388","0.0-281.0-0.0","455.2999999821186","","","","50","0,1,0","5","highway","225","probe-86","0.05630172415088141","0.9168045438844087","0.49580874146662113","1","","","","","",""
"","do_trial","311","1689332","0.0-282.0-0.0","401.40000000596046","","","","50","0,0,0","5","highway","226","probe-83","0.18149291079190202","0.8903800799675712","0.3194014948197291","0","","","","","",""
"","do_trial","312","1695195","0.0-283.0-0.0","320.40000000596046","","","","50","0,1,0","5","highway","227","probe-235","0.07222108790648471","0.8829211027728329","0.4136434847071883","1","","","","","",""
"","do_trial","313","1701397","0.0-284.0-0.0","658.4000000059605","","","","50","0,1,1","5","highway","228","probe-179","0.07654802275773541","0.8540002988085129","0.5482856922929334","1","","","","","",""
"","do_trial","314","1707469","0.0-285.0-0.0","528.5","","","","50","0,0,0","5","highway","229","probe-148","0.10883644963022698","0.7425978478074299","0.4014255117083013","0","","","","","",""
"","do_trial","315","1713510","0.0-286.0-0.0","497.40000000596046","","","","50","0,0,1","5","highway","230","probe-239","0.05209718387347063","0.702211313157996","0.532430171696028","0","","","","","",""
"","do_trial","316","1719411","0.0-287.0-0.0","358.5","","","","50","0,1,1","5","highway","231","probe-232","0.15780511225665186","0.7614287676132366","0.44192735553762513","1","","","","","",""
"","do_trial","317","1725366","0.0-288.0-0.0","410.80000001192093","","","","50","1,1,0","5","highway","232","probe-160","0.24246007368829206","0.6756807443043108","0.3939493844405839","1","","","","","",""
"","do_trial","318","1731773","0.0-289.0-0.0","863.6999999880791","","","","50","1,1,0","5","highway","233","probe-15","0.3210387711926784","0.780299170179456","0.30024315729159","1","","","","","",""
"","do_trial","319","1738042","0.0-290.0-0.0","729.1999999880791","","","","50","0,0,0","5","highway","234","probe-21","0.2158159395629894","0.8296846508852777","0.22939398075908574","0","","","","","",""
"","do_trial","320","1744269","0.0-291.0-0.0","683.5999999940395","","","","50","0,1,0","5","highway","235","probe-236","0.32496194217821545","0.7551295739909755","0.3243851048379512","1","","","","","",""
"","do_trial","321","1750292","0.0-292.0-0.0","482.69999998807907","","","","50","0,1,0","5","highway","236","probe-202","0.26121142595599367","0.9372781610392484","0.4258342893286172","1","","","","","",""
"","do_trial","322","1756492","0.0-293.0-0.0","656.7999999821186","","","","50","0,0,1","5","highway","237","probe-211","0.05859966468207773","0.8232973503981694","0.34397216064300007","0","","","","","",""
"","do_trial","323","1762703","0.0-294.0-0.0","666.9000000059605","","","","50","1,1,0","5","highway","238","probe-117","0.09381022166964713","0.7702121189265253","0.11768943865982148","1","","","","","",""
"","do_trial","324","1768958","0.0-295.0-0.0","711.5999999940395","","","","50","0,0,0","5","highway","239","probe-223","0.17196972807481176","0.7427208599986225","0.0883606019853867","0","","","","","",""
"","do_bye","325","1770465","0.0-296.0-0.0","null","","","","null","","","","","","","","","","","","","","",""
"","html-keyboard-response","326","1826680","0.0-296.0-1.0","56212.79999998212","<div class='center'><p>You may take a break now!</p><p> Stretch for a little bit. Get a glass of water.</p><p> You have two minutes to rest. Then, the game will automatically move on.</p><p>If you’d like to get started on the second half of the experiment sooner, then press the <b>space bar</b></p></div>","32","","","","","","","","","","","","","","","","",""
"","html-keyboard-response","327","1834672","0.0-296.0-2.0","7990.4000000059605","<div class='center'><p>You’ve arrived at the final destination of your journey! Unfortunately, it’s very foggy out, so you won’t be able to see it in the distance like in previous places you've visited.</p><p>You’ll still be deciding which pirates you want to rob ships. However, because of the fog you also won’t be able to see the ship in the distance. </p><p><b>[Press the space bar to continue]</b></p></div>","32","","","","","","","","","","","","","","","","",""
"","html-keyboard-response","328","1851296","0.0-296.0-3.0","16607.5","<div class='center'><p> Sometimes you’ll be asked if you’ve seen a ship before (see the example below). You will use the 5, 6, 7, 8 buttons on your keyboard to respond. </p><p> If you definitely did not see the ship, pick the the big red thumbs down by pressing <b>5</b>.</p><p> If you don’t think you saw it but aren’t sure, then pick the small red thumbs down by pressing <b>6</b>.</p><p> If you think you might have seen it, then pick the small green thumbs up by pressing <b>7</b>.</p><p> If you definitely did see this ship before, then pick the big thumb green thumbs up by pressing <b>8</b>.</p><p> If you recall correctly, then you’ll get a gold coin!</p><p><b>[Press the space bar to begin the next phase of the experiment]</b></p><p><img src='run_exp/static/images/example_recog_trial.png' height='500'></p></div>","32","","","","","","","","","","","","","","","","",""
"","do_welcome","329","1852805","0.0-296.0-4.0","null","","","","null","","","","","","","","","","","","","","",""
"","do_trial","330","1858092","0.0-297.0-0.0","1741.300000011921","","","","49","0,1,0","6","blank","240","null","0.24749235269019568","1","0.14057820240425034","0","","","","","",""
"","do_recog","331","1862646","0.0-298.0-0.0","3044.300000011921","","","","56","","","","241","probe-24","","","","","1","[object Object]","162","4","1",""
"","do_trial","332","1867251","0.0-299.0-0.0","1059.9000000059605","","","","50","1,1,0","6","blank","242","null","0.2574496762588393","0.8982394118128322","0.13026521230924246","1","","","","","",""
"","do_trial","333","1872373","0.0-300.0-0.0","1575.699999988079","","","","51","0,1,0","6","blank","243","null","0.2832799237593085","0.9417485977952882","0.2555639769507294","0","","","","","",""
"","do_trial","334","1876581","0.0-301.0-0.0","664.4000000059605","","","","50","0,1,1","6","blank","244","null","0.1641855213547613","0.8204659623545704","0.319051786234061","1","","","","","",""
"","do_trial","335","1880582","0.0-302.0-0.0","458.2999999821186","","","","50","0,1,0","6","blank","245","null","0.13230637724437222","0.9150070917971848","0.24529100921366734","1","","","","","",""
"","do_recog","336","1884278","0.0-303.0-0.0","2187","","","","53","","","","246","probe-244","","","","","0","[object Object]","null","null","1",""
"","do_trial","337","1888583","0.0-304.0-0.0","761.5","","","","50","0,1,0","6","blank","247","null","0.11472864823571507","0.8511896835300704","0.3622482991591794","1","","","","","",""
"","do_recog","338","1892103","0.0-305.0-0.0","2011.4000000059605","","","","53","","","","248","probe-251","","","","","0","[object Object]","null","null","1",""
"","do_trial","339","1897821","0.0-306.0-0.0","2177.899999976158","","","","49","0,1,1","6","blank","249","null","0.07978130075136233","0.8496168044522827","0.3375876001784923","0","","","","","",""
"","do_recog","340","1901152","0.0-307.0-0.0","1822.5","","","","56","","","","250","probe-50","","","","","1","[object Object]","81","2","1",""
"","do_trial","341","1905384","0.0-308.0-0.0","690","","","","50","0,1,1","6","blank","251","null","0.09059452740003941","0.779480707119818","0.49305613749928023","1","","","","","",""
"","do_trial","342","1909703","0.0-309.0-0.0","777.4000000059605","","","","50","0,1,0","6","blank","252","null","0.12693674215419684","0.8559697121936085","0.5676053636082448","1","","","","","",""
"","do_trial","343","1913953","0.0-310.0-0.0","706.5","","","","50","0,1,1","6","blank","253","null","0.131692271715139","0.8477650119027339","0.5074528970391973","1","","","","","",""
"","do_trial","344","1917842","0.0-311.0-0.0","348","","","","50","1,1,0","6","blank","254","null","0.3946371897251931","0.5530638848628872","0.46424751841518175","1","","","","","",""
"","do_recog","345","1920571","0.0-312.0-0.0","1217.0999999940395","","","","56","","","","255","probe-196","","","","","1","[object Object]","204","5","1",""
"","do_trial","346","1924785","0.0-313.0-0.0","671.5","","","","50","0,1,1","6","blank","256","null","0.5628465927747264","0.28811939703995326","0.4112684274401691","1","","","","","",""
"","do_recog","347","1927624","0.0-314.0-0.0","1331.5999999940395","","","","56","","","","257","probe-10","","","","","1","[object Object]","86","2","1",""
"","do_trial","348","1931723","0.0-315.0-0.0","554.3999999761581","","","","50","0,0,1","6","blank","258","null","0.6713961834441655","0.3114685835749412","0.39492540871923515","0","","","","","",""
"","do_trial","349","1935690","0.0-316.0-0.0","423.90000000596046","","","","50","1,1,1","6","blank","259","null","0.7094887913442205","0.29204941814613494","0.5515715322370883","1","","","","","",""
"","do_recog","350","1938689","0.0-317.0-0.0","1492.199999988079","","","","56","","","","260","probe-63","","","","","1","[object Object]","83","2","1",""
"","do_trial","351","1942776","0.0-318.0-0.0","546.1999999880791","","","","50","1,0,0","6","blank","261","null","0.792442896249547","0.3072626384725967","0.4145056233237888","0","","","","","",""
"","do_trial","352","1947081","0.0-319.0-0.0","763","","","","50","1,0,1","6","blank","262","null","0.7471069652770902","0.22096028258913553","0.49105843133310684","0","","","","","",""
"","do_recog","353","1951706","0.0-320.0-0.0","3117.4000000059605","","","","54","","","","263","probe-26","","","","","1","[object Object]","44","1","0",""
"","do_trial","354","1956650","0.0-321.0-0.0","1401.0999999940395","","","","50","1,0,0","6","blank","264","null","0.9267215708182508","0.2269298760980732","0.5275954815741135","0","","","","","",""
"","do_recog","355","1959739","0.0-322.0-0.0","1579.4000000059605","","","","56","","","","265","probe-34","","","","","1","[object Object]","49","1","1",""
"","do_trial","356","1964180","0.0-323.0-0.0","898.5999999940395","","","","51","1,1,1","6","blank","266","null","0.9177723583853344","0.2504459296806339","0.5352741839893217","1","","","","","",""
"","do_recog","357","1967187","0.0-324.0-0.0","1497.9000000059605","","","","56","","","","267","probe-178","","","","","1","[object Object]","46","1","1",""
"","do_trial","358","1971291","0.0-325.0-0.0","561.8999999761581","","","","51","1,0,1","6","blank","268","null","0.909152309202908","0.16698514657468574","0.6170919847626324","1","","","","","",""
"","do_trial","359","1975465","0.0-326.0-0.0","634.3000000119209","","","","51","1,0,0","6","blank","269","null","0.7653259271692474","0.1801756757318627","0.5146519327277832","0","","","","","",""
"","do_trial","360","1979551","0.0-327.0-0.0","547.4000000059605","","","","51","1,1,1","6","blank","270","null","0.8625286220181927","0.2005749220700821","0.42950737686732543","1","","","","","",""
"","do_trial","361","1983945","0.0-328.0-0.0","852.5","","","","51","1,0,0","6","blank","271","null","0.7918279667243283","0.1938090267978299","0.430673701130599","0","","","","","",""
"","do_recog","362","1987429","0.0-329.0-0.0","1973.9000000059605","","","","55","","","","272","probe-69","","","","","1","[object Object]","43","1","1",""
"","do_trial","363","1992572","0.0-330.0-0.0","1596.800000011921","","","","49","1,0,1","6","blank","273","null","0.812992379429453","0.05701631896143221","0.4640496353367894","1","","","","","",""
"","do_trial","364","1996572","0.0-331.0-0.0","456.7000000178814","","","","49","1,0,0","6","blank","274","null","0.764633398771029","0.05131799595845665","0.46431123010552106","1","","","","","",""
"","do_trial","365","2000700","0.0-332.0-0.0","585","","","","49","1,0,0","6","blank","275","null","0.6947651855907884","0.09997633347110502","0.42696768959885156","1","","","","","",""
"","do_trial","366","2004770","0.0-333.0-0.0","521.4000000059605","","","","49","1,0,0","6","blank","276","null","0.719999111253051","0.17654474396166733","0.4955047336514391","1","","","","","",""
"","do_trial","367","2008985","0.0-334.0-0.0","671.4000000059605","","","","49","0,0,1","6","blank","277","null","0.694449468836063","0.25814004460603474","0.46333385880738215","0","","","","","",""
"","do_recog","368","2012299","0.0-335.0-0.0","1807.5999999940395","","","","53","","","","278","probe-05","","","","","1","[object Object]","122","3","0",""
"","do_trial","369","2016611","0.0-336.0-0.0","769.5","","","","50","1,1,1","6","blank","279","null","0.7822518242700791","0.1629642817517309","0.40436259936684876","1","","","","","",""
"","do_trial","370","2020837","0.0-337.0-0.0","682.8000000119209","","","","50","1,0,1","6","blank","280","null","0.7605492440128283","0.07063111840395123","0.3476357292378394","0","","","","","",""
"","do_recog","371","2024530","0.0-338.0-0.0","2187.2000000178814","","","","55","","","","281","probe-219","","","","","1","[object Object]","121","3","1",""
"","do_trial","372","2028875","0.0-339.0-0.0","803.9000000059605","","","","50","1,0,0","6","blank","282","null","0.8503006900566866","0.09187726042029691","0.41837974686496915","0","","","","","",""
"","do_recog","373","2032547","0.0-340.0-0.0","2164.2999999821186","","","","55","","","","283","probe-122","","","","","1","[object Object]","80","2","1",""
"","do_trial","374","2036829","0.0-341.0-0.0","739.6000000238419","","","","51","1,0,0","6","blank","284","null","1","0.13842562925104204","0.3369654305974356","0","","","","","",""
"","do_recog","375","2039444","0.0-342.0-0.0","1107.4000000059605","","","","56","","","","285","probe-218","","","","","1","[object Object]","124","3","1",""
"","do_trial","376","2043670","0.0-343.0-0.0","682.9000000059605","","","","51","1,0,0","6","blank","286","null","0.9039294691201611","0.21418231338169413","0.3173121254352711","0","","","","","",""
"","do_trial","377","2047588","0.0-344.0-0.0","377.7000000178814","","","","49","1,0,1","6","blank","287","null","0.919820418906017","0.20451859983061887","0.32673044068342494","1","","","","","",""
"","do_trial","378","2051878","0.0-345.0-0.0","745.7000000178814","","","","49","1,0,1","6","blank","288","null","0.8151618088780179","0.09841914631338801","0.3507270932275602","1","","","","","",""
"","do_trial","379","2055878","0.0-346.0-0.0","456.59999999403954","","","","49","1,0,0","6","blank","289","null","0.6863753552488135","0.07191202436181032","0.2621445368597856","1","","","","","",""
"","do_trial","380","2060023","0.0-347.0-0.0","601.9000000059605","","","","49","1,0,1","6","blank","290","null","0.718075796735495","0.08022125309333986","0.4297715114381147","1","","","","","",""
"","do_recog","381","2062815","0.0-348.0-0.0","1282.0999999940395","","","","56","","","","291","probe-37","","","","","1","[object Object]","202","5","1",""
"","do_trial","382","2066995","0.0-349.0-0.0","638.7000000178814","","","","49","0,0,0","6","blank","292","null","0.7486122758498921","0.12146541321377619","0.43771472717277277","0","","","","","",""
"","do_trial","383","2070988","0.0-350.0-0.0","452.80000001192093","","","","49","1,0,1","6","blank","293","null","0.6721731214312189","0.07289295960076698","0.47882521843355014","1","","","","","",""
"","do_recog","384","2074263","0.0-351.0-0.0","1765","","","","54","","","","294","probe-248","","","","","0","[object Object]","null","null","1",""
"","do_trial","385","2078397","0.0-352.0-0.0","592.8000000119209","","","","49","0,0,0","6","blank","295","null","0.8643156692383156","0.07437434999106295","0.3631812619602921","0","","","","","",""
"","do_recog","386","2081118","0.0-353.0-0.0","1213","","","","56","","","","296","probe-156","","","","","1","[object Object]","87","2","1",""
"","do_trial","387","2085510","0.0-354.0-0.0","848.8999999761581","","","","50","1,0,0","6","blank","297","null","0.7815281482081663","0.09263918883681539","0.31031451991997544","0","","","","","",""
"","do_recog","388","2088094","0.0-355.0-0.0","1075.9000000059605","","","","56","","","","298","probe-41","","","","","1","[object Object]","84","2","1",""
"","do_trial","389","2092212","0.0-356.0-0.0","577.3000000119209","","","","51","1,0,1","6","blank","299","null","0.9216500939290492","0.050515249051091206","0.4363734205929693","1","","","","","",""
"","do_trial","390","2098255","0.0-357.0-0.0","null","","","","null","1,0,1","6","blank","300","null","0.9362665706649699","0.12797748038591109","0.49400706731706934","","","","","","",""
"","do_trial","391","2102476","0.0-358.0-0.0","682.1999999880791","","","","50","1,0,0","6","blank","301","null","0.6126870975076094","0.18870374805808435","0.5575507589402028","0","","","","","",""
"","do_recog","392","2105344","0.0-359.0-0.0","1357.7000000178814","","","","56","","","","302","probe-64","","","","","1","[object Object]","120","3","1",""
"","do_trial","393","2109454","0.0-360.0-0.0","568","","","","49","1,0,0","6","blank","303","null","0.3337058677965902","0.2246055584382121","0.6141458916929142","1","","","","","",""
"","do_recog","394","2112232","0.0-361.0-0.0","1269","","","","56","","","","304","probe-18","","","","","1","[object Object]","129","3","1",""
"","do_trial","395","2116460","0.0-362.0-0.0","687.7999999821186","","","","49","0,0,1","6","blank","305","null","0.1976673062957516","0.21911319021663403","0.7865526502197565","0","","","","","",""
"","do_recog","396","2118945","0.0-363.0-0.0","975.1000000238419","","","","56","","","","306","probe-06","","","","","1","[object Object]","164","4","1",""
"","do_trial","397","2123236","0.0-364.0-0.0","751.2999999821186","","","","49","0,0,1","6","blank","307","null","0.12249828334405269","0.13618620130111253","0.722110354183653","0","","","","","",""
"","do_recog","398","2125935","0.0-365.0-0.0","1192.800000011921","","","","56","","","","308","probe-152","","","","","1","[object Object]","127","3","1",""
"","do_trial","399","2129965","0.0-366.0-0.0","490.5","","","","49","0,0,1","6","blank","309","null","0.25012768959053655","0.13430909307148547","0.7395146074495552","0","","","","","",""
"","do_recog","400","2132711","0.0-367.0-0.0","1238.1000000238419","","","","56","","","","310","probe-151","","","","","1","[object Object]","208","5","1",""
"","do_trial","401","2136721","0.0-368.0-0.0","465.7000000178814","","","","50","0,0,1","6","blank","311","null","0.14170043311630037","0.2021398516872431","0.9039407797101777","0","","","","","",""
"","do_trial","402","2140738","0.0-369.0-0.0","474.19999998807907","","","","50","0,1,1","6","blank","312","null","0.12564662539754035","0.2694803104894163","0.9239513861917855","1","","","","","",""
"","do_trial","403","2144685","0.0-370.0-0.0","406.90000000596046","","","","50","0,0,1","6","blank","313","null","0.10713340923890159","0.295487893157146","0.8462284117501353","0","","","","","",""
"","do_recog","404","2148112","0.0-371.0-0.0","1918","","","","54","","","","314","probe-52","","","","","1","[object Object]","88","2","0",""
"","do_trial","405","2152233","0.0-372.0-0.0","579","","","","50","0,0,0","6","blank","315","null","0.09814694033143566","0.29818349977608843","0.7512856728202536","0","","","","","",""
"","do_trial","406","2156263","0.0-373.0-0.0","488.19999998807907","","","","50","0,0,1","6","blank","316","null","0.09031045733604512","0.515139402694058","0.6954256119158516","0","","","","","",""
"","do_recog","407","2159592","0.0-374.0-0.0","1820.800000011921","","","","54","","","","317","probe-55","","","","","1","[object Object]","47","1","0",""
"","do_trial","408","2163562","0.0-375.0-0.0","426.80000001192093","","","","51","0,0,1","6","blank","318","null","0.08593965132548219","0.453163639413623","0.7417741344328559","1","","","","","",""
"","do_trial","409","2167519","0.0-376.0-0.0","416","","","","51","0,1,1","6","blank","319","null","0.11253180196877399","0.5631070283245767","0.7516640296052631","1","","","","","",""
"","do_trial","410","2171470","0.0-377.0-0.0","410.7999999821186","","","","51","0,0,1","6","blank","320","null","0.05055264741428147","0.5166061662478595","0.9109299836590178","1","","","","","",""
"","do_recog","411","2174402","0.0-378.0-0.0","1422.5","","","","55","","","","321","probe-53","","","","","1","[object Object]","209","5","1",""
"","do_trial","412","2178390","0.0-379.0-0.0","446.80000001192093","","","","51","0,0,1","6","blank","322","null","0.13045432273378732","0.43479123223892546","0.8403309403732263","1","","","","","",""
"","do_recog","413","2181031","0.0-380.0-0.0","1134.2999999821186","","","","56","","","","323","probe-76","","","","","1","[object Object]","82","2","1",""
"","do_trial","414","2185025","0.0-381.0-0.0","450.59999999403954","","","","51","0,1,1","6","blank","324","null","0.08214314421610416","0.4551794188987532","0.8416353601103598","1","","","","","",""
"","do_recog","415","2187846","0.0-382.0-0.0","1316.0999999940395","","","","56","","","","325","probe-119","","","","","1","[object Object]","169","4","1",""
"","do_trial","416","2191991","0.0-383.0-0.0","603.1999999880791","","","","51","0,0,1","6","blank","326","null","0.15071953825834392","0.39368817137110823","0.7759849813949222","1","","","","","",""
"","do_trial","417","2195904","0.0-384.0-0.0","371.09999999403954","","","","51","0,0,1","6","blank","327","null","0.09241368757187388","0.5087332274207254","0.7603764505345276","1","","","","","",""
"","do_recog","418","2198578","0.0-385.0-0.0","1165.0999999940395","","","","56","","","","328","probe-23","","","","","1","[object Object]","203","5","1",""
"","do_trial","419","2202609","0.0-386.0-0.0","489.2000000178814","","","","51","0,1,0","6","blank","329","null","0.11147848554885037","0.5189747155476406","0.7886820533076006","0","","","","","",""
"","do_trial","420","2206632","0.0-387.0-0.0","481.90000000596046","","","","51","0,0,1","6","blank","330","null","0.1709557091519941","0.4138321262544025","1","1","","","","","",""
"","do_trial","421","2210585","0.0-388.0-0.0","412.30000001192093","","","","51","1,0,1","6","blank","331","null","0.14109525091098607","0.3429606832591832","0.8458102440785699","1","","","","","",""
"","do_trial","422","2214801","0.0-389.0-0.0","673.3999999761581","","","","51","0,0,1","6","blank","332","null","0.06278776191794115","0.3830017405891896","0.8256305675606662","1","","","","","",""
"","do_recog","423","2217683","0.0-390.0-0.0","1371.9000000059605","","","","56","","","","333","probe-203","","","","","1","[object Object]","168","4","1",""
"","do_trial","424","2221859","0.0-391.0-0.0","634","","","","51","0,0,1","6","blank","334","null","0.08918883983042615","0.25813359311282696","0.8982889604035689","1","","","","","",""
"","do_recog","425","2225067","0.0-392.0-0.0","1698.2999999821186","","","","54","","","","335","probe-249","","","","","0","[object Object]","null","null","1",""
"","do_trial","426","2229220","0.0-393.0-0.0","608.9000000059605","","","","51","0,1,1","6","blank","336","null","0.06079719391067792","0.4032054831565719","0.8031817979024437","1","","","","","",""
"","do_recog","427","2232163","0.0-394.0-0.0","1434.9000000059605","","","","55","","","","337","probe-125","","","","","1","[object Object]","207","5","1",""
"","do_trial","428","2236282","0.0-395.0-0.0","576.5","","","","51","0,0,1","6","blank","338","null","0.14374218840552017","0.38741333221207136","0.8676508517825126","1","","","","","",""
"","do_recog","429","2238932","0.0-396.0-0.0","1139.4000000059605","","","","56","","","","339","probe-73","","","","","1","[object Object]","206","5","1",""
"","do_trial","430","2243100","0.0-397.0-0.0","623.5","","","","51","0,0,1","6","blank","340","null","0.06629387271898365","0.46489948675406234","0.6431954610195905","1","","","","","",""
"","do_recog","431","2245956","0.0-398.0-0.0","1346.9000000059605","","","","53","","","","341","probe-241","","","","","0","[object Object]","null","null","1",""
"","do_trial","432","2249961","0.0-399.0-0.0","464.19999998807907","","","","51","0,0,0","6","blank","342","null","0.2950326368685772","0.31946423817495845","0.6615773047189611","0","","","","","",""
"","do_recog","433","2252552","0.0-400.0-0.0","1084.9000000059605","","","","56","","","","343","probe-65","","","","","1","[object Object]","48","1","1",""
"","do_trial","434","2256649","0.0-401.0-0.0","557","","","","51","0,1,1","6","blank","344","null","0.24136486912962687","0.3461649695911341","0.7363867009863659","1","","","","","",""
"","do_recog","435","2259186","0.0-402.0-0.0","1030.2999999821186","","","","56","","","","345","probe-204","","","","","1","[object Object]","166","4","1",""
"","do_trial","436","2263362","0.0-403.0-0.0","633.0999999940395","","","","51","0,0,1","6","blank","346","null","0.05806869078840974","0.46226610193280665","0.8331839560243145","1","","","","","",""
"","do_recog","437","2266826","0.0-404.0-0.0","1957.199999988079","","","","54","","","","347","probe-158","","","","","1","[object Object]","123","3","0",""
"","do_trial","438","2270930","0.0-405.0-0.0","562.9000000059605","","","","51","0,1,1","6","blank","348","null","0.21270095087964438","0.6199222713618153","0.559888633973585","1","","","","","",""
"","do_recog","439","2273717","0.0-406.0-0.0","1277.7000000178814","","","","56","","","","349","probe-97","","","","","1","[object Object]","85","2","1",""
"","do_trial","440","2277876","0.0-407.0-0.0","616.6000000238419","","","","51","0,0,1","6","blank","350","null","0.15045308525966386","0.5974903063712954","0.3847523284872783","1","","","","","",""
"","do_recog","441","2280300","0.0-408.0-0.0","914.7999999821186","","","","56","","","","351","probe-143","","","","","1","[object Object]","161","4","1",""
"","do_trial","442","2284753","0.0-409.0-0.0","913.7999999821186","","","","51","1,1,0","6","blank","352","null","0.2818308461990215","0.6000028716097685","0.41768638938960645","0","","","","","",""
"","do_recog","443","2287910","0.0-410.0-0.0","1646.4000000059605","","","","53","","","","353","probe-19","","","","","1","[object Object]","42","1","0",""
"","do_trial","444","2292125","0.0-411.0-0.0","671.1999999880791","","","","51","1,0,1","6","blank","354","null","0.38515498122616654","0.6397133907660758","0.17947899157767894","1","","","","","",""
"","do_recog","445","2294737","0.0-412.0-0.0","1106.1000000238419","","","","56","","","","355","probe-135","","","","","1","[object Object]","165","4","1",""
"","do_trial","446","2298701","0.0-413.0-0.0","420.59999999403954","","","","51","1,0,0","6","blank","356","null","0.30820656216759523","0.7485435197149801","0.1824227704552041","0","","","","","",""
"","do_trial","447","2302735","0.0-414.0-0.0","489.30000001192093","","","","49","0,1,0","6","blank","357","null","0.3742892110396218","0.9377226779966503","0.08593492326971504","0","","","","","",""
"","do_recog","448","2305465","0.0-415.0-0.0","1225.0999999940395","","","","56","","","","358","probe-161","","","","","1","[object Object]","41","1","1",""
"","do_trial","449","2309499","0.0-416.0-0.0","493.5","","","","49","0,1,0","6","blank","359","null","0.30949288739124664","0.8735700429905581","0.13258985770838996","0","","","","","",""
"","do_trial","450","2313574","0.0-417.0-0.0","532.3000000119209","","","","50","1,1,0","6","blank","360","null","0.4177306321187679","0.8934702789201685","0.10120662731629745","1","","","","","",""
"","do_trial","451","2317574","0.0-418.0-0.0","456.59999999403954","","","","50","1,1,1","6","blank","361","null","0.5624876112825186","0.900906459049394","0.1149643718915166","1","","","","","",""
"","do_trial","452","2321574","0.0-419.0-0.0","456.59999999403954","","","","50","1,1,0","6","blank","362","null","0.3533442377880935","0.8681524971766009","0.16977128652049678","1","","","","","",""
"","do_recog","453","2324692","0.0-420.0-0.0","1610.2999999821186","","","","53","","","","363","probe-258","","","","","0","[object Object]","null","null","1",""
"","do_trial","454","2328738","0.0-421.0-0.0","507.09999999403954","","","","50","0,1,0","6","blank","364","null","0.22398957932265742","0.8575462635949408","0.12546325767890695","1","","","","","",""
"","do_recog","455","2331326","0.0-422.0-0.0","1078.5","","","","56","","","","365","probe-128","","","","","1","[object Object]","128","3","1",""
"","do_trial","456","2335587","0.0-423.0-0.0","721.4000000059605","","","","50","0,0,0","6","blank","366","null","0.24608803221584272","0.7312271044878","0.08279542781635776","0","","","","","",""
"","do_trial","457","2339605","0.0-424.0-0.0","475.40000000596046","","","","50","1,1,0","6","blank","367","null","0.31792546116909365","0.7430242482641564","0.06669151217606524","1","","","","","",""
"","do_recog","458","2342485","0.0-425.0-0.0","1372.2999999821186","","","","56","","","","368","probe-101","","","","","1","[object Object]","167","4","1",""
"","do_trial","459","2346455","0.0-426.0-0.0","426.2999999821186","","","","50","0,0,0","6","blank","369","null","0.3472375253940171","0.781627191800268","0.07377177702264497","0","","","","","",""
"","do_recog","460","2349062","0.0-427.0-0.0","1099","","","","56","","","","370","probe-206","","","","","1","[object Object]","205","5","1",""
"","do_trial","461","2353052","0.0-428.0-0.0","450.39999997615814","","","","50","0,1,0","6","blank","371","null","0.4699792965400472","0.7820634164697587","0.0847345457052558","1","","","","","",""
"","do_recog","462","2356104","0.0-429.0-0.0","1541.0999999940395","","","","54","","","","372","probe-177","","","","","1","[object Object]","45","1","0",""
"","do_trial","463","2360167","0.0-430.0-0.0","519.6999999880791","","","","50","1,1,0","6","blank","373","null","0.46296883128621735","0.8947214314774539","0.06509173787809928","1","","","","","",""
"","do_trial","464","2364184","0.0-431.0-0.0","473.80000001192093","","","","50","1,1,0","6","blank","374","null","0.5172439018714944","0.8923652710148747","0.08832417249850348","1","","","","","",""
"","do_trial","465","2368285","0.0-432.0-0.0","560.0999999940395","","","","50","0,1,0","6","blank","375","null","0.3472736601648975","0.8589253603375032","0.13472584561850062","1","","","","","",""
"","do_trial","466","2372207","0.0-433.0-0.0","379.19999998807907","","","","50","0,0,0","6","blank","376","null","0.4397100293926252","0.8268107227568067","0.19910537724079627","0","","","","","",""
"","do_trial","467","2376239","0.0-434.0-0.0","490.09999999403954","","","","50","1,1,0","6","blank","377","null","0.3972644840576596","0.780276232221562","0.1937755895617006","1","","","","","",""
"","do_trial","468","2380212","0.0-435.0-0.0","433","","","","50","1,1,0","6","blank","378","null","0.569324186491564","1","0.23684327267882388","1","","","","","",""
"","do_recog","469","2382831","0.0-436.0-0.0","1110.0999999940395","","","","56","","","","379","probe-28","","","","","1","[object Object]","126","3","1",""
"","do_trial","470","2387045","0.0-437.0-0.0","675.1000000238419","","","","50","0,1,0","6","blank","380","null","0.531720483498247","0.9460007243691239","0.23627257289603065","1","","","","","",""
"","do_trial","471","2391015","0.0-438.0-0.0","427.40000000596046","","","","50","0,1,1","6","blank","381","null","0.522913564138877","0.8272921577551183","0.2151296143860983","1","","","","","",""
