"success","trial_type","trial_index","time_elapsed","internal_node_id","interactions","blur_events","focus_events","fullscreenenter_events","fullscreenexit_events"
"true","fullscreen","0","3029","0.0-0.0","""event"",""trial"",""time""
""fullscreenenter"",""0"",""2074""
","
","
","""event"",""trial"",""time""
""fullscreenenter"",""0"",""2074""
","
"
"","pavlovia","1","3035","0.0-1.0","""event"",""trial"",""time""
""fullscreenenter"",""0"",""2074""
""fullscreenexit"",""2"",""51403""
""blur"",""2"",""54895""
""focus"",""2"",""55939""
""focus"",""2"",""55940""
""blur"",""2"",""59913""
""focus"",""2"",""59961""
","""event"",""trial"",""time""
""blur"",""2"",""54895""
""blur"",""2"",""59913""
","""event"",""trial"",""time""
""focus"",""2"",""55939""
""focus"",""2"",""55940""
""focus"",""2"",""59961""
","""event"",""trial"",""time""
""fullscreenenter"",""0"",""2074""
","""event"",""trial"",""time""
""fullscreenexit"",""2"",""51403""
"
