"success","trial_type","trial_index","time_elapsed","internal_node_id","interactions","blur_events","focus_events","fullscreenenter_events","fullscreenexit_events","rt","stimulus","key_press","subject_id","participant_id","age","gender","prompt","response","choice_outcomes","context_n","context_img_id","trial_n","probe_img_id","pR_red","pR_white","pR_black","outcome","contextArray_ind","validImageProbes","invalidImageProbes","pRew_Red","pRew_White","pRew_Black","availableForMemProbe","choice_blocks"
"true","fullscreen","0","3027","0.0-0.0","""event"",""trial"",""time""
""fullscreenenter"",""0"",""2033""
","
","
","""event"",""trial"",""time""
""fullscreenenter"",""0"",""2033""
","
","","","","","","","","","","","","","","","","","","","","","","","","","",""
"","pavlovia","1","3029","0.0-1.0","""event"",""trial"",""time""
""fullscreenenter"",""0"",""2033""
","
","
","""event"",""trial"",""time""
""fullscreenenter"",""0"",""2033""
","
","","","","","","","","","","","","","","","","","","","","","","","","","",""
"","instruc1","2","48131","0.0-2.0","""event"",""trial"",""time""
""fullscreenenter"",""0"",""2033""
","
","
","""event"",""trial"",""time""
""fullscreenenter"",""0"",""2033""
","
","null","run_exp/static/audio/clip_1_welcome.m4a","null","329","220","19","Female","<div class='center'><p>Welcome! This is the first part of the study. It will last ~30 minutes. In part 1 and part 2 of the study, you are the head captain of a pirate ship traveling around the world to different islands. You will play a few different games throughout these two parts. Here is an overview of them:</p><br><p>Part 1 (today)</p><p>1. Instructions, practice game, and quiz</p><p>2. Pick a pirate game on 6 different islands</p><br><p>Part 2 (tomorrow)</p><p>3. Pick a pirate game and memory game</p><p>4. Where did you see this ship? </p></div>","","","","","","","","","","","","","","","","","",""
"","html-keyboard-response","3","50207","0.0-3.0","""event"",""trial"",""time""
""fullscreenenter"",""0"",""2033""
","
","
","""event"",""trial"",""time""
""fullscreenenter"",""0"",""2033""
","
","2072.6999999999534","<div class='center'><p>Welcome! This is the first part of the study. It will last ~30 minutes. In part 1 and part 2 of the study, you are the head captain of a pirate ship traveling around the world to different islands. You will play a few different games throughout these two parts. Here is an overview of them:</p><br><p>Part 1 (today)</p><p>1. Instructions, practice game, and quiz</p><p>2. Pick a pirate game on 6 different islands</p><br><p>Part 2 (tomorrow)</p><p>3. Pick a pirate game and memory game</p><p>4. Where did you see this ship? </p><p><b>[Press the space bar to continue]</b></p></div>","32","","","","","","","","","","","","","","","","","","","","","","",""
"","instruc2","4","55528","0.0-4.0","""event"",""trial"",""time""
""fullscreenenter"",""0"",""2033""
","
","
","""event"",""trial"",""time""
""fullscreenenter"",""0"",""2033""
","
","null","run_exp/static/audio/clip_2_different_places.m4a","null","","","","","<div class='center'><p>Today, you’ll visit these 6 islands on your journey. You'll be able to see these islands from your ship.</p><p><img src='run_exp/static/images/contexts/all_contexts.png' height='500'></p></div>","","","","","","","","","","","","","","","","","",""
"","html-keyboard-response","5","67336","0.0-5.0","""event"",""trial"",""time""
""fullscreenenter"",""0"",""2033""
","
","
","""event"",""trial"",""time""
""fullscreenenter"",""0"",""2033""
","
","11805.099999999977","<div class='center'><p>Today, you’ll visit these 6 islands on your journey. You'll be able to see these islands from your ship.</p><p><img src='run_exp/static/images/contexts/all_contexts.png' height='500'></p><p><b>[Press the space bar to continue]</b></p></div>","32","","","","","","","","","","","","","","","","","","","","","","",""
"","instruc3","6","76995","0.0-6.0","""event"",""trial"",""time""
""fullscreenenter"",""0"",""2033""
","
","
","""event"",""trial"",""time""
""fullscreenenter"",""0"",""2033""
","
","null","run_exp/static/audio/clip_3_goal_of_game_1.m4a","null","","","","","<div class='center'><p> The pirates on your ship will rob other ships as they leave the island.</p> These ships have just sold their goods to the islanders, so they will be filled with lots and lots of gold.</p><p><img src='run_exp/static/images/tutorial/ship_center.png' height='400'></p></div>","","","","","","","","","","","","","","","","","",""
"","html-keyboard-response","7","85479","0.0-7.0","""event"",""trial"",""time""
""fullscreenenter"",""0"",""2033""
","
","
","""event"",""trial"",""time""
""fullscreenenter"",""0"",""2033""
","
","8482.700000000012","<div class='center'><p> The pirates on your ship will rob other ships as they leave the island.</p> These ships have just sold their goods to the islanders, so they will be filled with lots and lots of gold.</p><p><img src='run_exp/static/images/tutorial/ship_center.png' height='400'></p><p><b>[Press the space bar to continue]</b></p></div>","32","","","","","","","","","","","","","","","","","","","","","","",""
"","instruc4","8","113476","0.0-8.0","""event"",""trial"",""time""
""fullscreenenter"",""0"",""2033""
","
","
","""event"",""trial"",""time""
""fullscreenenter"",""0"",""2033""
","
","null","run_exp/static/audio/clip_4_goal_of_game_2.m4a","null","","","","","<div class='center'><p>As the head captain, you do not have to rob any ships yourself. Another pirate will be doing the robbing for you. First, you will choose a pirate to rob the next ship.</p><p><img src='run_exp/static/images/tutorial/pirates_all_crop.png' height='200'></p><p>Then, you'll see if the pirate successfully robbed the ship of their gold. If they were successful, then you'll get a stack of gold coins like this:</p><p><img src='run_exp/static/images/tutorial/reward.png' height='150'></p><p> If they were <b>not</b> successful, then you'll get no gold coins, and you'll see a big red x like this: </p><p><img src='run_exp/static/images/tutorial/reward_no.png' height='150'></p><p> How much bonus money you make is based on how many gold coins you collect.</p><div>","","","","","","","","","","","","","","","","","",""
"","html-keyboard-response","9","116866","0.0-9.0","""event"",""trial"",""time""
""fullscreenenter"",""0"",""2033""
","
","
","""event"",""trial"",""time""
""fullscreenenter"",""0"",""2033""
","
","3388.79999999993","<div class='center'><p>As the head captain, you do not have to rob any ships yourself. Another pirate will be doing the robbing for you. First, you will choose a pirate to rob the next ship.</p><p><img src='run_exp/static/images/tutorial/pirates_all_crop.png' height='200'></p><p>Then, you'll see if the pirate successfully robbed the ship of their gold. If they were successful, then you'll get a stack of gold coins like this:</p><p><img src='run_exp/static/images/tutorial/reward.png' height='150'></p><p> If they were <b>not</b> successful, then you'll get no gold coins, and you'll see a big red x like this: </p><p><img src='run_exp/static/images/tutorial/reward_no.png' height='150'></p><p> How much bonus money you make is based on how many gold coins you collect.</p<p><b>[Press the space bar to continue]</b></p></div>","32","","","","","","","","","","","","","","","","","","","","","","",""
"","instruc5","10","139370","0.0-10.0","""event"",""trial"",""time""
""fullscreenenter"",""0"",""2033""
","
","
","""event"",""trial"",""time""
""fullscreenenter"",""0"",""2033""
","
","22503.199999999953","run_exp/static/audio/clip_5_probabilistic.m4a","49","","","","","<div class='center'><p>Even the most skilled pirate can not rob EVERY ship.</p><p> Some ships will have very strong protections against pirate attacks.</p><p> Blue beard, here, is very, very good at robbing ships, but he won't be successful every time he tries to rob one.</p><p> You can press the <b>‘1’</b> key on the keyboard to choose him.</p><p> Try choosing him 10 times to see how often he succeeds at robbing a ship. </p><p><img src='run_exp/static/images/tutorial/blue.png' height='500'></p></div>","","","","","","","","","","","","","","","","","",""
"","html-keyboard-response","11","140879","0.0-11.0","""event"",""trial"",""time""
""fullscreenenter"",""0"",""2033""
","
","
","""event"",""trial"",""time""
""fullscreenenter"",""0"",""2033""
","
","null","<div class='center'><p><img src='run_exp/static/images/tutorial/blue_win.png' height='500'></p></div>","null","","","","","","","","","","","","","","","","","","","","","","",""
"","html-keyboard-response","12","143588","0.0-12.0","""event"",""trial"",""time""
""fullscreenenter"",""0"",""2033""
","
","
","""event"",""trial"",""time""
""fullscreenenter"",""0"",""2033""
","
","2708.3000000000466","<div class='center'><img src='run_exp/static/images/tutorial/blue.png' height='500'></p></div>","49","","","","","","","","","","","","","","","","","","","","","","",""
"","html-keyboard-response","13","145103","0.0-13.0","""event"",""trial"",""time""
""fullscreenenter"",""0"",""2033""
","
","
","""event"",""trial"",""time""
""fullscreenenter"",""0"",""2033""
","
","null","<div class='center'><p><img src='run_exp/static/images/tutorial/blue_win.png' height='500'></p></div>","null","","","","","","","","","","","","","","","","","","","","","","",""
"","html-keyboard-response","14","145935","0.0-14.0","""event"",""trial"",""time""
""fullscreenenter"",""0"",""2033""
","
","
","""event"",""trial"",""time""
""fullscreenenter"",""0"",""2033""
","
","831.2000000000698","<div class='center'><img src='run_exp/static/images/tutorial/blue.png' height='500'></p></div>","49","","","","","","","","","","","","","","","","","","","","","","",""
"","html-keyboard-response","15","147437","0.0-15.0","""event"",""trial"",""time""
""fullscreenenter"",""0"",""2033""
","
","
","""event"",""trial"",""time""
""fullscreenenter"",""0"",""2033""
","
","null","<div class='center'><p><img src='run_exp/static/images/tutorial/blue_win.png' height='500'></p></div>","null","","","","","","","","","","","","","","","","","","","","","","",""
"","html-keyboard-response","16","148132","0.0-16.0","""event"",""trial"",""time""
""fullscreenenter"",""0"",""2033""
","
","
","""event"",""trial"",""time""
""fullscreenenter"",""0"",""2033""
","
","694.0999999999767","<div class='center'><img src='run_exp/static/images/tutorial/blue.png' height='500'></p></div>","49","","","","","","","","","","","","","","","","","","","","","","",""
"","html-keyboard-response","17","149643","0.0-17.0","""event"",""trial"",""time""
""fullscreenenter"",""0"",""2033""
","
","
","""event"",""trial"",""time""
""fullscreenenter"",""0"",""2033""
","
","null","<div class='center'><p><img src='run_exp/static/images/tutorial/blue_no_win.png' height='500'></p></div>","null","","","","","","","","","","","","","","","","","","","","","","",""
"","html-keyboard-response","18","150072","0.0-18.0","""event"",""trial"",""time""
""fullscreenenter"",""0"",""2033""
","
","
","""event"",""trial"",""time""
""fullscreenenter"",""0"",""2033""
","
","427.69999999995343","<div class='center'><img src='run_exp/static/images/tutorial/blue.png' height='500'></p></div>","49","","","","","","","","","","","","","","","","","","","","","","",""
"","html-keyboard-response","19","151583","0.0-19.0","""event"",""trial"",""time""
""fullscreenenter"",""0"",""2033""
","
","
","""event"",""trial"",""time""
""fullscreenenter"",""0"",""2033""
","
","null","<div class='center'><p><img src='run_exp/static/images/tutorial/blue_win.png' height='500'></p></div>","null","","","","","","","","","","","","","","","","","","","","","","",""
"","html-keyboard-response","20","152182","0.0-20.0","""event"",""trial"",""time""
""fullscreenenter"",""0"",""2033""
","
","
","""event"",""trial"",""time""
""fullscreenenter"",""0"",""2033""
","
","597.6999999999534","<div class='center'><img src='run_exp/static/images/tutorial/blue.png' height='500'></p></div>","49","","","","","","","","","","","","","","","","","","","","","","",""
"","html-keyboard-response","21","153691","0.0-21.0","""event"",""trial"",""time""
""fullscreenenter"",""0"",""2033""
","
","
","""event"",""trial"",""time""
""fullscreenenter"",""0"",""2033""
","
","null","<div class='center'><p><img src='run_exp/static/images/tutorial/blue_win.png' height='500'></p></div>","null","","","","","","","","","","","","","","","","","","","","","","",""
"","html-keyboard-response","22","154088","0.0-22.0","""event"",""trial"",""time""
""fullscreenenter"",""0"",""2033""
","
","
","""event"",""trial"",""time""
""fullscreenenter"",""0"",""2033""
","
","395.5999999999767","<div class='center'><img src='run_exp/static/images/tutorial/blue.png' height='500'></p></div>","49","","","","","","","","","","","","","","","","","","","","","","",""
"","html-keyboard-response","23","155599","0.0-23.0","""event"",""trial"",""time""
""fullscreenenter"",""0"",""2033""
","
","
","""event"",""trial"",""time""
""fullscreenenter"",""0"",""2033""
","
","null","<div class='center'><p><img src='run_exp/static/images/tutorial/blue_win.png' height='500'></p></div>","null","","","","","","","","","","","","","","","","","","","","","","",""
"","html-keyboard-response","24","156046","0.0-24.0","""event"",""trial"",""time""
""fullscreenenter"",""0"",""2033""
","
","
","""event"",""trial"",""time""
""fullscreenenter"",""0"",""2033""
","
","445.20000000006985","<div class='center'><img src='run_exp/static/images/tutorial/blue.png' height='500'></p></div>","49","","","","","","","","","","","","","","","","","","","","","","",""
"","html-keyboard-response","25","157558","0.0-25.0","""event"",""trial"",""time""
""fullscreenenter"",""0"",""2033""
","
","
","""event"",""trial"",""time""
""fullscreenenter"",""0"",""2033""
","
","null","<div class='center'><p><img src='run_exp/static/images/tutorial/blue_no_win.png' height='500'></p></div>","null","","","","","","","","","","","","","","","","","","","","","","",""
"","html-keyboard-response","26","157943","0.0-26.0","""event"",""trial"",""time""
""fullscreenenter"",""0"",""2033""
","
","
","""event"",""trial"",""time""
""fullscreenenter"",""0"",""2033""
","
","383.30000000004657","<div class='center'><img src='run_exp/static/images/tutorial/blue.png' height='500'></p></div>","49","","","","","","","","","","","","","","","","","","","","","","",""
"","html-keyboard-response","27","159452","0.0-27.0","""event"",""trial"",""time""
""fullscreenenter"",""0"",""2033""
","
","
","""event"",""trial"",""time""
""fullscreenenter"",""0"",""2033""
","
","null","<div class='center'><p><img src='run_exp/static/images/tutorial/blue_win.png' height='500'></p></div>","null","","","","","","","","","","","","","","","","","","","","","","",""
"","html-keyboard-response","28","159660","0.0-28.0","""event"",""trial"",""time""
""fullscreenenter"",""0"",""2033""
","
","
","""event"",""trial"",""time""
""fullscreenenter"",""0"",""2033""
","
","206.5","<div class='center'><img src='run_exp/static/images/tutorial/blue.png' height='500'></p></div>","49","","","","","","","","","","","","","","","","","","","","","","",""
"","html-keyboard-response","29","161172","0.0-29.0","""event"",""trial"",""time""
""fullscreenenter"",""0"",""2033""
","
","
","""event"",""trial"",""time""
""fullscreenenter"",""0"",""2033""
","
","null","<div class='center'><p><img src='run_exp/static/images/tutorial/blue_win.png' height='500'></p></div>","null","","","","","","","","","","","","","","","","","","","","","","",""
"","instruc6","30","166887","0.0-30.0","""event"",""trial"",""time""
""fullscreenenter"",""0"",""2033""
","
","
","""event"",""trial"",""time""
""fullscreenenter"",""0"",""2033""
","
","null","run_exp/static/audio/clip_6_blue_beard_outcome.m4a","null","","","","","<div class='center'><p> See, he succeeded in robbing the ships most of the time but not every time. </p></div>","","","","","","","","","","","","","","","","","",""
"","html-keyboard-response","31","168315","0.0-31.0","""event"",""trial"",""time""
""fullscreenenter"",""0"",""2033""
","
","
","""event"",""trial"",""time""
""fullscreenenter"",""0"",""2033""
","
","1427.3000000000466","<div class='center'><p> See, he succeeded in robbing the ships most of the time but not every time. </p><p><b>[Press the space bar to continue]</b></p></div>","32","","","","","","","","","","","","","","","","","","","","","","",""
"","audio-keyboard-response","32","185377","0.0-32.0","""event"",""trial"",""time""
""fullscreenenter"",""0"",""2033""
","
","
","""event"",""trial"",""time""
""fullscreenenter"",""0"",""2033""
","
","17062.20000000007","run_exp/static/audio/clip_7_pick_pirate.m4a","49","","","","","","","","","","","","","","","","","","","","","","",""
"","audio-keyboard-response","33","190192","0.0-33.0-0.0","""event"",""trial"",""time""
""fullscreenenter"",""0"",""2033""
","
","
","""event"",""trial"",""time""
""fullscreenenter"",""0"",""2033""
","
","4814.29999999993","run_exp/static/audio/clip_8_chosen_pirate_win.m4a","32","","","","","","","","","","","","","","","","","","","","","","",""
"","audio-keyboard-response","34","192959","0.0-33.0-1.0","""event"",""trial"",""time""
""fullscreenenter"",""0"",""2033""
","
","
","""event"",""trial"",""time""
""fullscreenenter"",""0"",""2033""
","
","2764.5","run_exp/static/audio/clip_9_pick_a_pirate_again.m4a","50","","","","","","","","","","","","","","","","","","","","","","",""
"","audio-keyboard-response","35","197504","0.0-34.0-0.0","""event"",""trial"",""time""
""fullscreenenter"",""0"",""2033""
","
","
","""event"",""trial"",""time""
""fullscreenenter"",""0"",""2033""
","
","4541.899999999907","run_exp/static/audio/clip_10_chosen_pirate_loss.m4a","32","","","","","","","","","","","","","","","","","","","","","","",""
"","instruc9","36","202986","0.0-35.0-0.0","""event"",""trial"",""time""
""fullscreenenter"",""0"",""2033""
","
","
","""event"",""trial"",""time""
""fullscreenenter"",""0"",""2033""
","
","null","run_exp/static/audio/clip_11_time_out.m4a","null","","","","","<div class='center'><p>If you don’t make your choice fast enough, you’ll have to wait a few seconds before you can make another one. </p><p><img src='run_exp/static/images/miscellaneous/hurry_up.png' height='500'></p></div>","","","","","","","","","","","","","","","","","",""
"","html-keyboard-response","37","203977","0.0-35.0-1.0","""event"",""trial"",""time""
""fullscreenenter"",""0"",""2033""
","
","
","""event"",""trial"",""time""
""fullscreenenter"",""0"",""2033""
","
","988.8000000000466","<div class='center'><p>If you don’t make your choice fast enough, you’ll have to wait a few seconds before you can make another one. </p><p><img src='run_exp/static/images/miscellaneous/hurry_up.png' height='500'></p><p><b>[Press the space bar to continue]</b></p></div>","32","","","","","","","","","","","","","","","","","","","","","","",""
"","instruc10","38","243066","0.0-35.0-2.0","""event"",""trial"",""time""
""fullscreenenter"",""0"",""2033""
","
","
","""event"",""trial"",""time""
""fullscreenenter"",""0"",""2033""
","
","null","run_exp/static/audio/clip_12_probe.m4a","null","","","","","<div class='center'><p>Once you've chosen a pirate, you’ll be shown the ship they are robbing. You will never rob the same ship twice. Ships can be told apart from one another by the image on them. These are the goods that they sell. See, this ship has a travel mug on it. </p><p> You’ll have to remember which island you saw each ship on. You will win more gold coins and hence more bonus money if you remember correctly! To help you remember, you can imagine a story. For example, here, you could imagine a mug full of water in the desert. Or, as another example, if on the forest island, your pirate robbed a ship with an apple on it, you could imagine an apple falling from a tree in the forest. </p><p><img src='run_exp/static/images/tutorial/example_probe.png' height='500'></p></div>","","","","","","","","","","","","","","","","","",""
"","html-keyboard-response","39","244088","0.0-35.0-3.0","""event"",""trial"",""time""
""fullscreenenter"",""0"",""2033""
","
","
","""event"",""trial"",""time""
""fullscreenenter"",""0"",""2033""
","
","1019.9000000000233","<div class='center'><p>Once you've chosen a pirate, you’ll be shown the ship they are robbing. You will never rob the same ship twice. Ships can be told apart from one another by the image on them. These are the goods that they sell. See, this ship has a travel mug on it. </p><p> You’ll have to remember which island you saw each ship on. You will win more gold coins and hence more bonus money if you remember correctly! To help you remember, you can imagine a story. For example, here, you could imagine a mug full of water in the desert. Or, as another example, if on the forest island, your pirate robbed a ship with an apple on it, you could imagine an apple falling from a tree in the forest. </p><p><img src='run_exp/static/images/tutorial/example_probe.png' height='500'></p><p><b>[Press the space bar to continue]</b></p></div>","32","","","","","","","","","","","","","","","","","","","","","","",""
"","instruc11","40","260508","0.0-35.0-4.0","""event"",""trial"",""time""
""fullscreenenter"",""0"",""2033""
","
","
","""event"",""trial"",""time""
""fullscreenenter"",""0"",""2033""
","
","null","run_exp/static/audio/clip_13_changepoint.m4a","null","","","","","<div class='center'><p>How successful a pirate is at robbing ships will depend on the island you’re on.</p><p> A pirate may have visited this island many times before and gained a lot of practice robbing ships there.</p><p>So, they’re more likely to be successful than a pirate who has never visited the island before.</p></div>","","","","","","","","","","","","","","","","","",""
"","html-keyboard-response","41","261810","0.0-35.0-5.0","""event"",""trial"",""time""
""fullscreenenter"",""0"",""2033""
","
","
","""event"",""trial"",""time""
""fullscreenenter"",""0"",""2033""
","
","1300.8000000000466","<div class='center'><p>How successful a pirate is at robbing ships will depend on the island you’re on.</p><p> A pirate may have visited this island many times before and gained a lot of practice robbing ships there.</p><p>So, they’re more likely to be successful than a pirate who has never visited the island before.</p><p><b>[Press the space bar to continue]</b></p></div>","32","","","","","","","","","","","","","","","","","","","","","","",""
"","instruc12","42","302908","0.0-35.0-6.0","""event"",""trial"",""time""
""fullscreenenter"",""0"",""2033""
","
","
","""event"",""trial"",""time""
""fullscreenenter"",""0"",""2033""
","
","null","run_exp/static/audio/clip_14_drift.m4a","null","","","","","<div class='center'><p>How successful a pirate is at robbing ships can also change over the time spent on the island. </p><p> Ships may hear from islanders about the pirates coming and will improve their protections against the attack. This may make it harder to rob them.</p><p> Ships may also become lazy and weaken the strength of their protections. This may make it easier to rob them.</p><br><p>Things are always changing on the high seas! So, try your best to pay attention!</p><p><img src='run_exp/static/images/tutorial/contingency.png' height='500'></p></div>","","","","","","","","","","","","","","","","","",""
"","html-keyboard-response","43","310563","0.0-35.0-7.0","""event"",""trial"",""time""
""fullscreenenter"",""0"",""2033""
","
","
","""event"",""trial"",""time""
""fullscreenenter"",""0"",""2033""
","
","7653","<div class='center'><p>How successful a pirate is at robbing ships can also change over the time spent on the island. </p><p> Ships may hear from islanders about the pirates coming and will improve their protections against the attack. This may make it harder to rob them.</p><p> Ships may also become lazy and weaken the strength of their protections. This may make it easier to rob them.</p><br><p>Things are always changing on the high seas! So, try your best to pay attention!</p><p><img src='run_exp/static/images/tutorial/contingency.png' height='500'></p><p><b>[Press the space bar to continue]</b></p></div>","32","","","","","","","","","","","","","","","","","","","","","","",""
"","instruc13","44","345748","0.0-35.0-8.0","""event"",""trial"",""time""
""fullscreenenter"",""0"",""2033""
","
","
","""event"",""trial"",""time""
""fullscreenenter"",""0"",""2033""
","
","null","run_exp/static/audio/clip_15_summary.m4a","null","","","","","<div class='center'><p>Let's go over the instructions quickly again. You have two important things to do: </p><b><p> 1. Pick the pirate who is the best at robbing ships on the current island. </p></b><b><p> 2. Remember on which island a ship was robbed.</p> </b><p>The amount of bonus money you can win depends on both.</p><p><br><p>Let’s try a practice game. The game will start by showing you the pirates. First, pick a pirate using the <b> 1, 2, 3 </b> keys on your keyboard. When you are shown a ship, try to remember which island you’re on by making up a story.</p><p>This is just a practice game, so you’re not playing for money. </p><p> Good luck! This game will be very difficult but try your best!</p></div>","","","","","","","","","","","","","","","","","",""
"","html-keyboard-response","45","346456","0.0-35.0-9.0","""event"",""trial"",""time""
""fullscreenenter"",""0"",""2033""
","
","
","""event"",""trial"",""time""
""fullscreenenter"",""0"",""2033""
","
","706.8000000000466","<div class='center'><p>Let's go over the instructions quickly again. You have two important things to do: </p><b><p> 1. Pick the pirate who is the best at robbing ships on the current island. </p></b><b><p> 2. Remember on which island a ship was robbed.</p> </b><p>The amount of bonus money you can win depends on both.</p><p><br><p>Let’s try a practice game. The game will start by showing you the pirates. First, pick a pirate using the <b> 1, 2, 3 </b> keys on your keyboard. When you are shown a ship, try to remember which island you’re on by making up a story.</p><p>This is just a practice game, so you’re not playing for money. </p><p> Good luck! This game will be very difficult but try your best!</p><p><b>[Press the space bar to continue]</b></p></div>","32","","","","","","","","","","","","","","","","","","","","","","",""
"","do_welcome","46","350476","0.0-35.0-10.0","""event"",""trial"",""time""
""fullscreenenter"",""0"",""2033""
","
","
","""event"",""trial"",""time""
""fullscreenenter"",""0"",""2033""
","
","null","","","","","","","","null","","","","","","","","","","","","","","","","",""
"","do_trial","47","357636","0.0-35.0-11.0","""event"",""trial"",""time""
""fullscreenenter"",""0"",""2033""
","
","
","""event"",""trial"",""time""
""fullscreenenter"",""0"",""2033""
","
","2637.29999999993","","","","","","","","50","1,0,0","","","","","","","","","","","","","","","",""
"","html-keyboard-response","48","358648","0.0-36.0-0.0","""event"",""trial"",""time""
""fullscreenenter"",""0"",""2033""
","
","
","""event"",""trial"",""time""
""fullscreenenter"",""0"",""2033""
","
","null","<p></p>","null","","","","","","","","","","","","","","","","","","","","","","",""
"","do_trial","49","364416","0.0-36.0-1.0","""event"",""trial"",""time""
""fullscreenenter"",""0"",""2033""
","
","
","""event"",""trial"",""time""
""fullscreenenter"",""0"",""2033""
","
","1261.5","","","","","","","","49","1,1,0","","","","","","","","","","","","","","","",""
"","html-keyboard-response","50","365432","0.0-37.0-0.0","""event"",""trial"",""time""
""fullscreenenter"",""0"",""2033""
","
","
","""event"",""trial"",""time""
""fullscreenenter"",""0"",""2033""
","
","null","<p></p>","null","","","","","","","","","","","","","","","","","","","","","","",""
"","do_trial","51","372064","0.0-37.0-1.0","""event"",""trial"",""time""
""fullscreenenter"",""0"",""2033""
","
","
","""event"",""trial"",""time""
""fullscreenenter"",""0"",""2033""
","
","2123.399999999907","","","","","","","","51","1,0,1","","","","","","","","","","","","","","","",""
"","html-keyboard-response","52","373067","0.0-38.0-0.0","""event"",""trial"",""time""
""fullscreenenter"",""0"",""2033""
","
","
","""event"",""trial"",""time""
""fullscreenenter"",""0"",""2033""
","
","null","<p></p>","null","","","","","","","","","","","","","","","","","","","","","","",""
"","do_trial","53","378250","0.0-38.0-1.0","""event"",""trial"",""time""
""fullscreenenter"",""0"",""2033""
","
","
","""event"",""trial"",""time""
""fullscreenenter"",""0"",""2033""
","
","671","","","","","","","","49","0,1,0","","","","","","","","","","","","","","","",""
"","html-keyboard-response","54","379252","0.0-39.0-0.0","""event"",""trial"",""time""
""fullscreenenter"",""0"",""2033""
","
","
","""event"",""trial"",""time""
""fullscreenenter"",""0"",""2033""
","
","null","<p></p>","null","","","","","","","","","","","","","","","","","","","","","","",""
"","do_trial","55","384198","0.0-39.0-1.0","""event"",""trial"",""time""
""fullscreenenter"",""0"",""2033""
","
","
","""event"",""trial"",""time""
""fullscreenenter"",""0"",""2033""
","
","434.60000000009313","","","","","","","","51","1,0,0","","","","","","","","","","","","","","","",""
"","do_bye","56","385715","0.0-40.0-0.0","""event"",""trial"",""time""
""fullscreenenter"",""0"",""2033""
","
","
","""event"",""trial"",""time""
""fullscreenenter"",""0"",""2033""
","
","null","","","","","","","","null","","","","","","","","","","","","","","","","",""
"","do_travel","57","394728","0.0-40.0-1.0","""event"",""trial"",""time""
""fullscreenenter"",""0"",""2033""
","
","
","""event"",""trial"",""time""
""fullscreenenter"",""0"",""2033""
","
","null","","","","","","","","null","","","","","","","","","","","","","","","","",""
"","do_welcome","58","398747","0.0-40.0-2.0","""event"",""trial"",""time""
""fullscreenenter"",""0"",""2033""
","
","
","""event"",""trial"",""time""
""fullscreenenter"",""0"",""2033""
","
","null","","","","","","","","null","","","","","","","","","","","","","","","","",""
"","do_trial","59","405317","0.0-40.0-3.0","""event"",""trial"",""time""
""fullscreenenter"",""0"",""2033""
","
","
","""event"",""trial"",""time""
""fullscreenenter"",""0"",""2033""
","
","2045.8000000000466","","","","","","","","49","1,0,0","","","","","","","","","","","","","","","",""
"","html-keyboard-response","60","406339","0.0-41.0-0.0","""event"",""trial"",""time""
""fullscreenenter"",""0"",""2033""
","
","
","""event"",""trial"",""time""
""fullscreenenter"",""0"",""2033""
","
","null","<p></p>","null","","","","","","","","","","","","","","","","","","","","","","",""
"","do_trial","61","411305","0.0-41.0-1.0","""event"",""trial"",""time""
""fullscreenenter"",""0"",""2033""
","
","
","""event"",""trial"",""time""
""fullscreenenter"",""0"",""2033""
","
","459.4000000000233","","","","","","","","50","1,0,1","","","","","","","","","","","","","","","",""
"","html-keyboard-response","62","412308","0.0-42.0-0.0","""event"",""trial"",""time""
""fullscreenenter"",""0"",""2033""
","
","
","""event"",""trial"",""time""
""fullscreenenter"",""0"",""2033""
","
","null","<p></p>","null","","","","","","","","","","","","","","","","","","","","","","",""
"","do_trial","63","419442","0.0-42.0-1.0","""event"",""trial"",""time""
""fullscreenenter"",""0"",""2033""
","
","
","""event"",""trial"",""time""
""fullscreenenter"",""0"",""2033""
","
","2619.4000000000233","","","","","","","","51","1,1,0","","","","","","","","","","","","","","","",""
"","html-keyboard-response","64","420457","0.0-43.0-0.0","""event"",""trial"",""time""
""fullscreenenter"",""0"",""2033""
","
","
","""event"",""trial"",""time""
""fullscreenenter"",""0"",""2033""
","
","null","<p></p>","null","","","","","","","","","","","","","","","","","","","","","","",""
"","do_trial","65","425940","0.0-43.0-1.0","""event"",""trial"",""time""
""fullscreenenter"",""0"",""2033""
","
","
","""event"",""trial"",""time""
""fullscreenenter"",""0"",""2033""
","
","972.4000000000233","","","","","","","","49","0,0,1","","","","","","","","","","","","","","","",""
"","html-keyboard-response","66","426957","0.0-44.0-0.0","""event"",""trial"",""time""
""fullscreenenter"",""0"",""2033""
","
","
","""event"",""trial"",""time""
""fullscreenenter"",""0"",""2033""
","
","null","<p></p>","null","","","","","","","","","","","","","","","","","","","","","","",""
"","do_trial","67","432083","0.0-44.0-1.0","""event"",""trial"",""time""
""fullscreenenter"",""0"",""2033""
","
","
","""event"",""trial"",""time""
""fullscreenenter"",""0"",""2033""
","
","617.5","","","","","","","","50","1,0,1","","","","","","","","","","","","","","","",""
"","html-keyboard-response","68","439643","0.0-45.0-0.0","""event"",""trial"",""time""
""fullscreenenter"",""0"",""2033""
","
","
","""event"",""trial"",""time""
""fullscreenenter"",""0"",""2033""
","
","7556.800000000047","<div class='center'><p><img src='run_exp/static/images/tutorial/prac_best_pirate.png'  height='500'></p></div>","49","","","","","","","","","","","","","","","","","","","","","","",""
"","html-keyboard-response","69","441668","0.0-46.0-0.0","""event"",""trial"",""time""
""fullscreenenter"",""0"",""2033""
","
","
","""event"",""trial"",""time""
""fullscreenenter"",""0"",""2033""
","
","2022.5999999999767","<div class='center'><p>That's correct! Red beard was the best.</p><p><b>[Press the space bar to continue]</b></p></div>","32","","","","","","","","","","","","","","","","","","","","","","",""
"","html-keyboard-response","70","444984","0.0-46.0-1.0","""event"",""trial"",""time""
""fullscreenenter"",""0"",""2033""
","
","
","""event"",""trial"",""time""
""fullscreenenter"",""0"",""2033""
","
","3315","<div class='center'><p><img src='run_exp/static/images/tutorial/prac_source.png'  height='500'></p></div>","50","","","","","","","","","","","","","","","","","","","","","","",""
"","html-keyboard-response","71","446068","0.0-47.0-0.0","""event"",""trial"",""time""
""fullscreenenter"",""0"",""2033""
","
","
","""event"",""trial"",""time""
""fullscreenenter"",""0"",""2033""
","
","1083","<div class='center'><p>That's correct! You saw this ship on the cavern island.</p><p><b>[Press the space bar to continue]</b></p></div>","32","","","","","","","","","","","","","","","","","","","","","","",""
"","quiz_beginning","72","457590","0.0-47.0-1.0","""event"",""trial"",""time""
""fullscreenenter"",""0"",""2033""
","
","
","""event"",""trial"",""time""
""fullscreenenter"",""0"",""2033""
","
","null","run_exp/static/audio/clip_16_quiz_intro.m4a","null","","","","","<div class='center'><p>Good job on the practice game! Now, you will be asked some true or false questions to make sure you really understand the rules of the game.</p><p> Press <b>'1'</b> on the keyboard for true and press <b>'2'</b> for false.</p></div>","","","","","","","","","","","","","","","","","",""
"","audio-keyboard-response","73","461422","0.0-47.0-2.0","""event"",""trial"",""time""
""fullscreenenter"",""0"",""2033""
","
","
","""event"",""trial"",""time""
""fullscreenenter"",""0"",""2033""
","
","3830.5","run_exp/static/audio/clip_17_q1.m4a","49","","","","","","","","","","","","","","","","","","","","","","",""
"","correct","74","463810","0.0-48.0-0.0","""event"",""trial"",""time""
""fullscreenenter"",""0"",""2033""
","
","
","""event"",""trial"",""time""
""fullscreenenter"",""0"",""2033""
","
","null","run_exp/static/audio/clip_18_correct.m4a","null","","","","","<div class='center'><p>That's correct!</p></div>","","","","","","","","","","","","","","","","","",""
"","html-keyboard-response","75","464514","0.0-48.0-1.0","""event"",""trial"",""time""
""fullscreenenter"",""0"",""2033""
","
","
","""event"",""trial"",""time""
""fullscreenenter"",""0"",""2033""
","
","703.5","<div class='center'><p>That's correct!</p><p><b>[Press the space bar to continue]</b></p></div>","32","","","","","","","","","","","","","","","","","","","","","","",""
"","audio-keyboard-response","76","472168","0.0-48.0-2.0","""event"",""trial"",""time""
""fullscreenenter"",""0"",""2033""
","
","
","""event"",""trial"",""time""
""fullscreenenter"",""0"",""2033""
","
","7656.100000000093","run_exp/static/audio/clip_20_q2.m4a","50","","","","","","","","","","","","","","","","","","","","","","",""
"","correct","77","474547","0.0-49.0-0.0","""event"",""trial"",""time""
""fullscreenenter"",""0"",""2033""
","
","
","""event"",""trial"",""time""
""fullscreenenter"",""0"",""2033""
","
","null","run_exp/static/audio/clip_18_correct.m4a","null","","","","","<div class='center'><p>That's correct!</p></div>","","","","","","","","","","","","","","","","","",""
"","html-keyboard-response","78","475084","0.0-49.0-1.0","""event"",""trial"",""time""
""fullscreenenter"",""0"",""2033""
","
","
","""event"",""trial"",""time""
""fullscreenenter"",""0"",""2033""
","
","536","<div class='center'><p>That's correct!</p><p><b>[Press the space bar to continue]</b></p></div>","32","","","","","","","","","","","","","","","","","","","","","","",""
"","audio-keyboard-response","79","481180","0.0-49.0-2.0","""event"",""trial"",""time""
""fullscreenenter"",""0"",""2033""
","
","
","""event"",""trial"",""time""
""fullscreenenter"",""0"",""2033""
","
","6095.79999999993","run_exp/static/audio/clip_22_q3.m4a","50","","","","","","","","","","","","","","","","","","","","","","",""
"","correct","80","483547","0.0-50.0-0.0","""event"",""trial"",""time""
""fullscreenenter"",""0"",""2033""
","
","
","""event"",""trial"",""time""
""fullscreenenter"",""0"",""2033""
","
","null","run_exp/static/audio/clip_18_correct.m4a","null","","","","","<div class='center'><p>That's correct!</p></div>","","","","","","","","","","","","","","","","","",""
"","html-keyboard-response","81","484005","0.0-50.0-1.0","""event"",""trial"",""time""
""fullscreenenter"",""0"",""2033""
","
","
","""event"",""trial"",""time""
""fullscreenenter"",""0"",""2033""
","
","457","<div class='center'><p>That's correct!</p><p><b>[Press the space bar to continue]</b></p></div>","32","","","","","","","","","","","","","","","","","","","","","","",""
"","audio-keyboard-response","82","489476","0.0-50.0-2.0","""event"",""trial"",""time""
""fullscreenenter"",""0"",""2033""
","
","
","""event"",""trial"",""time""
""fullscreenenter"",""0"",""2033""
","
","5470","run_exp/static/audio/clip_24_q4.m4a","49","","","","","","","","","","","","","","","","","","","","","","",""
"","correct","83","491868","0.0-51.0-0.0","""event"",""trial"",""time""
""fullscreenenter"",""0"",""2033""
","
","
","""event"",""trial"",""time""
""fullscreenenter"",""0"",""2033""
","
","null","run_exp/static/audio/clip_18_correct.m4a","null","","","","","<div class='center'><p>That's correct!</p></div>","","","","","","","","","","","","","","","","","",""
"","html-keyboard-response","84","492432","0.0-51.0-1.0","""event"",""trial"",""time""
""fullscreenenter"",""0"",""2033""
","
","
","""event"",""trial"",""time""
""fullscreenenter"",""0"",""2033""
","
","562.6999999999534","<div class='center'><p>That's correct!</p><p><b>[Press the space bar to continue]</b></p></div>","32","","","","","","","","","","","","","","","","","","","","","","",""
"","q_all_corr","85","500928","0.0-52.0-0.0","""event"",""trial"",""time""
""fullscreenenter"",""0"",""2033""
","
","
","""event"",""trial"",""time""
""fullscreenenter"",""0"",""2033""
","
","null","run_exp/static/audio/clip_27_quiz_all_correct.m4a","null","","","","","<div class='center'><p>Good job! You’re now ready to move on to the real game! Remember this game will be difficult but don't get discouraged and try your best!</p></div>","","","","","","","","","","","","","","","","","",""
"","html-keyboard-response","86","502383","0.0-52.0-1.0","""event"",""trial"",""time""
""fullscreenenter"",""0"",""2033""
","
","
","""event"",""trial"",""time""
""fullscreenenter"",""0"",""2033""
","
","1454.2000000000698","<div class='center'><p>Good job! You’re now ready to move on to the real game! Remember this game will be difficult but don't get discouraged and try your best!</p><p><b>[Press the space bar to continue]</b></p></div>","32","","","","","","","","","","","","","","","","","","","","","","",""
"","do_welcome","87","506406","0.0-53.0-0.0","""event"",""trial"",""time""
""fullscreenenter"",""0"",""2033""
","
","
","""event"",""trial"",""time""
""fullscreenenter"",""0"",""2033""
","
","null","","","","","","","","null","","","","","","","","","","","","","","","","",""
"","do_trial","88","512458","0.0-54.0-0.0","""event"",""trial"",""time""
""fullscreenenter"",""0"",""2033""
","
","
","""event"",""trial"",""time""
""fullscreenenter"",""0"",""2033""
","
","null","","","","","","","","null","0,0,0","0","mountain","0","probe-25","0.6","0.3","0.1","","","","","","","","",""
"","html-keyboard-response","89","513466","0.0-54.0-1.0","""event"",""trial"",""time""
""fullscreenenter"",""0"",""2033""
","
","
","""event"",""trial"",""time""
""fullscreenenter"",""0"",""2033""
","
","null","<p></p>","null","","","","","","","","","","","","","","","","","","","","","","",""
"","do_trial","90","518426","0.0-55.0-0.0","""event"",""trial"",""time""
""fullscreenenter"",""0"",""2033""
","
","
","""event"",""trial"",""time""
""fullscreenenter"",""0"",""2033""
","
","415.80000000004657","","","","","","","","51","0,0,0","0","mountain","1","probe-229","0.5832959410463674","0.24871501870640733","0.12368444109489042","0","","","","","","","",""
"","html-keyboard-response","91","519433","0.0-55.0-1.0","""event"",""trial"",""time""
""fullscreenenter"",""0"",""2033""
","
","
","""event"",""trial"",""time""
""fullscreenenter"",""0"",""2033""
","
","null","<p></p>","null","","","","","","","","","","","","","","","","","","","","","","",""
"","do_trial","92","524699","0.0-56.0-0.0","""event"",""trial"",""time""
""fullscreenenter"",""0"",""2033""
","
","
","""event"",""trial"",""time""
""fullscreenenter"",""0"",""2033""
","
","717.9000000000815","","","","","","","","50","0,0,0","0","mountain","2","probe-212","0.5483690717206491","0.21972863483479874","0.20173625360641445","0","","","","","","","",""
"","html-keyboard-response","93","525709","0.0-56.0-1.0","""event"",""trial"",""time""
""fullscreenenter"",""0"",""2033""
","
","
","""event"",""trial"",""time""
""fullscreenenter"",""0"",""2033""
","
","null","<p></p>","null","","","","","","","","","","","","","","","","","","","","","","",""
"","do_trial","94","531125","0.0-57.0-0.0","""event"",""trial"",""time""
""fullscreenenter"",""0"",""2033""
","
","
","""event"",""trial"",""time""
""fullscreenenter"",""0"",""2033""
","
","869.7000000001863","","","","","","","","49","0,0,0","0","mountain","3","probe-112","0.5598289823659393","0.17550766852552271","0.1979197500870309","0","","","","","","","",""
"","html-keyboard-response","95","532133","0.0-57.0-1.0","""event"",""trial"",""time""
""fullscreenenter"",""0"",""2033""
","
","
","""event"",""trial"",""time""
""fullscreenenter"",""0"",""2033""
","
","null","<p></p>","null","","","","","","","","","","","","","","","","","","","","","","",""
"","do_trial","96","537209","0.0-58.0-0.0","""event"",""trial"",""time""
""fullscreenenter"",""0"",""2033""
","
","
","""event"",""trial"",""time""
""fullscreenenter"",""0"",""2033""
","
","534.3999999999069","","","","","","","","49","1,1,0","0","mountain","4","probe-94","0.6410323317702803","0.1969764477153027","0.1369422691635311","1","","","","","","","",""
"","html-keyboard-response","97","538212","0.0-58.0-1.0","""event"",""trial"",""time""
""fullscreenenter"",""0"",""2033""
","
","
","""event"",""trial"",""time""
""fullscreenenter"",""0"",""2033""
","
","null","<p></p>","null","","","","","","","","","","","","","","","","","","","","","","",""
"","do_trial","98","543274","0.0-59.0-0.0","""event"",""trial"",""time""
""fullscreenenter"",""0"",""2033""
","
","
","""event"",""trial"",""time""
""fullscreenenter"",""0"",""2033""
","
","513.3999999999069","","","","","","","","50","1,0,0","0","mountain","5","probe-28","0.7481871093029295","0.12409527986611546","0.16010134462556969","0","","","","","","","",""
"","html-keyboard-response","99","544289","0.0-59.0-1.0","""event"",""trial"",""time""
""fullscreenenter"",""0"",""2033""
","
","
","""event"",""trial"",""time""
""fullscreenenter"",""0"",""2033""
","
","null","<p></p>","null","","","","","","","","","","","","","","","","","","","","","","",""
"","do_trial","100","549156","0.0-60.0-0.0","""event"",""trial"",""time""
""fullscreenenter"",""0"",""2033""
","
","
","""event"",""trial"",""time""
""fullscreenenter"",""0"",""2033""
","
","319.80000000004657","","","","","","","","51","1,0,0","0","mountain","6","probe-215","0.7299263468803124","0.3431918154436548","0.05836535434658828","0","","","","","","","",""
"","html-keyboard-response","101","550164","0.0-60.0-1.0","""event"",""trial"",""time""
""fullscreenenter"",""0"",""2033""
","
","
","""event"",""trial"",""time""
""fullscreenenter"",""0"",""2033""
","
","null","<p></p>","null","","","","","","","","","","","","","","","","","","","","","","",""
"","do_trial","102","555005","0.0-61.0-0.0","""event"",""trial"",""time""
""fullscreenenter"",""0"",""2033""
","
","
","""event"",""trial"",""time""
""fullscreenenter"",""0"",""2033""
","
","307.10000000009313","","","","","","","","49","0,0,0","0","mountain","7","probe-142","0.712098138896899","0.29467389913213815","0.1523542332779333","0","","","","","","","",""
"","html-keyboard-response","103","556021","0.0-61.0-1.0","""event"",""trial"",""time""
""fullscreenenter"",""0"",""2033""
","
","
","""event"",""trial"",""time""
""fullscreenenter"",""0"",""2033""
","
","null","<p></p>","null","","","","","","","","","","","","","","","","","","","","","","",""
"","do_trial","104","560870","0.0-62.0-0.0","""event"",""trial"",""time""
""fullscreenenter"",""0"",""2033""
","
","
","""event"",""trial"",""time""
""fullscreenenter"",""0"",""2033""
","
","310.5999999998603","","","","","","","","50","0,0,0","0","mountain","8","probe-92","0.7846040762036571","0.452531457884105","0.1758502366387926","0","","","","","","","",""
"","html-keyboard-response","105","561879","0.0-62.0-1.0","""event"",""trial"",""time""
""fullscreenenter"",""0"",""2033""
","
","
","""event"",""trial"",""time""
""fullscreenenter"",""0"",""2033""
","
","null","<p></p>","null","","","","","","","","","","","","","","","","","","","","","","",""
"","do_trial","106","566726","0.0-63.0-0.0","""event"",""trial"",""time""
""fullscreenenter"",""0"",""2033""
","
","
","""event"",""trial"",""time""
""fullscreenenter"",""0"",""2033""
","
","305.5","","","","","","","","51","1,0,1","0","mountain","9","probe-140","0.5500612336798737","0.3365261779148608","0.3249618764252617","1","","","","","","","",""
"","html-keyboard-response","107","567739","0.0-63.0-1.0","""event"",""trial"",""time""
""fullscreenenter"",""0"",""2033""
","
","
","""event"",""trial"",""time""
""fullscreenenter"",""0"",""2033""
","
","null","<p></p>","null","","","","","","","","","","","","","","","","","","","","","","",""
"","do_trial","108","572731","0.0-64.0-0.0","""event"",""trial"",""time""
""fullscreenenter"",""0"",""2033""
","
","
","""event"",""trial"",""time""
""fullscreenenter"",""0"",""2033""
","
","447.10000000009313","","","","","","","","49","1,1,0","0","mountain","10","probe-08","0.579751524280862","0.30094105763582457","0.10907367476450423","1","","","","","","","",""
"","html-keyboard-response","109","573747","0.0-64.0-1.0","""event"",""trial"",""time""
""fullscreenenter"",""0"",""2033""
","
","
","""event"",""trial"",""time""
""fullscreenenter"",""0"",""2033""
","
","null","<p></p>","null","","","","","","","","","","","","","","","","","","","","","","",""
"","do_trial","110","578716","0.0-65.0-0.0","""event"",""trial"",""time""
""fullscreenenter"",""0"",""2033""
","
","
","""event"",""trial"",""time""
""fullscreenenter"",""0"",""2033""
","
","428.69999999995343","","","","","","","","51","0,0,0","0","mountain","11","probe-106","0.5582995283693484","0.2361140398784519","0.2192401589111855","0","","","","","","","",""
"","html-keyboard-response","111","579722","0.0-65.0-1.0","""event"",""trial"",""time""
""fullscreenenter"",""0"",""2033""
","
","
","""event"",""trial"",""time""
""fullscreenenter"",""0"",""2033""
","
","null","<p></p>","null","","","","","","","","","","","","","","","","","","","","","","",""
"","do_trial","112","584555","0.0-66.0-0.0","""event"",""trial"",""time""
""fullscreenenter"",""0"",""2033""
","
","
","""event"",""trial"",""time""
""fullscreenenter"",""0"",""2033""
","
","281","","","","","","","","49","0,0,0","0","mountain","12","probe-103","0.5934246614180073","0.26693051028983766","0.17840277356209303","0","","","","","","","",""
"","html-keyboard-response","113","585558","0.0-66.0-1.0","""event"",""trial"",""time""
""fullscreenenter"",""0"",""2033""
","
","
","""event"",""trial"",""time""
""fullscreenenter"",""0"",""2033""
","
","null","<p></p>","null","","","","","","","","","","","","","","","","","","","","","","",""
"","do_trial","114","590452","0.0-67.0-0.0","""event"",""trial"",""time""
""fullscreenenter"",""0"",""2033""
","
","
","""event"",""trial"",""time""
""fullscreenenter"",""0"",""2033""
","
","343.30000000004657","","","","","","","","49","1,0,1","0","mountain","13","probe-48","0.6068238207435187","0.19461235471410684","0.10139172399429551","1","","","","","","","",""
"","html-keyboard-response","115","591465","0.0-67.0-1.0","""event"",""trial"",""time""
""fullscreenenter"",""0"",""2033""
","
","
","""event"",""trial"",""time""
""fullscreenenter"",""0"",""2033""
","
","null","<p></p>","null","","","","","","","","","","","","","","","","","","","","","","",""
"","do_trial","116","596063","0.0-68.0-0.0","""event"",""trial"",""time""
""fullscreenenter"",""0"",""2033""
","
","
","""event"",""trial"",""time""
""fullscreenenter"",""0"",""2033""
","
","53","","","","","","","","49","1,0,1","0","mountain","14","probe-76","0.6956457212170141","0.234068379265435","0.05907063520962892","1","","","","","","","",""
"","html-keyboard-response","117","597071","0.0-68.0-1.0","""event"",""trial"",""time""
""fullscreenenter"",""0"",""2033""
","
","
","""event"",""trial"",""time""
""fullscreenenter"",""0"",""2033""
","
","null","<p></p>","null","","","","","","","","","","","","","","","","","","","","","","",""
"","do_trial","118","602002","0.0-69.0-0.0","""event"",""trial"",""time""
""fullscreenenter"",""0"",""2033""
","
","
","""event"",""trial"",""time""
""fullscreenenter"",""0"",""2033""
","
","382.79999999981374","","","","","","","","49","0,1,0","0","mountain","15","probe-37","0.7745709450028858","0.38781841993112937","0.06375231056420805","0","","","","","","","",""
"","html-keyboard-response","119","603012","0.0-69.0-1.0","""event"",""trial"",""time""
""fullscreenenter"",""0"",""2033""
","
","
","""event"",""trial"",""time""
""fullscreenenter"",""0"",""2033""
","
","null","<p></p>","null","","","","","","","","","","","","","","","","","","","","","","",""
"","do_trial","120","607981","0.0-70.0-0.0","""event"",""trial"",""time""
""fullscreenenter"",""0"",""2033""
","
","
","""event"",""trial"",""time""
""fullscreenenter"",""0"",""2033""
","
","425.69999999995343","","","","","","","","49","1,1,0","0","mountain","16","probe-83","0.6360081639137817","0.3139374115959346","0.12811429734527646","1","","","","","","","",""
"","html-keyboard-response","121","608983","0.0-70.0-1.0","""event"",""trial"",""time""
""fullscreenenter"",""0"",""2033""
","
","
","""event"",""trial"",""time""
""fullscreenenter"",""0"",""2033""
","
","null","<p></p>","null","","","","","","","","","","","","","","","","","","","","","","",""
"","do_trial","122","613967","0.0-71.0-0.0","""event"",""trial"",""time""
""fullscreenenter"",""0"",""2033""
","
","
","""event"",""trial"",""time""
""fullscreenenter"",""0"",""2033""
","
","443.0999999998603","","","","","","","","49","1,0,0","0","mountain","17","probe-62","0.5512278580561089","0.26129017418937617","0.13471757333160406","1","","","","","","","",""
"","html-keyboard-response","123","614972","0.0-71.0-1.0","""event"",""trial"",""time""
""fullscreenenter"",""0"",""2033""
","
","
","""event"",""trial"",""time""
""fullscreenenter"",""0"",""2033""
","
","null","<p></p>","null","","","","","","","","","","","","","","","","","","","","","","",""
"","do_trial","124","619858","0.0-72.0-0.0","""event"",""trial"",""time""
""fullscreenenter"",""0"",""2033""
","
","
","""event"",""trial"",""time""
""fullscreenenter"",""0"",""2033""
","
","336.80000000004657","","","","","","","","49","0,0,0","0","mountain","18","probe-43","0.5385001592381011","0.2825552875280467","0.07385741243556768","0","","","","","","","",""
"","html-keyboard-response","125","620865","0.0-72.0-1.0","""event"",""trial"",""time""
""fullscreenenter"",""0"",""2033""
","
","
","""event"",""trial"",""time""
""fullscreenenter"",""0"",""2033""
","
","null","<p></p>","null","","","","","","","","","","","","","","","","","","","","","","",""
"","do_trial","126","626006","0.0-73.0-0.0","""event"",""trial"",""time""
""fullscreenenter"",""0"",""2033""
","
","
","""event"",""trial"",""time""
""fullscreenenter"",""0"",""2033""
","
","595.6000000000931","","","","","","","","49","0,0,0","0","mountain","19","probe-201","0.5823855056430168","0.3982876910290149","0.09976432637513308","0","","","","","","","",""
"","html-keyboard-response","127","627015","0.0-73.0-1.0","""event"",""trial"",""time""
""fullscreenenter"",""0"",""2033""
","
","
","""event"",""trial"",""time""
""fullscreenenter"",""0"",""2033""
","
","null","<p></p>","null","","","","","","","","","","","","","","","","","","","","","","",""
"","do_trial","128","631866","0.0-74.0-0.0","""event"",""trial"",""time""
""fullscreenenter"",""0"",""2033""
","
","
","""event"",""trial"",""time""
""fullscreenenter"",""0"",""2033""
","
","302.10000000009313","","","","","","","","49","1,0,0","0","mountain","20","probe-192","0.6065776705084008","0.44602960768619687","0.1753777967439085","1","","","","","","","",""
"","html-keyboard-response","129","632878","0.0-74.0-1.0","""event"",""trial"",""time""
""fullscreenenter"",""0"",""2033""
","
","
","""event"",""trial"",""time""
""fullscreenenter"",""0"",""2033""
","
","null","<p></p>","null","","","","","","","","","","","","","","","","","","","","","","",""
"","do_trial","130","637718","0.0-75.0-0.0","""event"",""trial"",""time""
""fullscreenenter"",""0"",""2033""
","
","
","""event"",""trial"",""time""
""fullscreenenter"",""0"",""2033""
","
","300.30000000004657","","","","","","","","49","0,1,0","0","mountain","21","probe-216","0.43941337193421276","0.5493037816305651","0.20097715178630904","0","","","","","","","",""
"","html-keyboard-response","131","638726","0.0-75.0-1.0","""event"",""trial"",""time""
""fullscreenenter"",""0"",""2033""
","
","
","""event"",""trial"",""time""
""fullscreenenter"",""0"",""2033""
","
","null","<p></p>","null","","","","","","","","","","","","","","","","","","","","","","",""
"","do_trial","132","643601","0.0-76.0-0.0","""event"",""trial"",""time""
""fullscreenenter"",""0"",""2033""
","
","
","""event"",""trial"",""time""
""fullscreenenter"",""0"",""2033""
","
","333.29999999981374","","","","","","","","49","1,1,0","0","mountain","22","probe-105","0.6510835605940861","0.41231401815575075","0.061227136543345044","1","","","","","","","",""
"","html-keyboard-response","133","644615","0.0-76.0-1.0","""event"",""trial"",""time""
""fullscreenenter"",""0"",""2033""
","
","
","""event"",""trial"",""time""
""fullscreenenter"",""0"",""2033""
","
","null","<p></p>","null","","","","","","","","","","","","","","","","","","","","","","",""
"","do_trial","134","649854","0.0-77.0-0.0","""event"",""trial"",""time""
""fullscreenenter"",""0"",""2033""
","
","
","""event"",""trial"",""time""
""fullscreenenter"",""0"",""2033""
","
","705","","","","","","","","49","0,1,0","0","mountain","23","probe-189","0.7021057048752465","0.3924589094972669","0.17332749120670404","0","","","","","","","",""
"","html-keyboard-response","135","650864","0.0-77.0-1.0","""event"",""trial"",""time""
""fullscreenenter"",""0"",""2033""
","
","
","""event"",""trial"",""time""
""fullscreenenter"",""0"",""2033""
","
","null","<p></p>","null","","","","","","","","","","","","","","","","","","","","","","",""
"","do_trial","136","655722","0.0-78.0-0.0","""event"",""trial"",""time""
""fullscreenenter"",""0"",""2033""
","
","
","""event"",""trial"",""time""
""fullscreenenter"",""0"",""2033""
","
","320.5999999998603","","","","","","","","51","0,0,0","0","mountain","24","probe-47","0.6667767556001856","0.21409438187057664","0.1163659828973249","0","","","","","","","",""
"","html-keyboard-response","137","656730","0.0-78.0-1.0","""event"",""trial"",""time""
""fullscreenenter"",""0"",""2033""
","
","
","""event"",""trial"",""time""
""fullscreenenter"",""0"",""2033""
","
","null","<p></p>","null","","","","","","","","","","","","","","","","","","","","","","",""
"","do_trial","138","661544","0.0-79.0-0.0","""event"",""trial"",""time""
""fullscreenenter"",""0"",""2033""
","
","
","""event"",""trial"",""time""
""fullscreenenter"",""0"",""2033""
","
","267.20000000018626","","","","","","","","51","1,1,0","0","mountain","25","probe-67","0.6429354744412094","0.33180733215156183","0.06633080905593901","0","","","","","","","",""
"","html-keyboard-response","139","662560","0.0-79.0-1.0","""event"",""trial"",""time""
""fullscreenenter"",""0"",""2033""
","
","
","""event"",""trial"",""time""
""fullscreenenter"",""0"",""2033""
","
","null","<p></p>","null","","","","","","","","","","","","","","","","","","","","","","",""
"","do_trial","140","667421","0.0-80.0-0.0","""event"",""trial"",""time""
""fullscreenenter"",""0"",""2033""
","
","
","""event"",""trial"",""time""
""fullscreenenter"",""0"",""2033""
","
","323.4000000001397","","","","","","","","49","0,0,0","0","mountain","26","probe-22","0.6519602658261248","0.2989913859759063","0.09475220622829224","0","","","","","","","",""
"","html-keyboard-response","141","668432","0.0-80.0-1.0","""event"",""trial"",""time""
""fullscreenenter"",""0"",""2033""
","
","
","""event"",""trial"",""time""
""fullscreenenter"",""0"",""2033""
","
","null","<p></p>","null","","","","","","","","","","","","","","","","","","","","","","",""
"","do_trial","142","673196","0.0-81.0-0.0","""event"",""trial"",""time""
""fullscreenenter"",""0"",""2033""
","
","
","""event"",""trial"",""time""
""fullscreenenter"",""0"",""2033""
","
","214.89999999990687","","","","","","","","49","1,0,1","0","mountain","27","probe-55","0.5210964811562484","0.2949291264214416","0.1400310959605304","1","","","","","","","",""
"","html-keyboard-response","143","674208","0.0-81.0-1.0","""event"",""trial"",""time""
""fullscreenenter"",""0"",""2033""
","
","
","""event"",""trial"",""time""
""fullscreenenter"",""0"",""2033""
","
","null","<p></p>","null","","","","","","","","","","","","","","","","","","","","","","",""
"","do_trial","144","679017","0.0-82.0-0.0","""event"",""trial"",""time""
""fullscreenenter"",""0"",""2033""
","
","
","""event"",""trial"",""time""
""fullscreenenter"",""0"",""2033""
","
","271.0999999998603","","","","","","","","49","0,0,0","0","mountain","28","probe-64","0.5728242226307907","0.23803740713809532","0.05002172793884986","0","","","","","","","",""
"","html-keyboard-response","145","680028","0.0-82.0-1.0","""event"",""trial"",""time""
""fullscreenenter"",""0"",""2033""
","
","
","""event"",""trial"",""time""
""fullscreenenter"",""0"",""2033""
","
","null","<p></p>","null","","","","","","","","","","","","","","","","","","","","","","",""
"","do_trial","146","685064","0.0-83.0-0.0","""event"",""trial"",""time""
""fullscreenenter"",""0"",""2033""
","
","
","""event"",""trial"",""time""
""fullscreenenter"",""0"",""2033""
","
","500.80000000004657","","","","","","","","49","1,0,0","0","mountain","29","probe-170","0.5976457148156742","0.26695832487320137","0.07911696277989058","1","","","","","","","",""
"","html-keyboard-response","147","686069","0.0-83.0-1.0","""event"",""trial"",""time""
""fullscreenenter"",""0"",""2033""
","
","
","""event"",""trial"",""time""
""fullscreenenter"",""0"",""2033""
","
","null","<p></p>","null","","","","","","","","","","","","","","","","","","","","","","",""
"","do_bye","148","687579","0.0-84.0-0.0","""event"",""trial"",""time""
""fullscreenenter"",""0"",""2033""
","
","
","""event"",""trial"",""time""
""fullscreenenter"",""0"",""2033""
","
","null","","","","","","","","null","","","","","","","","","","","","","","","","",""
"","break","149","691028","0.0-84.0-1.0","""event"",""trial"",""time""
""fullscreenenter"",""0"",""2033""
","
","
","""event"",""trial"",""time""
""fullscreenenter"",""0"",""2033""
","
","3447.1999999999534","<div class='center'><p>Time to take a quick break! You have 2 minutes to rest, but you can move on sooner if you'd like.</p><p> Press the <b>space bar</b> to continue.</p></div>","32","","","","","","","","","","","","","","","","","","","","","","",""
"","do_travel","150","700049","0.0-85.0-0.0","""event"",""trial"",""time""
""fullscreenenter"",""0"",""2033""
","
","
","""event"",""trial"",""time""
""fullscreenenter"",""0"",""2033""
","
","null","","","","","","","","null","","","","","","","","","","","","","","","","",""
"","do_welcome","151","704069","0.0-85.0-1.0","""event"",""trial"",""time""
""fullscreenenter"",""0"",""2033""
","
","
","""event"",""trial"",""time""
""fullscreenenter"",""0"",""2033""
","
","null","","","","","","","","null","","","","","","","","","","","","","","","","",""
"","do_trial","152","710699","0.0-86.0-0.0","""event"",""trial"",""time""
""fullscreenenter"",""0"",""2033""
","
","
","""event"",""trial"",""time""
""fullscreenenter"",""0"",""2033""
","
","2075.100000000093","","","","","","","","50","1,0,0","1","forest","30","probe-18","1","0.22903023071529555","0.08904293255316793","0","","","","","","","",""
"","html-keyboard-response","153","711709","0.0-86.0-1.0","""event"",""trial"",""time""
""fullscreenenter"",""0"",""2033""
","
","
","""event"",""trial"",""time""
""fullscreenenter"",""0"",""2033""
","
","null","<p></p>","null","","","","","","","","","","","","","","","","","","","","","","",""
"","do_trial","154","716671","0.0-87.0-0.0","""event"",""trial"",""time""
""fullscreenenter"",""0"",""2033""
","
","
","""event"",""trial"",""time""
""fullscreenenter"",""0"",""2033""
","
","411.39999999990687","","","","","","","","49","1,0,0","1","forest","31","probe-51","1","0.17435349566458272","0.0931541778301468","1","","","","","","","",""
"","html-keyboard-response","155","717674","0.0-87.0-1.0","""event"",""trial"",""time""
""fullscreenenter"",""0"",""2033""
","
","
","""event"",""trial"",""time""
""fullscreenenter"",""0"",""2033""
","
","null","<p></p>","null","","","","","","","","","","","","","","","","","","","","","","",""
"","do_trial","156","722530","0.0-88.0-0.0","""event"",""trial"",""time""
""fullscreenenter"",""0"",""2033""
","
","
","""event"",""trial"",""time""
""fullscreenenter"",""0"",""2033""
","
","319.10000000009313","","","","","","","","51","1,0,0","1","forest","32","probe-34","1","0.17168776367552777","0.14279678902666915","0","","","","","","","",""
"","html-keyboard-response","157","723542","0.0-88.0-1.0","""event"",""trial"",""time""
""fullscreenenter"",""0"",""2033""
","
","
","""event"",""trial"",""time""
""fullscreenenter"",""0"",""2033""
","
","null","<p></p>","null","","","","","","","","","","","","","","","","","","","","","","",""
"","do_trial","158","728542","0.0-89.0-0.0","""event"",""trial"",""time""
""fullscreenenter"",""0"",""2033""
","
","
","""event"",""trial"",""time""
""fullscreenenter"",""0"",""2033""
","
","460","","","","","","","","49","0,0,0","1","forest","33","probe-214","0.7763655644334064","0.21311996539954378","0.27354554914753804","0","","","","","","","",""
"","html-keyboard-response","159","729554","0.0-89.0-1.0","""event"",""trial"",""time""
""fullscreenenter"",""0"",""2033""
","
","
","""event"",""trial"",""time""
""fullscreenenter"",""0"",""2033""
","
","null","<p></p>","null","","","","","","","","","","","","","","","","","","","","","","",""
"","do_trial","160","734437","0.0-90.0-0.0","""event"",""trial"",""time""
""fullscreenenter"",""0"",""2033""
","
","
","""event"",""trial"",""time""
""fullscreenenter"",""0"",""2033""
","
","349.80000000004657","","","","","","","","50","1,0,1","1","forest","34","probe-147","0.848291850778608","0.277765743179946","0.21106394020023012","0","","","","","","","",""
"","html-keyboard-response","161","735448","0.0-90.0-1.0","""event"",""trial"",""time""
""fullscreenenter"",""0"",""2033""
","
","
","""event"",""trial"",""time""
""fullscreenenter"",""0"",""2033""
","
","null","<p></p>","null","","","","","","","","","","","","","","","","","","","","","","",""
"","do_trial","162","740242","0.0-91.0-0.0","""event"",""trial"",""time""
""fullscreenenter"",""0"",""2033""
","
","
","""event"",""trial"",""time""
""fullscreenenter"",""0"",""2033""
","
","247.30000000004657","","","","","","","","51","1,0,1","1","forest","35","probe-177","0.8198610131440962","0.19480788922633133","0.2981267356876059","1","","","","","","","",""
"","html-keyboard-response","163","741247","0.0-91.0-1.0","""event"",""trial"",""time""
""fullscreenenter"",""0"",""2033""
","
","
","""event"",""trial"",""time""
""fullscreenenter"",""0"",""2033""
","
","null","<p></p>","null","","","","","","","","","","","","","","","","","","","","","","",""
"","do_trial","164","746347","0.0-92.0-0.0","""event"",""trial"",""time""
""fullscreenenter"",""0"",""2033""
","
","
","""event"",""trial"",""time""
""fullscreenenter"",""0"",""2033""
","
","556.7000000001863","","","","","","","","49","1,1,0","1","forest","36","probe-42","0.591686846228982","0.2319717800396361","0.14849953210747532","1","","","","","","","",""
"","html-keyboard-response","165","747355","0.0-92.0-1.0","""event"",""trial"",""time""
""fullscreenenter"",""0"",""2033""
","
","
","""event"",""trial"",""time""
""fullscreenenter"",""0"",""2033""
","
","null","<p></p>","null","","","","","","","","","","","","","","","","","","","","","","",""
"","do_trial","166","752217","0.0-93.0-0.0","""event"",""trial"",""time""
""fullscreenenter"",""0"",""2033""
","
","
","""event"",""trial"",""time""
""fullscreenenter"",""0"",""2033""
","
","320.60000000009313","","","","","","","","50","0,1,0","1","forest","37","probe-195","0.6840306134852497","0.2635229033437431","0.08030138607490296","1","","","","","","","",""
"","html-keyboard-response","167","753228","0.0-93.0-1.0","""event"",""trial"",""time""
""fullscreenenter"",""0"",""2033""
","
","
","""event"",""trial"",""time""
""fullscreenenter"",""0"",""2033""
","
","null","<p></p>","null","","","","","","","","","","","","","","","","","","","","","","",""
"","do_trial","168","758117","0.0-94.0-0.0","""event"",""trial"",""time""
""fullscreenenter"",""0"",""2033""
","
","
","""event"",""trial"",""time""
""fullscreenenter"",""0"",""2033""
","
","351.60000000009313","","","","","","","","51","1,0,0","1","forest","38","probe-72","0.738124042163438","0.11597852513735113","0.07503372558230657","0","","","","","","","",""
"","html-keyboard-response","169","759134","0.0-94.0-1.0","""event"",""trial"",""time""
""fullscreenenter"",""0"",""2033""
","
","
","""event"",""trial"",""time""
""fullscreenenter"",""0"",""2033""
","
","null","<p></p>","null","","","","","","","","","","","","","","","","","","","","","","",""
"","do_trial","170","764007","0.0-95.0-0.0","""event"",""trial"",""time""
""fullscreenenter"",""0"",""2033""
","
","
","""event"",""trial"",""time""
""fullscreenenter"",""0"",""2033""
","
","322.5","","","","","","","","49","1,0,0","1","forest","39","probe-95","0.6529566308965531","0.3189123960939135","0.18848463056589482","1","","","","","","","",""
"","html-keyboard-response","171","765011","0.0-95.0-1.0","""event"",""trial"",""time""
""fullscreenenter"",""0"",""2033""
","
","
","""event"",""trial"",""time""
""fullscreenenter"",""0"",""2033""
","
","null","<p></p>","null","","","","","","","","","","","","","","","","","","","","","","",""
"","do_trial","172","769953","0.0-96.0-0.0","""event"",""trial"",""time""
""fullscreenenter"",""0"",""2033""
","
","
","""event"",""trial"",""time""
""fullscreenenter"",""0"",""2033""
","
","402.89999999990687","","","","","","","","50","1,0,1","1","forest","40","probe-02","0.6046484107411247","0.2724498098564206","0.23068070789322265","0","","","","","","","",""
"","html-keyboard-response","173","770970","0.0-96.0-1.0","""event"",""trial"",""time""
""fullscreenenter"",""0"",""2033""
","
","
","""event"",""trial"",""time""
""fullscreenenter"",""0"",""2033""
","
","null","<p></p>","null","","","","","","","","","","","","","","","","","","","","","","",""
"","do_trial","174","775775","0.0-97.0-0.0","""event"",""trial"",""time""
""fullscreenenter"",""0"",""2033""
","
","
","""event"",""trial"",""time""
""fullscreenenter"",""0"",""2033""
","
","265.19999999995343","","","","","","","","51","0,0,0","1","forest","41","probe-04","0.5247637917595573","0.3311282897126669","0.2857218152065067","0","","","","","","","",""
"","html-keyboard-response","175","776782","0.0-97.0-1.0","""event"",""trial"",""time""
""fullscreenenter"",""0"",""2033""
","
","
","""event"",""trial"",""time""
""fullscreenenter"",""0"",""2033""
","
","null","<p></p>","null","","","","","","","","","","","","","","","","","","","","","","",""
"","do_trial","176","781640","0.0-98.0-0.0","""event"",""trial"",""time""
""fullscreenenter"",""0"",""2033""
","
","
","""event"",""trial"",""time""
""fullscreenenter"",""0"",""2033""
","
","323","","","","","","","","49","0,0,1","1","forest","42","probe-136","0.3120131465269225","0.17795886402651875","0.34750513238060715","0","","","","","","","",""
"","html-keyboard-response","177","782650","0.0-98.0-1.0","""event"",""trial"",""time""
""fullscreenenter"",""0"",""2033""
","
","
","""event"",""trial"",""time""
""fullscreenenter"",""0"",""2033""
","
","null","<p></p>","null","","","","","","","","","","","","","","","","","","","","","","",""
"","do_trial","178","787409","0.0-99.0-0.0","""event"",""trial"",""time""
""fullscreenenter"",""0"",""2033""
","
","
","""event"",""trial"",""time""
""fullscreenenter"",""0"",""2033""
","
","225.60000000009313","","","","","","","","50","0,0,1","1","forest","43","probe-144","0.20629884525419417","0.40315629354689675","0.38983509037996344","0","","","","","","","",""
"","html-keyboard-response","179","788414","0.0-99.0-1.0","""event"",""trial"",""time""
""fullscreenenter"",""0"",""2033""
","
","
","""event"",""trial"",""time""
""fullscreenenter"",""0"",""2033""
","
","null","<p></p>","null","","","","","","","","","","","","","","","","","","","","","","",""
"","do_trial","180","793222","0.0-100.0-0.0","""event"",""trial"",""time""
""fullscreenenter"",""0"",""2033""
","
","
","""event"",""trial"",""time""
""fullscreenenter"",""0"",""2033""
","
","263.10000000009313","","","","","","","","51","0,0,1","1","forest","44","probe-102","0.0897466528097722","0.3840972671248901","0.4246893110799108","1","","","","","","","",""
"","html-keyboard-response","181","794240","0.0-100.0-1.0","""event"",""trial"",""time""
""fullscreenenter"",""0"",""2033""
","
","
","""event"",""trial"",""time""
""fullscreenenter"",""0"",""2033""
","
","null","<p></p>","null","","","","","","","","","","","","","","","","","","","","","","",""
"","do_trial","182","799101","0.0-101.0-0.0","""event"",""trial"",""time""
""fullscreenenter"",""0"",""2033""
","
","
","""event"",""trial"",""time""
""fullscreenenter"",""0"",""2033""
","
","321.69999999995343","","","","","","","","49","0,0,0","1","forest","45","probe-61","0.0788529522636356","0.28632629908639606","0.543127525945396","0","","","","","","","",""
"","html-keyboard-response","183","800103","0.0-101.0-1.0","""event"",""trial"",""time""
""fullscreenenter"",""0"",""2033""
","
","
","""event"",""trial"",""time""
""fullscreenenter"",""0"",""2033""
","
","null","<p></p>","null","","","","","","","","","","","","","","","","","","","","","","",""
"","do_trial","184","804933","0.0-102.0-0.0","""event"",""trial"",""time""
""fullscreenenter"",""0"",""2033""
","
","
","""event"",""trial"",""time""
""fullscreenenter"",""0"",""2033""
","
","280.10000000009313","","","","","","","","51","0,1,0","1","forest","46","probe-39","0.07024431415136902","0.2744540631847838","0.6644626473497438","0","","","","","","","",""
"","html-keyboard-response","185","805950","0.0-102.0-1.0","""event"",""trial"",""time""
""fullscreenenter"",""0"",""2033""
","
","
","""event"",""trial"",""time""
""fullscreenenter"",""0"",""2033""
","
","null","<p></p>","null","","","","","","","","","","","","","","","","","","","","","","",""
"","do_trial","186","810877","0.0-103.0-0.0","""event"",""trial"",""time""
""fullscreenenter"",""0"",""2033""
","
","
","""event"",""trial"",""time""
""fullscreenenter"",""0"",""2033""
","
","383.89999999990687","","","","","","","","49","0,0,1","1","forest","47","probe-23","0.08374531196483755","0.21365204086234826","0.6289972705025344","0","","","","","","","",""
"","html-keyboard-response","187","811879","0.0-103.0-1.0","""event"",""trial"",""time""
""fullscreenenter"",""0"",""2033""
","
","
","""event"",""trial"",""time""
""fullscreenenter"",""0"",""2033""
","
","null","<p></p>","null","","","","","","","","","","","","","","","","","","","","","","",""
"","do_trial","188","817408","0.0-104.0-0.0","""event"",""trial"",""time""
""fullscreenenter"",""0"",""2033""
","
","
","""event"",""trial"",""time""
""fullscreenenter"",""0"",""2033""
","
","983.3000000000466","","","","","","","","50","0,1,0","1","forest","48","probe-181","0.20535516475487497","0.20742024878928192","0.6600187772367336","1","","","","","","","",""
"","html-keyboard-response","189","818410","0.0-104.0-1.0","""event"",""trial"",""time""
""fullscreenenter"",""0"",""2033""
","
","
","""event"",""trial"",""time""
""fullscreenenter"",""0"",""2033""
","
","null","<p></p>","null","","","","","","","","","","","","","","","","","","","","","","",""
"","do_trial","190","824903","0.0-105.0-0.0","""event"",""trial"",""time""
""fullscreenenter"",""0"",""2033""
","
","
","""event"",""trial"",""time""
""fullscreenenter"",""0"",""2033""
","
","1922.6999999999534","","","","","","","","49","0,0,0","1","forest","49","probe-204","0.1874106401650711","0.10654785461315722","0.5638756140427088","0","","","","","","","",""
"","html-keyboard-response","191","825908","0.0-105.0-1.0","""event"",""trial"",""time""
""fullscreenenter"",""0"",""2033""
","
","
","""event"",""trial"",""time""
""fullscreenenter"",""0"",""2033""
","
","null","<p></p>","null","","","","","","","","","","","","","","","","","","","","","","",""
"","do_trial","192","830770","0.0-106.0-0.0","""event"",""trial"",""time""
""fullscreenenter"",""0"",""2033""
","
","
","""event"",""trial"",""time""
""fullscreenenter"",""0"",""2033""
","
","321.0999999998603","","","","","","","","51","1,0,1","1","forest","50","probe-150","0.15245055322593307","0.10033917789373076","0.6222002976002439","1","","","","","","","",""
"","html-keyboard-response","193","831786","0.0-106.0-1.0","""event"",""trial"",""time""
""fullscreenenter"",""0"",""2033""
","
","
","""event"",""trial"",""time""
""fullscreenenter"",""0"",""2033""
","
","null","<p></p>","null","","","","","","","","","","","","","","","","","","","","","","",""
"","do_trial","194","836905","0.0-107.0-0.0","""event"",""trial"",""time""
""fullscreenenter"",""0"",""2033""
","
","
","""event"",""trial"",""time""
""fullscreenenter"",""0"",""2033""
","
","567.4000000001397","","","","","","","","50","0,1,1","1","forest","51","probe-166","0.13952187183408202","0.2522022547146956","0.5817348164358424","1","","","","","","","",""
"","html-keyboard-response","195","837920","0.0-107.0-1.0","""event"",""trial"",""time""
""fullscreenenter"",""0"",""2033""
","
","
","""event"",""trial"",""time""
""fullscreenenter"",""0"",""2033""
","
","null","<p></p>","null","","","","","","","","","","","","","","","","","","","","","","",""
"","do_trial","196","842757","0.0-108.0-0.0","""event"",""trial"",""time""
""fullscreenenter"",""0"",""2033""
","
","
","""event"",""trial"",""time""
""fullscreenenter"",""0"",""2033""
","
","300.9000000001397","","","","","","","","51","0,0,1","1","forest","52","probe-184","0.10290541612986698","0.37410533795659767","0.6675317715774418","1","","","","","","","",""
"","html-keyboard-response","197","843773","0.0-108.0-1.0","""event"",""trial"",""time""
""fullscreenenter"",""0"",""2033""
","
","
","""event"",""trial"",""time""
""fullscreenenter"",""0"",""2033""
","
","null","<p></p>","null","","","","","","","","","","","","","","","","","","","","","","",""
"","do_trial","198","848624","0.0-109.0-0.0","""event"",""trial"",""time""
""fullscreenenter"",""0"",""2033""
","
","
","""event"",""trial"",""time""
""fullscreenenter"",""0"",""2033""
","
","315.79999999981374","","","","","","","","50","1,1,1","1","forest","53","probe-152","0.12129898804997157","0.28902948621321223","0.5601638618345417","1","","","","","","","",""
"","html-keyboard-response","199","849637","0.0-109.0-1.0","""event"",""trial"",""time""
""fullscreenenter"",""0"",""2033""
","
","
","""event"",""trial"",""time""
""fullscreenenter"",""0"",""2033""
","
","null","<p></p>","null","","","","","","","","","","","","","","","","","","","","","","",""
"","do_trial","200","854471","0.0-110.0-0.0","""event"",""trial"",""time""
""fullscreenenter"",""0"",""2033""
","
","
","""event"",""trial"",""time""
""fullscreenenter"",""0"",""2033""
","
","291.5","","","","","","","","51","0,1,1","1","forest","54","probe-209","0.13165318855704608","0.3410837858499591","0.6284838375548278","1","","","","","","","",""
"","html-keyboard-response","201","855475","0.0-110.0-1.0","""event"",""trial"",""time""
""fullscreenenter"",""0"",""2033""
","
","
","""event"",""trial"",""time""
""fullscreenenter"",""0"",""2033""
","
","null","<p></p>","null","","","","","","","","","","","","","","","","","","","","","","",""
"","do_trial","202","860409","0.0-111.0-0.0","""event"",""trial"",""time""
""fullscreenenter"",""0"",""2033""
","
","
","""event"",""trial"",""time""
""fullscreenenter"",""0"",""2033""
","
","378.20000000018626","","","","","","","","50","0,0,0","1","forest","55","probe-139","0.05149622990508964","0.2928031631270698","0.5479683618894567","0","","","","","","","",""
"","html-keyboard-response","203","861418","0.0-111.0-1.0","""event"",""trial"",""time""
""fullscreenenter"",""0"",""2033""
","
","
","""event"",""trial"",""time""
""fullscreenenter"",""0"",""2033""
","
","null","<p></p>","null","","","","","","","","","","","","","","","","","","","","","","",""
"","do_trial","204","866314","0.0-112.0-0.0","""event"",""trial"",""time""
""fullscreenenter"",""0"",""2033""
","
","
","""event"",""trial"",""time""
""fullscreenenter"",""0"",""2033""
","
","341.89999999990687","","","","","","","","51","1,0,1","1","forest","56","probe-89","0.09991127448476869","0.32732249612289144","0.6529664868012708","1","","","","","","","",""
"","html-keyboard-response","205","867331","0.0-112.0-1.0","""event"",""trial"",""time""
""fullscreenenter"",""0"",""2033""
","
","
","""event"",""trial"",""time""
""fullscreenenter"",""0"",""2033""
","
","null","<p></p>","null","","","","","","","","","","","","","","","","","","","","","","",""
"","do_trial","206","872156","0.0-113.0-0.0","""event"",""trial"",""time""
""fullscreenenter"",""0"",""2033""
","
","
","""event"",""trial"",""time""
""fullscreenenter"",""0"",""2033""
","
","284.9000000001397","","","","","","","","51","0,1,1","1","forest","57","probe-100","0.1429503583351429","0.3297353809651207","0.7143972683661781","1","","","","","","","",""
"","html-keyboard-response","207","873160","0.0-113.0-1.0","""event"",""trial"",""time""
""fullscreenenter"",""0"",""2033""
","
","
","""event"",""trial"",""time""
""fullscreenenter"",""0"",""2033""
","
","null","<p></p>","null","","","","","","","","","","","","","","","","","","","","","","",""
"","do_trial","208","877698","0.0-114.0-0.0","""event"",""trial"",""time""
""fullscreenenter"",""0"",""2033""
","
","
","""event"",""trial"",""time""
""fullscreenenter"",""0"",""2033""
","
","0","","","","","","","","51","0,0,1","1","forest","58","probe-20","0.08718397696789758","0.3128843289552272","0.6803887888121993","1","","","","","","","",""
"","html-keyboard-response","209","878708","0.0-114.0-1.0","""event"",""trial"",""time""
""fullscreenenter"",""0"",""2033""
","
","
","""event"",""trial"",""time""
""fullscreenenter"",""0"",""2033""
","
","null","<p></p>","null","","","","","","","","","","","","","","","","","","","","","","",""
"","do_trial","210","883764","0.0-115.0-0.0","""event"",""trial"",""time""
""fullscreenenter"",""0"",""2033""
","
","
","""event"",""trial"",""time""
""fullscreenenter"",""0"",""2033""
","
","511.4000000001397","","","","","","","","51","0,0,1","1","forest","59","probe-179","0.13576880574172293","0.3415652877146765","0.5804084331613524","1","","","","","","","",""
"","html-keyboard-response","211","884767","0.0-115.0-1.0","""event"",""trial"",""time""
""fullscreenenter"",""0"",""2033""
","
","
","""event"",""trial"",""time""
""fullscreenenter"",""0"",""2033""
","
","null","<p></p>","null","","","","","","","","","","","","","","","","","","","","","","",""
"","do_trial","212","889626","0.0-116.0-0.0","""event"",""trial"",""time""
""fullscreenenter"",""0"",""2033""
","
","
","""event"",""trial"",""time""
""fullscreenenter"",""0"",""2033""
","
","314.10000000009313","","","","","","","","51","0,0,0","1","forest","60","probe-228","0.11207491300832093","0.3675742120228286","0.4883361724958418","0","","","","","","","",""
"","html-keyboard-response","213","890635","0.0-116.0-1.0","""event"",""trial"",""time""
""fullscreenenter"",""0"",""2033""
","
","
","""event"",""trial"",""time""
""fullscreenenter"",""0"",""2033""
","
","null","<p></p>","null","","","","","","","","","","","","","","","","","","","","","","",""
"","do_trial","214","895663","0.0-117.0-0.0","""event"",""trial"",""time""
""fullscreenenter"",""0"",""2033""
","
","
","""event"",""trial"",""time""
""fullscreenenter"",""0"",""2033""
","
","493.4000000001397","","","","","","","","51","0,1,1","1","forest","61","probe-10","0.07365567193682258","0.22322509638278518","0.47265322052146713","1","","","","","","","",""
"","html-keyboard-response","215","896678","0.0-117.0-1.0","""event"",""trial"",""time""
""fullscreenenter"",""0"",""2033""
","
","
","""event"",""trial"",""time""
""fullscreenenter"",""0"",""2033""
","
","null","<p></p>","null","","","","","","","","","","","","","","","","","","","","","","",""
"","do_trial","216","901647","0.0-118.0-0.0","""event"",""trial"",""time""
""fullscreenenter"",""0"",""2033""
","
","
","""event"",""trial"",""time""
""fullscreenenter"",""0"",""2033""
","
","425","","","","","","","","51","0,1,1","1","forest","62","probe-15","0.10028694587709833","0.30703952296779874","0.6155212921782652","1","","","","","","","",""
"","html-keyboard-response","217","902662","0.0-118.0-1.0","""event"",""trial"",""time""
""fullscreenenter"",""0"",""2033""
","
","
","""event"",""trial"",""time""
""fullscreenenter"",""0"",""2033""
","
","null","<p></p>","null","","","","","","","","","","","","","","","","","","","","","","",""
"","do_trial","218","908613","0.0-119.0-0.0","""event"",""trial"",""time""
""fullscreenenter"",""0"",""2033""
","
","
","""event"",""trial"",""time""
""fullscreenenter"",""0"",""2033""
","
","1413.3000000000466","","","","","","","","51","0,0,0","1","forest","63","probe-178","0.11319731789242023","0.31316501335354957","0.5395915243124908","0","","","","","","","",""
"","html-keyboard-response","219","909630","0.0-119.0-1.0","""event"",""trial"",""time""
""fullscreenenter"",""0"",""2033""
","
","
","""event"",""trial"",""time""
""fullscreenenter"",""0"",""2033""
","
","null","<p></p>","null","","","","","","","","","","","","","","","","","","","","","","",""
"","do_trial","220","914675","0.0-120.0-0.0","""event"",""trial"",""time""
""fullscreenenter"",""0"",""2033""
","
","
","""event"",""trial"",""time""
""fullscreenenter"",""0"",""2033""
","
","498.5999999998603","","","","","","","","51","0,0,1","1","forest","64","probe-91","0.1207134637680147","0.13201165529591724","0.6340548783576377","1","","","","","","","",""
"","html-keyboard-response","221","915678","0.0-120.0-1.0","""event"",""trial"",""time""
""fullscreenenter"",""0"",""2033""
","
","
","""event"",""trial"",""time""
""fullscreenenter"",""0"",""2033""
","
","null","<p></p>","null","","","","","","","","","","","","","","","","","","","","","","",""
"","do_trial","222","920512","0.0-121.0-0.0","""event"",""trial"",""time""
""fullscreenenter"",""0"",""2033""
","
","
","""event"",""trial"",""time""
""fullscreenenter"",""0"",""2033""
","
","292.10000000009313","","","","","","","","51","0,0,0","1","forest","65","probe-13","0.11900543285131825","0.249401184497791","0.583046729119565","0","","","","","","","",""
"","html-keyboard-response","223","921520","0.0-121.0-1.0","""event"",""trial"",""time""
""fullscreenenter"",""0"",""2033""
","
","
","""event"",""trial"",""time""
""fullscreenenter"",""0"",""2033""
","
","null","<p></p>","null","","","","","","","","","","","","","","","","","","","","","","",""
"","do_trial","224","926451","0.0-122.0-0.0","""event"",""trial"",""time""
""fullscreenenter"",""0"",""2033""
","
","
","""event"",""trial"",""time""
""fullscreenenter"",""0"",""2033""
","
","387.80000000004657","","","","","","","","51","0,1,1","1","forest","66","probe-45","0.05471123128466152","0.21409182645114044","0.593940012280271","1","","","","","","","",""
"","html-keyboard-response","225","927459","0.0-122.0-1.0","""event"",""trial"",""time""
""fullscreenenter"",""0"",""2033""
","
","
","""event"",""trial"",""time""
""fullscreenenter"",""0"",""2033""
","
","null","<p></p>","null","","","","","","","","","","","","","","","","","","","","","","",""
"","do_trial","226","932410","0.0-123.0-0.0","""event"",""trial"",""time""
""fullscreenenter"",""0"",""2033""
","
","
","""event"",""trial"",""time""
""fullscreenenter"",""0"",""2033""
","
","403.89999999990687","","","","","","","","51","1,0,0","1","forest","67","probe-161","0.13618894996024397","0.3422162054144997","0.5295684864151354","0","","","","","","","",""
"","html-keyboard-response","227","933416","0.0-123.0-1.0","""event"",""trial"",""time""
""fullscreenenter"",""0"",""2033""
","
","
","""event"",""trial"",""time""
""fullscreenenter"",""0"",""2033""
","
","null","<p></p>","null","","","","","","","","","","","","","","","","","","","","","","",""
"","do_trial","228","938330","0.0-124.0-0.0","""event"",""trial"",""time""
""fullscreenenter"",""0"",""2033""
","
","
","""event"",""trial"",""time""
""fullscreenenter"",""0"",""2033""
","
","346.0999999998603","","","","","","","","51","0,0,1","1","forest","68","probe-211","0.21782819428857245","0.3174485691345612","0.5984611028917577","1","","","","","","","",""
"","html-keyboard-response","229","939334","0.0-124.0-1.0","""event"",""trial"",""time""
""fullscreenenter"",""0"",""2033""
","
","
","""event"",""trial"",""time""
""fullscreenenter"",""0"",""2033""
","
","null","<p></p>","null","","","","","","","","","","","","","","","","","","","","","","",""
"","do_trial","230","944166","0.0-125.0-0.0","""event"",""trial"",""time""
""fullscreenenter"",""0"",""2033""
","
","
","""event"",""trial"",""time""
""fullscreenenter"",""0"",""2033""
","
","292.80000000004657","","","","","","","","51","0,0,1","1","forest","69","probe-196","0.19249973799830408","0.30424665400413625","0.6080879623357037","1","","","","","","","",""
"","html-keyboard-response","231","945172","0.0-125.0-1.0","""event"",""trial"",""time""
""fullscreenenter"",""0"",""2033""
","
","
","""event"",""trial"",""time""
""fullscreenenter"",""0"",""2033""
","
","null","<p></p>","null","","","","","","","","","","","","","","","","","","","","","","",""
"","do_bye","232","946693","0.0-126.0-0.0","""event"",""trial"",""time""
""fullscreenenter"",""0"",""2033""
","
","
","""event"",""trial"",""time""
""fullscreenenter"",""0"",""2033""
","
","null","","","","","","","","null","","","","","","","","","","","","","","","","",""
"","break","233","946707","0.0-126.0-1.0","""event"",""trial"",""time""
""fullscreenenter"",""0"",""2033""
","
","
","""event"",""trial"",""time""
""fullscreenenter"",""0"",""2033""
","
","14.199999999953434","<div class='center'><p>Time to take a quick break! You have 2 minutes to rest, but you can move on sooner if you'd like.</p><p> Press the <b>space bar</b> to continue.</p></div>","32","","","","","","","","","","","","","","","","","","","","","","",""
"","do_travel","234","955717","0.0-127.0-0.0","""event"",""trial"",""time""
""fullscreenenter"",""0"",""2033""
","
","
","""event"",""trial"",""time""
""fullscreenenter"",""0"",""2033""
","
","null","","","","","","","","null","","","","","","","","","","","","","","","","",""
"","do_welcome","235","959727","0.0-127.0-1.0","""event"",""trial"",""time""
""fullscreenenter"",""0"",""2033""
","
","
","""event"",""trial"",""time""
""fullscreenenter"",""0"",""2033""
","
","null","","","","","","","","null","","","","","","","","","","","","","","","","",""
"","do_trial","236","966027","0.0-128.0-0.0","""event"",""trial"",""time""
""fullscreenenter"",""0"",""2033""
","
","
","""event"",""trial"",""time""
""fullscreenenter"",""0"",""2033""
","
","1761.5999999998603","","","","","","","","50","0,0,1","2","highway","70","probe-97","0.0716082202310367","0.28022565604886734","1","0","","","","","","","",""
"","html-keyboard-response","237","967047","0.0-128.0-1.0","""event"",""trial"",""time""
""fullscreenenter"",""0"",""2033""
","
","
","""event"",""trial"",""time""
""fullscreenenter"",""0"",""2033""
","
","null","<p></p>","null","","","","","","","","","","","","","","","","","","","","","","",""
"","do_trial","238","972069","0.0-129.0-0.0","""event"",""trial"",""time""
""fullscreenenter"",""0"",""2033""
","
","
","""event"",""trial"",""time""
""fullscreenenter"",""0"",""2033""
","
","475.69999999995343","","","","","","","","49","0,1,1","2","highway","71","probe-174","0.07290164286786437","0.26840162803099976","1","0","","","","","","","",""
"","html-keyboard-response","239","973085","0.0-129.0-1.0","""event"",""trial"",""time""
""fullscreenenter"",""0"",""2033""
","
","
","""event"",""trial"",""time""
""fullscreenenter"",""0"",""2033""
","
","null","<p></p>","null","","","","","","","","","","","","","","","","","","","","","","",""
"","do_trial","240","977974","0.0-130.0-0.0","""event"",""trial"",""time""
""fullscreenenter"",""0"",""2033""
","
","
","""event"",""trial"",""time""
""fullscreenenter"",""0"",""2033""
","
","346.80000000004657","","","","","","","","51","0,0,1","2","highway","72","probe-06","0.12312335353163242","0.3508442446787848","0.8359878780971522","1","","","","","","","",""
"","html-keyboard-response","241","978983","0.0-130.0-1.0","""event"",""trial"",""time""
""fullscreenenter"",""0"",""2033""
","
","
","""event"",""trial"",""time""
""fullscreenenter"",""0"",""2033""
","
","null","<p></p>","null","","","","","","","","","","","","","","","","","","","","","","",""
"","do_trial","242","983656","0.0-131.0-0.0","""event"",""trial"",""time""
""fullscreenenter"",""0"",""2033""
","
","
","""event"",""trial"",""time""
""fullscreenenter"",""0"",""2033""
","
","136.30000000004657","","","","","","","","51","1,0,0","2","highway","73","probe-32","0.12809092896568477","0.36314732002132066","0.7448216738303398","0","","","","","","","",""
"","html-keyboard-response","243","984667","0.0-131.0-1.0","""event"",""trial"",""time""
""fullscreenenter"",""0"",""2033""
","
","
","""event"",""trial"",""time""
""fullscreenenter"",""0"",""2033""
","
","null","<p></p>","null","","","","","","","","","","","","","","","","","","","","","","",""
"","do_trial","244","989607","0.0-132.0-0.0","""event"",""trial"",""time""
""fullscreenenter"",""0"",""2033""
","
","
","""event"",""trial"",""time""
""fullscreenenter"",""0"",""2033""
","
","404.69999999995343","","","","","","","","50","0,0,1","2","highway","74","probe-81","0.13473782537855625","0.4881282057023421","0.7388148407954048","0","","","","","","","",""
"","html-keyboard-response","245","990620","0.0-132.0-1.0","""event"",""trial"",""time""
""fullscreenenter"",""0"",""2033""
","
","
","""event"",""trial"",""time""
""fullscreenenter"",""0"",""2033""
","
","null","<p></p>","null","","","","","","","","","","","","","","","","","","","","","","",""
"","do_trial","246","995580","0.0-133.0-0.0","""event"",""trial"",""time""
""fullscreenenter"",""0"",""2033""
","
","
","""event"",""trial"",""time""
""fullscreenenter"",""0"",""2033""
","
","427.10000000009313","","","","","","","","49","0,0,1","2","highway","75","probe-126","0.212413034703426","0.41041959360117647","0.653370650817489","0","","","","","","","",""
"","html-keyboard-response","247","996597","0.0-133.0-1.0","""event"",""trial"",""time""
""fullscreenenter"",""0"",""2033""
","
","
","""event"",""trial"",""time""
""fullscreenenter"",""0"",""2033""
","
","null","<p></p>","null","","","","","","","","","","","","","","","","","","","","","","",""
"","do_trial","248","1001599","0.0-134.0-0.0","""event"",""trial"",""time""
""fullscreenenter"",""0"",""2033""
","
","
","""event"",""trial"",""time""
""fullscreenenter"",""0"",""2033""
","
","456.89999999990687","","","","","","","","51","0,0,0","2","highway","76","probe-186","0.12005588117699066","0.27037254204404465","0.6159355241392525","0","","","","","","","",""
"","html-keyboard-response","249","1002610","0.0-134.0-1.0","""event"",""trial"",""time""
""fullscreenenter"",""0"",""2033""
","
","
","""event"",""trial"",""time""
""fullscreenenter"",""0"",""2033""
","
","null","<p></p>","null","","","","","","","","","","","","","","","","","","","","","","",""
"","do_trial","250","1007608","0.0-135.0-0.0","""event"",""trial"",""time""
""fullscreenenter"",""0"",""2033""
","
","
","""event"",""trial"",""time""
""fullscreenenter"",""0"",""2033""
","
","454.60000000009313","","","","","","","","50","0,0,0","2","highway","77","probe-173","0.12853535261877397","0.15966549219230752","0.610031225868521","0","","","","","","","",""
"","html-keyboard-response","251","1008618","0.0-135.0-1.0","""event"",""trial"",""time""
""fullscreenenter"",""0"",""2033""
","
","
","""event"",""trial"",""time""
""fullscreenenter"",""0"",""2033""
","
","null","<p></p>","null","","","","","","","","","","","","","","","","","","","","","","",""
"","do_trial","252","1013555","0.0-136.0-0.0","""event"",""trial"",""time""
""fullscreenenter"",""0"",""2033""
","
","
","""event"",""trial"",""time""
""fullscreenenter"",""0"",""2033""
","
","391","","","","","","","","49","0,0,1","2","highway","78","probe-131","0.08413420198798813","0.2389501832991638","0.6091108660317174","0","","","","","","","",""
"","html-keyboard-response","253","1014566","0.0-136.0-1.0","""event"",""trial"",""time""
""fullscreenenter"",""0"",""2033""
","
","
","""event"",""trial"",""time""
""fullscreenenter"",""0"",""2033""
","
","null","<p></p>","null","","","","","","","","","","","","","","","","","","","","","","",""
"","do_trial","254","1019426","0.0-137.0-0.0","""event"",""trial"",""time""
""fullscreenenter"",""0"",""2033""
","
","
","""event"",""trial"",""time""
""fullscreenenter"",""0"",""2033""
","
","309.0999999998603","","","","","","","","51","0,0,0","2","highway","79","probe-205","0.08450737603092502","0.2655917085899972","0.5145457590483868","0","","","","","","","",""
"","html-keyboard-response","255","1020429","0.0-137.0-1.0","""event"",""trial"",""time""
""fullscreenenter"",""0"",""2033""
","
","
","""event"",""trial"",""time""
""fullscreenenter"",""0"",""2033""
","
","null","<p></p>","null","","","","","","","","","","","","","","","","","","","","","","",""
"","do_trial","256","1025072","0.0-138.0-0.0","""event"",""trial"",""time""
""fullscreenenter"",""0"",""2033""
","
","
","""event"",""trial"",""time""
""fullscreenenter"",""0"",""2033""
","
","92.60000000009313","","","","","","","","50","1,0,0","2","highway","80","probe-21","0.271673903521196","0.36227950693141353","0.4861916639985522","0","","","","","","","",""
"","html-keyboard-response","257","1026085","0.0-138.0-1.0","""event"",""trial"",""time""
""fullscreenenter"",""0"",""2033""
","
","
","""event"",""trial"",""time""
""fullscreenenter"",""0"",""2033""
","
","null","<p></p>","null","","","","","","","","","","","","","","","","","","","","","","",""
"","do_trial","258","1031001","0.0-139.0-0.0","""event"",""trial"",""time""
""fullscreenenter"",""0"",""2033""
","
","
","""event"",""trial"",""time""
""fullscreenenter"",""0"",""2033""
","
","375","","","","","","","","49","1,0,1","2","highway","81","probe-108","0.325205864229047","0.37287141384683703","0.4702108084803382","1","","","","","","","",""
"","html-keyboard-response","259","1032004","0.0-139.0-1.0","""event"",""trial"",""time""
""fullscreenenter"",""0"",""2033""
","
","
","""event"",""trial"",""time""
""fullscreenenter"",""0"",""2033""
","
","null","<p></p>","null","","","","","","","","","","","","","","","","","","","","","","",""
"","do_trial","260","1036847","0.0-140.0-0.0","""event"",""trial"",""time""
""fullscreenenter"",""0"",""2033""
","
","
","""event"",""trial"",""time""
""fullscreenenter"",""0"",""2033""
","
","306.60000000009313","","","","","","","","51","0,1,1","2","highway","82","probe-151","0.4449626685250773","0.32180113080039546","0.17897718701790694","1","","","","","","","",""
"","html-keyboard-response","261","1037857","0.0-140.0-1.0","""event"",""trial"",""time""
""fullscreenenter"",""0"",""2033""
","
","
","""event"",""trial"",""time""
