"success","trial_type","trial_index","time_elapsed","internal_node_id","rt","stimulus","key_press","subject_id","response","choice_outcomes","context_n","context_img_id","trial_n","probe_img_id","pR_red","pR_white","pR_black","outcome","is_valid","image_to_show","probed_trial","probed_context","correct","context_id"
"true","fullscreen","0","3263","0.0-0.0","","","","","","","","","","","","","","","","","","","",""
"","pavlovia","1","3266","0.0-1.0","","","","","","","","","","","","","","","","","","","",""
"","html-keyboard-response","2","14416","0.0-2.0","11149.800000011921","<div class='center'><p>Welcome! This experiment will last ~1 hour. In this experiment, you are the head captain of a pirate ship traveling around the world to different places. You will complete several different tasks during this experiment. Here is an overview of these tasks:</p><br><p>1. Tutorial and quiz</p><p>2. Pick a pirate game in 6 different places</p><p>3. Pick a pirate game and memory game</p><p>4. Final questions and payment</p><br><p>If you complete the entire experiment, you will receive $15 and a possible bonus payment.</p><p><b>[Press the space bar to begin the tutorial]</b></p></div>","32","6116876a64aadf8649c181a8","","","","","","","","","","","","","","","",""
"","html-keyboard-response","3","21871","0.0-3.0","7454.70000000298","<div class='center'><p>You are the head captain of a pirate ship.</p><p> Your pirates rob other ships as they leave the marketplace port.</p> These ships have just sold all their goods at the marketplace, so they have lots and lots of gold on them.</p><p><img src='run_exp/static/images/ship_center.png' height='400'></p><p><b>[Press the space bar to continue]</b></p></div>","32","","","","","","","","","","","","","","","","",""
"","html-keyboard-response","4","30032","0.0-4.0","8159.79999999702","<div class='center'><p>As the head captain, you do not have to rob any ships yourself.</p><p>You get to choose which pirate you want to rob the next ship. </p><p>If they are successful at robbing the ship, then you will get gold coins.</p><p> If they are not successful, then you will get no gold coins.</p><p> The more coins you collect, the more bonus money you will win. So, choose your pirate wisely.</p><p><img src='run_exp/static/images/goal.png' height='400'></p><p><b>[Press the space bar to continue]</b></p><div>","32","","","","","","","","","","","","","","","","",""
"","html-keyboard-response","5","41207","0.0-5.0","11175","<div class='center'><p>Even the most skilled pirate will not be able to rob EVERY ship.</p><p> Some ships will have very strong defenses against attacks.</p><p> For example, blue beard, here,  is very good at robbing ships.</p><p> You can press the <b>‘1’</b> button on the keyboard to choose him.</p><p> Try choosing him 10 times to see how often he is successful at robbing ships. </p><p><img src='run_exp/static/images/blue.png' height='500'></p></div>","49","","","","","","","","","","","","","","","","",""
"","html-keyboard-response","6","42721","0.0-6.0","null","<br><br><br><br><p><img src='run_exp/static/images/blue_win.png' height='500'></p>","null","","","","","","","","","","","","","","","","",""
"","html-keyboard-response","7","44207","0.0-7.0","1485.7999999970198","<br><br><br><br><p><img src='run_exp/static/images/blue.png' height='500'></p>","49","","","","","","","","","","","","","","","","",""
"","html-keyboard-response","8","45713","0.0-8.0","null","<br><br><br><br><p><img src='run_exp/static/images/blue_win.png' height='500'></p>","null","","","","","","","","","","","","","","","","",""
"","html-keyboard-response","9","46079","0.0-9.0","365.09999999403954","<br><br><br><br><p><img src='run_exp/static/images/blue.png' height='500'></p>","49","","","","","","","","","","","","","","","","",""
"","html-keyboard-response","10","47593","0.0-10.0","null","<br><br><br><br><p><img src='run_exp/static/images/blue_win.png' height='500'></p>","null","","","","","","","","","","","","","","","","",""
"","html-keyboard-response","11","47816","0.0-11.0","221.40000000596046","<br><br><br><br><p><img src='run_exp/static/images/blue.png' height='500'></p>","49","","","","","","","","","","","","","","","","",""
"","html-keyboard-response","12","49333","0.0-12.0","null","<br><br><br><br><p><img src='run_exp/static/images/blue_no_win.png' height='500'></p>","null","","","","","","","","","","","","","","","","",""
"","html-keyboard-response","13","49352","0.0-13.0","18.100000008940697","<br><br><br><br><p><img src='run_exp/static/images/blue.png' height='500'></p>","49","","","","","","","","","","","","","","","","",""
"","html-keyboard-response","14","50860","0.0-14.0","null","<br><br><br><br><p><img src='run_exp/static/images/blue_win.png' height='500'></p>","null","","","","","","","","","","","","","","","","",""
"","html-keyboard-response","15","51064","0.0-15.0","203","<br><br><br><br><p><img src='run_exp/static/images/blue.png' height='500'></p>","49","","","","","","","","","","","","","","","","",""
"","html-keyboard-response","16","52573","0.0-16.0","null","<br><br><br><br><p><img src='run_exp/static/images/blue_win.png' height='500'></p>","null","","","","","","","","","","","","","","","","",""
"","html-keyboard-response","17","53112","0.0-17.0","537.7999999970198","<br><br><br><br><p><img src='run_exp/static/images/blue.png' height='500'></p>","49","","","","","","","","","","","","","","","","",""
"","html-keyboard-response","18","54620","0.0-18.0","null","<br><br><br><br><p><img src='run_exp/static/images/blue_win.png' height='500'></p>","null","","","","","","","","","","","","","","","","",""
"","html-keyboard-response","19","54856","0.0-19.0","236","<br><br><br><br><p><img src='run_exp/static/images/blue.png' height='500'></p>","49","","","","","","","","","","","","","","","","",""
"","html-keyboard-response","20","56367","0.0-20.0","null","<br><br><br><br><p><img src='run_exp/static/images/blue_no_win.png' height='500'></p>","null","","","","","","","","","","","","","","","","",""
"","html-keyboard-response","21","57679","0.0-21.0","1311.4000000059605","<br><br><br><br><p><img src='run_exp/static/images/blue.png' height='500'></p>","49","","","","","","","","","","","","","","","","",""
"","html-keyboard-response","22","59185","0.0-22.0","null","<br><br><br><br><p><img src='run_exp/static/images/blue_win.png' height='500'></p>","null","","","","","","","","","","","","","","","","",""
"","html-keyboard-response","23","60768","0.0-23.0","1582.300000011921","<br><br><br><br><p><img src='run_exp/static/images/blue.png' height='500'></p>","49","","","","","","","","","","","","","","","","",""
"","html-keyboard-response","24","62270","0.0-24.0","null","<br><br><br><br><p><img src='run_exp/static/images/blue_win.png' height='500'></p>","null","","","","","","","","","","","","","","","","",""
"","html-keyboard-response","25","64976","0.0-25.0","2704.9000000059605","<div class='center'><p> See, he was successful at robbing the ships most of the time but not every time. </p><p><b>[Press the space bar to continue]</b></p></div>","32","","","","","","","","","","","","","","","","",""
"","html-keyboard-response","26","70424","0.0-26.0","5446.79999999702","<div class='center'><p>In the game, you will get to choose which of three pirates you want to rob the next ship. <p>Press the <b>‘1’</b> button on your keyboard to pick the pirate with the red beard.</p><p> Press <b>‘2’</b> to pick the pirate with the white beard.</p><p> Press <b>‘3’</b> to pick the pirate with the black beard.</p><p>Try picking a pirate now!</p><p><img src='run_exp/static/images/all_pirates.png' height='500'></p></div>","51","","","","","","","","","","","","","","","","",""
"","html-keyboard-response","27","72174","0.0-27.0-0.0","1747.5999999940395","<div class='center'><p>This pirate was successful at robbing the ship!</p><p><img src='run_exp/static/images/black_win.png' height='500'></p><p><b>[Press the space bar to continue]</b></p></div>","32","","","","","","","","","","","","","","","","",""
"","html-keyboard-response","28","73215","0.0-27.0-1.0","1040.5","<div class='center'><p>Now try choosing another</p><p><img src='run_exp/static/images/all_pirates.png' height='500'></p></div>","50","","","","","","","","","","","","","","","","",""
"","html-keyboard-response","29","74152","0.0-28.0-0.0","936.7999999970198","<div class='center'><p>This pirate was not successful at robbing the ship!</p><p><img src='run_exp/static/images/white_no_win.png' height='500'></p><p><b>[Press the space bar to continue]</b></p></div>","32","","","","","","","","","","","","","","","","",""
"","html-keyboard-response","30","77008","0.0-29.0-0.0","2854.5","<div class='center'><p>You’ll stop at these 6 places on your journey.</p><p><img src='run_exp/static/images/all_contexts.png' height='500'></p><p><b>[Press the space bar to continue]</b></p></div>","32","","","","","","","","","","","","","","","","",""
"","html-keyboard-response","31","81136","0.0-29.0-1.0","4127.70000000298","<div class='center'><p>How good a pirate is at robbing ships will depend on the current place.</p><p> Some pirates will have been to the place before, and will have more experience robbing ships there.</p><p>So, they will be more successful at stealing gold and bringing it back to you.</p><p><b>[Press the space bar to continue]</b></p></div>","32","","","","","","","","","","","","","","","","",""
"","html-keyboard-response","32","89584","0.0-29.0-2.0","8447.29999999702","<div class='center'><p>How successful a pirate is at robbing ships can also change in a place.<p> Ships may hear about the pirates coming and will improve their defenses. This may make it more difficult to rob them.</p><p> Ships may also grow lazy and lower their defenses. This may make it easier to rob them.</p><br><p>Things are always changing on the high seas! So, try your best to pay attention!</p><p><img src='run_exp/static/images/contingency.png' height='500'></p><p><b>[Press the space bar to continue]</b></p></div>","32","","","","","","","","","","","","","","","","",""
"","html-keyboard-response","33","114512","0.0-29.0-3.0","24927.30000001192","<div class='center'><p>Once you choose a pirate to rob a ship, you’ll be shown the ship they are robbing.</p><p>The ship will have a picture of the item they sold at the marketplace.</p><p> Try your best to remember the ship and where you saw the ship.</p><p> You’ll have to remember this for later, and remembering this correctly will help you win more bonus money!</p><p>You can remember the ship by remembering the item they sold at the marketplace</p><p>A helpful strategy is to try to come up with a story of the chosen pirate and ship’s item interacting with the scene.</p><p> For example, a ship might have sold travel mugs and you could imagine red beard walking through the city with a travel mug. </p><p>Or imagine an apple falling from a tree into white beard's hands in the forest.</p><p><img src='run_exp/static/images/example_probe.png' height='500'></p><p><b>[Press the space bar to continue]</b></p></div>","32","","","","","","","","","","","","","","","","",""
"","html-keyboard-response","34","118334","0.0-29.0-4.0","3822.5","<div class='center'><p>If you don’t make your choice fast enough, you’ll have to wait a few seconds before you can make another one. </p><p>You can’t win more gold. You just have to sit and wait.</p><p><img src='run_exp/static/images/hurry_up.png' height='500'></p><p><b>[Press the space bar to continue]</b></p></div>","32","","","","","","","","","","","","","","","","",""
"","html-keyboard-response","35","132590","0.0-29.0-5.0","14255.5","<div class='center'><p>Again, you have two important things to do: </p><b><p> 1. Pick the pirate who you think will be most successful at robbing the next ship.</p></b><b><p> 2. Remember where a pirate robbed a ship.</p> </b><p>Both are important in determining how much bonus money you’ll win.</p><br><p>Let’s try a practice game. The game will start by showing you the pirates. First pick a pirate using the <b> 1, 2, 3 </b> buttons on your keyboard. When you are shown a ship, try to remember the place you’re in by making up a story.</p><p> You only have 3 seconds to pick a pirate, so please make a choice quickly! If you are too slow, you’ll have to wait a bit during the time out.</p><p> Don’t feel rushed, but please do try to make a choice every time.</p><p>How good a pirate is at robbing a ship will change depending on the place they are in and how good the defenses are of the ship.</p> <p>This is just a practice game, so you’re not playing for money. </p><p>You’ll receive a bag which may or may not contain gold coins.</p><p> In the real game, though, you’ll be able to see whether or not you received the gold coins.</p><p> Good luck, remember press <b>'1'</b> to choose red beard, <b>'2'</b> to choose white beard, and <b>'3'</b> to choose black beard</p><p><b>[Press the space bar to begin the practice game]</b></p></div>","32","","","","","","","","","","","","","","","","",""
"","do_trial_prac","36","138293","0.0-29.0-6.0","1187","","","","49","","","","","","","","","","","","","","",""
"","do_trial_prac","37","144385","0.0-29.0-7.0","1571.8999999910593","","","","51","","","","","","","","","","","","","","",""
"","do_trial_prac","38","149357","0.0-29.0-8.0","458.69999998807907","","","","50","","","","","","","","","","","","","","",""
"","do_trial_prac","39","154820","0.0-29.0-9.0","948.6000000089407","","","","49","","","","","","","","","","","","","","",""
"","do_trial_prac","40","159818","0.0-29.0-10.0","477.19999998807907","","","","51","","","","","","","","","","","","","","",""
"","html-keyboard-response","41","162247","0.0-29.0-11.0","2426.7999999970198","<div class='center'><p>Great job on the practice game!</p><p> Now, you will be asked you some true or false questions to make sure you really understand the rules of the game.</p><p> Press <b>'1'</b> on the keyboard for true and press <b>'2'</b> for false.</p><p><b>[Press the space bar to begin the quiz]</b></p></div>","32","","","","","","","","","","","","","","","","",""
"","html-keyboard-response","42","166879","0.0-29.0-12.0","4631.699999988079","<div class='center'><p>You win bonus money by making choices as fast as possible.</p><p>Press 1 for true and press  2 for false.</p></div>","50","","","","","","","","","","","","","","","","",""
"","html-keyboard-response","43","167711","0.0-30.0-0.0","831.0999999940395","<br><br><br><br><p>That's correct!</p> <p><b>[press the space bar to continue with the quiz]</b></p>","32","","","","","","","","","","","","","","","","",""
"","html-keyboard-response","44","171415","0.0-30.0-1.0","3702.5999999940395","<div class='center'><p>You press the <b>‘3’</b> button on the keyboard to choose the red bearded pirate? </p><p>Press 1 for true and press  2 for false.</p></div>","50","","","","","","","","","","","","","","","","",""
"","html-keyboard-response","45","172166","0.0-31.0-0.0","750","<br><br><br><br><p>That's correct!</p> <p><b>[press the space bar to continue with the quiz]</b></p>","32","","","","","","","","","","","","","","","","",""
"","html-keyboard-response","46","173990","0.0-31.0-1.0","1823.8999999910593","<div class='center'><p>A pirate will always be equally successful at robbing ships in each place</p><p>Press 1 for true and press  2 for false.</p></div>","50","","","","","","","","","","","","","","","","",""
"","html-keyboard-response","47","174518","0.0-32.0-0.0","527.5","<br><br><br><br><p>That's correct!</p> <p><b>[press the space bar to continue with the quiz]</b></p>","32","","","","","","","","","","","","","","","","",""
"","html-keyboard-response","48","176830","0.0-32.0-1.0","2311.3999999910593","<div class='center'><p>You should remember the place where a pirate robbed a ship.</p><p>Press 1 for true and press  2 for false.</p></div>","49","","","","","","","","","","","","","","","","",""
"","html-keyboard-response","49","177696","0.0-33.0-0.0","858.5","<br><br><br><br><p>That's correct!</p> <p><b>[press the space bar to continue with the quiz]</b></p>","32","","","","","","","","","","","","","","","","",""
"","html-keyboard-response","50","178967","0.0-34.0-0.0","1270.1000000089407","<br><br><br><br><p>Good job! You’re now ready to move on to the real game!</p> <p><br>[press the space bar to begin!]</br></p>","32","","","","","","","","","","","","","","","","",""
"","do_welcome","51","180477","0.0-35.0-0.0","null","","","","null","","","","","","","","","","","","","","",""
"","do_trial","52","187737","0.0-36.0-0.0","1715.2000000029802","","","","50","1,0,0","0","countryside","0","probe-222","1","0.4","0.1","0","","","","","",""
"","do_trial","53","194631","0.0-37.0-0.0","1357.0999999940395","","","","51","1,0,0","0","countryside","1","probe-134","1","0.4361017078957886","0.17328233663042894","0","","","","","",""
"","do_trial","54","201297","0.0-38.0-0.0","1132","","","","49","1,0,0","0","countryside","2","probe-12","1","0.4428981040814231","0.10956223299268787","1","","","","","",""
"","do_trial","55","207181","0.0-39.0-0.0","355.1000000089407","","","","50","1,0,0","0","countryside","3","probe-24","1","0.5990021864132103","0.10384537558798225","0","","","","","",""
"","do_trial","56","214232","0.0-40.0-0.0","1516.9000000059605","","","","49","1,0,0","0","countryside","4","probe-235","0.9067191989018801","0.5547372743952379","0.11898235775038711","1","","","","","",""
"","do_trial","57","220063","0.0-41.0-0.0","299.20000000298023","","","","51","1,0,0","0","countryside","5","probe-30","0.8390126209787679","0.6370560356405184","0.15026918226300512","0","","","","","",""
"","do_trial","58","226430","0.0-42.0-0.0","831.7999999970198","","","","51","1,0,1","0","countryside","6","probe-163","0.87455190526952","0.4437723673111977","0.129032957185332","1","","","","","",""
"","do_trial","59","232485","0.0-43.0-0.0","null","","","","null","1,0,0","0","countryside","7","probe-35","0.7861271016890057","0.36878515795294065","0.22967094738684585","","","","","","",""
"","do_trial","60","238521","0.0-44.0-0.0","500.8999999910593","","","","50","1,0,0","0","countryside","8","probe-102","0.8330511611171018","0.4177787003653865","0.09163879428475209","0","","","","","",""
"","do_trial","61","245629","0.0-45.0-0.0","1567.9000000059605","","","","51","1,0,0","0","countryside","9","probe-86","0.8860794616510239","0.3848134540069156","0.06867076887150063","0","","","","","",""
"","do_trial","62","252651","0.0-46.0-0.0","1493.5","","","","49","1,1,0","0","countryside","10","probe-116","0.6165388037295128","0.5890121526768448","0.07810507035742521","1","","","","","",""
"","do_trial","63","258712","0.0-47.0-0.0","518.5999999940395","","","","50","1,1,0","0","countryside","11","probe-200","0.42504372034201654","0.5681063154167286","0.09085951168505554","1","","","","","",""
"","do_trial","64","264861","0.0-48.0-0.0","617.2000000029802","","","","49","1,1,0","0","countryside","12","probe-88","0.19779276768864898","0.7730464670939181","0.14764556086964528","1","","","","","",""
"","do_trial","65","270867","0.0-49.0-0.0","469.59999999403954","","","","51","0,1,1","0","countryside","13","probe-212","0.1665884422740266","0.9043975927781219","0.32548034747476295","1","","","","","",""
"","do_trial","66","277285","0.0-50.0-0.0","878.7000000029802","","","","51","0,0,0","0","countryside","14","probe-89","0.15080280896750362","0.8789559935313535","0.3215753371076597","0","","","","","",""
"","do_trial","67","283901","0.0-51.0-0.0","1075.9000000059605","","","","49","0,1,1","0","countryside","15","probe-14","0.2028563842780442","0.9308290545699882","0.3780681264426562","0","","","","","",""
"","do_trial","68","289751","0.0-52.0-0.0","317.59999999403954","","","","49","0,1,0","0","countryside","16","probe-147","0.21842977164307997","0.8526272079829323","0.4424369578854055","0","","","","","",""
"","do_trial","69","295747","0.0-53.0-0.0","457.1000000089407","","","","50","0,1,0","0","countryside","17","probe-213","0.20641163171131957","0.7925229696197984","0.5627322585965132","1","","","","","",""
"","do_trial","70","303208","0.0-54.0-0.0","1926.3999999910593","","","","51","0,1,1","0","countryside","18","probe-111","0.2510476961965634","0.7841151138709245","0.662831904542686","1","","","","","",""
"","do_trial","71","309160","0.0-55.0-0.0","412.59999999403954","","","","49","0,0,1","0","countryside","19","probe-20","0.21790663406959404","0.7117437653196246","0.5440734010088945","0","","","","","",""
"","do_trial","72","315064","0.0-56.0-0.0","365.79999999701977","","","","50","0,1,1","0","countryside","20","probe-108","0.14035015685825034","0.9102421946756899","0.5185914342398042","1","","","","","",""
"","do_trial","73","321006","0.0-57.0-0.0","407.40000000596046","","","","49","1,1,0","0","countryside","21","probe-153","0.2158479001490131","0.8562156322377241","0.5011948725690195","1","","","","","",""
"","do_trial","74","328264","0.0-58.0-0.0","1724.7999999970198","","","","51","0,1,1","0","countryside","22","probe-57","0.1662637407236153","0.9090753263288214","0.5029638810356084","1","","","","","",""
"","do_trial","75","334143","0.0-59.0-0.0","336.5","","","","49","0,1,0","0","countryside","23","probe-171","0.16015715187947746","0.8749427639728603","0.5245041010023648","0","","","","","",""
"","do_trial","76","340209","0.0-60.0-0.0","522.8999999910593","","","","50","0,1,1","0","countryside","24","probe-11","0.09631760247553885","0.9307123853089168","0.45420990181030874","1","","","","","",""
"","do_trial","77","346837","0.0-61.0-0.0","1080.300000011921","","","","50","0,1,0","0","countryside","25","probe-73","0.16451730682686858","0.9084054114416745","0.4110304493130357","1","","","","","",""
"","do_trial","78","352596","0.0-62.0-0.0","212.29999999701977","","","","49","1,1,0","0","countryside","26","probe-85","0.1994417395740043","0.8781114459892776","0.37721020429505125","1","","","","","",""
"","do_trial","79","358563","0.0-63.0-0.0","426.5","","","","51","1,1,0","0","countryside","27","probe-64","0.24762429108943976","0.8078770281424972","0.3489945419085732","0","","","","","",""
"","do_trial","80","364421","0.0-64.0-0.0","327.70000000298023","","","","51","0,1,0","0","countryside","28","probe-55","0.2149970083126285","0.8418412004242732","0.2983688592152418","0","","","","","",""
"","do_trial","81","370709","0.0-65.0-0.0","759.3999999910593","","","","49","1,1,1","0","countryside","29","probe-143","0.19714927679892286","0.9084730999885069","0.3268411633935422","1","","","","","",""
"","do_trial","82","376714","0.0-66.0-0.0","467.09999999403954","","","","50","0,1,0","0","countryside","30","probe-32","0.12175758919372463","0.8904203640051388","0.3478218157365483","1","","","","","",""
"","do_trial","83","382692","0.0-67.0-0.0","440.09999999403954","","","","49","1,1,1","0","countryside","31","probe-197","0.1522075693578269","0.7403937900545676","0.3608971488275898","1","","","","","",""
"","do_trial","84","389076","0.0-68.0-0.0","846.1999999880791","","","","51","0,1,0","0","countryside","32","probe-51","0.190842113365572","0.7729898043226521","0.5115296465914232","0","","","","","",""
"","do_trial","85","395271","0.0-69.0-0.0","650.1000000089407","","","","50","1,1,1","0","countryside","33","probe-195","0.17640543558984995","0.7089862477264539","0.5424156543976301","1","","","","","",""
"","do_trial","86","401782","0.0-70.0-0.0","965.6000000089407","","","","50","0,1,1","0","countryside","34","probe-185","0.12921045421377828","0.8329353256114481","0.487087440934299","1","","","","","",""
"","do_trial","87","408709","0.0-71.0-0.0","1389","","","","49","0,1,0","0","countryside","35","probe-218","0.22118636749944556","0.7414085912584687","0.48367350813175014","0","","","","","",""
"","do_trial","88","414763","0.0-72.0-0.0","509.29999999701977","","","","49","0,1,1","0","countryside","36","probe-114","0.2631716270371509","0.7410844235375832","0.3540258295603033","0","","","","","",""
"","do_trial","89","420836","0.0-73.0-0.0","542.7000000029802","","","","50","1,0,1","0","countryside","37","probe-126","0.33689001251621487","0.7545491093505277","0.3962843866809272","0","","","","","",""
"","do_trial","90","427346","0.0-74.0-0.0","973.5","","","","51","0,1,0","0","countryside","38","probe-119","0.2374229601800195","0.5753953564274771","0.3317869856540837","0","","","","","",""
"","do_trial","91","433686","0.0-75.0-0.0","797.2999999970198","","","","50","0,1,0","0","countryside","39","probe-94","0.1261981986782751","0.6918903194588905","0.4587193354713861","1","","","","","",""
"","do_bye","92","435195","0.0-76.0-0.0","null","","","","null","","","","","","","","","","","","","","",""
"","do_travel","93","441211","0.0-77.0-0.0","null","","","","null","","","","","","","","","","","","","","",""
"","do_welcome","94","442728","0.0-77.0-1.0","null","","","","null","","","","","","","","","","","","","","",""
"","do_trial","95","448769","0.0-78.0-0.0","null","","","","null","1,1,0","1","highway","40","probe-95","0.2020907594410417","1","0.5640860934336245","","","","","","",""
"","do_trial","96","455744","0.0-79.0-0.0","1444.2000000029802","","","","49","0,1,0","1","highway","41","probe-83","0.2574170528127163","1","0.40868615280910225","0","","","","","",""
"","do_trial","97","463417","0.0-80.0-0.0","2134.7999999970198","","","","50","0,1,1","1","highway","42","probe-33","0.30117515213989365","1","0.34089222399372676","1","","","","","",""
"","do_trial","98","469264","0.0-81.0-0.0","310.29999999701977","","","","51","1,1,0","1","highway","43","probe-131","0.25744854320343236","1","0.4431040879914888","0","","","","","",""
"","do_trial","99","475215","0.0-82.0-0.0","414.1000000089407","","","","49","0,1,0","1","highway","44","probe-23","0.1028171502038918","0.90118245171593","0.4227113786652469","0","","","","","",""
"","do_trial","100","481027","0.0-83.0-0.0","269.8999999910593","","","","50","0,1,1","1","highway","45","probe-70","0.0754816066012332","0.8763001101242673","0.5628434656012222","1","","","","","",""
"","do_trial","101","486838","0.0-84.0-0.0","284.59999999403954","","","","49","1,1,1","1","highway","46","probe-137","0.09453749961428215","0.7404760710128612","0.6189432518136722","1","","","","","",""
"","do_trial","102","492682","0.0-85.0-0.0","296.70000000298023","","","","50","0,1,1","1","highway","47","probe-182","0.10860734444355132","0.7951081017123213","0.49455286311290475","1","","","","","",""
"","do_trial","103","498423","0.0-86.0-0.0","198.09999999403954","","","","51","0,1,0","1","highway","48","probe-02","0.1552041941591383","0.698092414231669","0.45634075684134123","0","","","","","",""
"","do_trial","104","505492","0.0-87.0-0.0","1525.2999999970198","","","","49","0,0,0","1","highway","49","probe-29","0.31086636657593636","0.845474784815272","0.35619174417109734","0","","","","","",""
"","do_trial","105","511707","0.0-88.0-0.0","672.2999999970198","","","","50","1,0,1","1","highway","50","probe-181","0.6076050375367253","0.4752257063141061","0.3636498162009505","0","","","","","",""
"","do_trial","106","517671","0.0-89.0-0.0","433.79999999701977","","","","51","1,0,0","1","highway","51","probe-82","0.7465501851682579","0.28703617089276556","0.4135759571065701","0","","","","","",""
"","do_trial","107","524281","0.0-90.0-0.0","1072.2999999970198","","","","49","0,0,1","1","highway","52","probe-180","0.8390833771547083","0.15771400980618147","0.42987452136079085","0","","","","","",""
"","do_trial","108","531778","0.0-91.0-0.0","1962.8999999910593","","","","50","0,0,0","1","highway","53","probe-186","0.6965600056355301","0.17607387085299536","0.5271566941232338","0","","","","","",""
"","do_trial","109","538241","0.0-92.0-0.0","930.3999999910593","","","","51","1,0,0","1","highway","54","probe-90","0.6699753819204063","0.12303822098494721","0.4356324215432853","0","","","","","",""
"","do_trial","110","546711","0.0-93.0-0.0","2929.800000011921","","","","49","0,0,0","1","highway","55","probe-148","0.43806873194441937","0.11044823910190905","0.3031336564478043","0","","","","","",""
"","do_trial","111","554774","0.0-94.0-0.0","2520","","","","50","1,0,0","1","highway","56","probe-204","0.7072232256366209","0.13658550959746518","0.27617633865387414","0","","","","","",""
"","do_trial","112","560769","0.0-95.0-0.0","459.40000000596046","","","","49","1,1,0","1","highway","57","probe-161","0.7184572120490165","0.22163697970057405","0.20078963643146877","1","","","","","",""
"","do_trial","113","566722","0.0-96.0-0.0","405.3999999910593","","","","50","1,1,0","1","highway","58","probe-152","0.8474252439490703","0.17821898757383395","0.1794512588873751","1","","","","","",""
"","do_trial","114","574649","0.0-97.0-0.0","2376.3999999910593","","","","49","0,1,0","1","highway","59","probe-156","0.701704916319963","0.13435731548629296","0.4107492484397609","0","","","","","",""
"","do_trial","115","580743","0.0-98.0-0.0","553.2999999970198","","","","51","0,0,0","1","highway","60","probe-233","0.7563502281131088","0.06316189520643971","0.3988716935048325","0","","","","","",""
"","do_trial","116","586789","0.0-99.0-0.0","507","","","","50","1,1,1","1","highway","61","probe-190","0.7898483387300308","0.06826370136200566","0.44619101448308157","1","","","","","",""
"","do_trial","117","593428","0.0-100.0-0.0","1097.0999999940395","","","","49","0,1,0","1","highway","62","probe-158","0.7668440345061638","0.21406559139678877","0.39889499003533546","0","","","","","",""
"","do_trial","118","599533","0.0-101.0-0.0","566.4000000059605","","","","51","1,0,0","1","highway","63","probe-92","0.7040352208702217","0.2204796234447869","0.27800611713025947","0","","","","","",""
"","do_trial","119","606089","0.0-102.0-0.0","1009.7999999970198","","","","49","0,0,0","1","highway","64","probe-123","0.5511269439997223","0.125176165793113","0.4032999855347849","0","","","","","",""
"","do_trial","120","613086","0.0-103.0-0.0","1452.7999999970198","","","","50","1,0,0","1","highway","65","probe-219","0.5807074049088755","0.06010117989623438","0.26088179896539504","0","","","","","",""
"","do_trial","121","618906","0.0-104.0-0.0","272.40000000596046","","","","49","1,1,0","1","highway","66","probe-194","0.6204618624663617","0.1602630645408555","0.2464594093848538","1","","","","","",""
"","do_trial","122","624820","0.0-105.0-0.0","384.09999999403954","","","","50","0,0,1","1","highway","67","probe-155","0.5681815178458228","0.09808977593947196","0.30546526828627285","0","","","","","",""
"","do_trial","123","630583","0.0-106.0-0.0","229.8999999910593","","","","51","1,0,0","1","highway","68","probe-93","0.7394464831215869","0.1215105444633998","0.4644917219323398","0","","","","","",""
"","do_trial","124","637255","0.0-107.0-0.0","1129","","","","50","1,0,1","1","highway","69","probe-231","0.6932578693615744","0.2628454061525124","0.5040344604094604","0","","","","","",""
"","do_trial","125","643440","0.0-108.0-0.0","649.5999999940395","","","","49","0,0,1","1","highway","70","probe-26","0.8857613215186727","0.10906003127255298","0.36460376433018515","0","","","","","",""
"","do_trial","126","649888","0.0-109.0-0.0","905.3999999910593","","","","51","1,0,1","1","highway","71","probe-145","0.8593536456212352","0.05487929182401317","0.28332746018215493","1","","","","","",""
"","do_trial","127","656176","0.0-110.0-0.0","751.7999999970198","","","","49","1,0,1","1","highway","72","probe-201","0.8895889319792089","0.1903302840161703","0.3554299333497437","1","","","","","",""
"","do_trial","128","661965","0.0-111.0-0.0","257.3999999910593","","","","50","1,0,0","1","highway","73","probe-169","0.7822622024232767","0.15473491598488529","0.38948976685769604","0","","","","","",""
"","do_trial","129","667767","0.0-112.0-0.0","269.70000000298023","","","","51","0,0,0","1","highway","74","probe-67","0.7703185070146136","0.14642587700822754","0.3874502923757552","0","","","","","",""
"","do_trial","130","673690","0.0-113.0-0.0","385.90000000596046","","","","50","1,0,0","1","highway","75","probe-176","0.8497914611213376","0.07028081851960226","0.4760660266852401","0","","","","","",""
"","do_trial","131","679737","0.0-114.0-0.0","508.40000000596046","","","","49","0,0,0","1","highway","76","probe-21","0.9296711194393329","0.08328434321736028","0.47320488267977345","0","","","","","",""
"","do_trial","132","686241","0.0-115.0-0.0","966.9000000059605","","","","50","1,0,0","1","highway","77","probe-117","0.880305943024632","0.13221661193255918","0.4306337783565454","0","","","","","",""
"","do_trial","133","693445","0.0-116.0-0.0","1662.3999999910593","","","","51","1,1,1","1","highway","78","probe-234","0.739100107190076","0.1775750036031676","0.39238575616760096","1","","","","","",""
"","do_trial","134","701562","0.0-117.0-0.0","2581.0999999940395","","","","49","1,0,1","1","highway","79","probe-132","0.8112078544177196","0.16688535286386605","0.5100100724779949","1","","","","","",""
"","do_bye","135","703067","0.0-118.0-0.0","null","","","","null","","","","","","","","","","","","","","",""
"","do_travel","136","709077","0.0-119.0-0.0","null","","","","null","","","","","","","","","","","","","","",""
"","do_welcome","137","710594","0.0-119.0-1.0","null","","","","null","","","","","","","","","","","","","","",""
"","do_trial","138","716639","0.0-120.0-0.0","null","","","","null","1,0,0","2","forest","80","probe-47","1","0.10582197198298378","0.5393028511893296","","","","","","",""
"","do_trial","139","722767","0.0-121.0-0.0","592.0999999940395","","","","49","1,0,0","2","forest","81","probe-179","1","0.21010429319646876","0.3875935668400553","1","","","","","",""
"","do_trial","140","728821","0.0-122.0-0.0","null","","","","null","1,1,0","2","forest","82","probe-115","1","0.06665649532929194","0.2720553988277836","","","","","","",""
"","do_trial","141","735311","0.0-123.0-0.0","959.6000000089407","","","","51","1,0,0","2","forest","83","probe-220","1","0.10260041014496889","0.29504868687122143","0","","","","","",""
"","do_trial","142","741757","0.0-124.0-0.0","904.2999999970198","","","","50","1,0,1","2","forest","84","probe-120","0.9149300627729268","0.09295992822970807","0.45758409150835405","0","","","","","",""
"","do_trial","143","750163","0.0-125.0-0.0","2871.7000000029802","","","","50","0,0,1","2","forest","85","probe-188","0.8007350639971955","0.05036024802984057","0.46336804717522095","0","","","","","",""
"","do_trial","144","756011","0.0-126.0-0.0","307.70000000298023","","","","49","1,0,1","2","forest","86","probe-46","0.7751161080956878","0.1355006885048404","0.4030531296696816","1","","","","","",""
"","do_trial","145","762022","0.0-127.0-0.0","478.29999999701977","","","","50","0,1,1","2","forest","87","probe-39","0.8539567081156215","0.17494876753832764","0.46898521425520967","1","","","","","",""
"","do_trial","146","768823","0.0-128.0-0.0","1258.7999999970198","","","","51","1,0,0","2","forest","88","probe-203","0.9118602327240164","0.16654660385507133","0.47612079056536744","0","","","","","",""
"","do_trial","147","776396","0.0-129.0-0.0","2038.4000000059605","","","","49","1,1,0","2","forest","89","probe-91","0.750072135869969","0.18618110947402408","0.4395672187380311","1","","","","","",""
"","do_trial","148","782276","0.0-130.0-0.0","349.29999999701977","","","","49","0,0,1","2","forest","90","probe-76","0.47423825080851134","0.4721986176694314","0.35307829025252846","0","","","","","",""
"","do_trial","149","788385","0.0-131.0-0.0","563.5","","","","49","0,1,0","2","forest","91","probe-127","0.31709384047817546","0.5456890794022845","0.3107463525759603","0","","","","","",""
"","do_trial","150","795312","0.0-132.0-0.0","1391.2000000029802","","","","51","0,0,0","2","forest","92","probe-130","0.2738072822646002","0.6591152066197533","0.3325080381444365","0","","","","","",""
"","do_trial","151","801371","0.0-133.0-0.0","526.2000000029802","","","","50","0,1,0","2","forest","93","probe-84","0.19171606664148771","0.8880155102655314","0.30373731723514835","1","","","","","",""
"","do_trial","152","807241","0.0-134.0-0.0","328.70000000298023","","","","49","0,1,0","2","forest","94","probe-154","0.05862545049952498","0.7900016344477641","0.3370630773537154","0","","","","","",""
"","do_trial","153","813159","0.0-135.0-0.0","384","","","","49","0,1,0","2","forest","95","probe-78","0.07325591815344228","0.6971527501770137","0.4674811867838975","0","","","","","",""
"","do_trial","154","819108","0.0-136.0-0.0","409.1000000089407","","","","50","0,1,0","2","forest","96","probe-07","0.07641173948619372","0.7006921889373869","0.3665760520389694","1","","","","","",""
"","do_trial","155","824996","0.0-137.0-0.0","355.40000000596046","","","","51","0,0,0","2","forest","97","probe-136","0.1950415047120903","0.7730680859824854","0.39162899832791703","0","","","","","",""
"","do_trial","156","830975","0.0-138.0-0.0","433.09999999403954","","","","51","1,1,0","2","forest","98","probe-68","0.15518747723051557","0.644007048768417","0.23775852578208287","0","","","","","",""
"","do_trial","157","836811","0.0-139.0-0.0","304","","","","50","0,0,0","2","forest","99","probe-59","0.37477633058274157","0.7888257386387812","0.38974265190342416","0","","","","","",""
"","do_trial","158","842712","0.0-140.0-0.0","356.3999999910593","","","","51","1,1,0","2","forest","100","probe-139","0.29697247717170594","0.7833361755090769","0.2722840390736006","0","","","","","",""
"","do_trial","159","848649","0.0-141.0-0.0","395.70000000298023","","","","49","0,1,1","2","forest","101","probe-239","0.23711452970447522","0.8146167377232227","0.4926351549880353","0","","","","","",""
"","do_trial","160","854507","0.0-142.0-0.0","327.20000000298023","","","","49","0,1,0","2","forest","102","probe-99","0.11240671386860583","0.866755975568354","0.4797326015488423","0","","","","","",""
"","do_trial","161","860241","0.0-143.0-0.0","206","","","","50","0,1,1","2","forest","103","probe-228","0.12813501351281695","0.793304207564589","0.397909707807015","1","","","","","",""
"","do_trial","162","865998","0.0-144.0-0.0","223.80000001192093","","","","50","0,1,1","2","forest","104","probe-36","0.06702348354268171","0.8088119519683974","0.5388728064880733","1","","","","","",""
"","do_trial","163","871950","0.0-145.0-0.0","407.09999999403954","","","","50","0,1,0","2","forest","105","probe-207","0.17167845708200694","0.8605731200954123","0.46285340567650046","1","","","","","",""
"","do_trial","164","877753","0.0-146.0-0.0","260.70000000298023","","","","50","0,0,1","2","forest","106","probe-104","0.16633400513049562","0.8358250733444181","0.42887571353540926","0","","","","","",""
"","do_trial","165","883483","0.0-147.0-0.0","192.59999999403954","","","","51","0,1,0","2","forest","107","probe-140","0.06383874367184983","0.9291571169787429","0.39512141681404167","0","","","","","",""
"","do_trial","166","889706","0.0-148.0-0.0","681.1000000089407","","","","50","0,1,0","2","forest","108","probe-173","0.12509198737236962","0.9177837175887993","0.2243775773840468","1","","","","","",""
"","do_trial","167","896293","0.0-149.0-0.0","1052.7999999970198","","","","50","0,0,0","2","forest","109","probe-226","0.13146092739087828","0.8202026245675832","0.49301908135482436","0","","","","","",""
"","do_trial","168","904103","0.0-150.0-0.0","2265.8999999910593","","","","51","0,1,1","2","forest","110","probe-101","0.09481733831703276","0.8264916679098887","0.29310742081420954","1","","","","","",""
"","do_trial","169","910359","0.0-151.0-0.0","728.7999999970198","","","","51","0,1,0","2","forest","111","probe-214","0.05419356273260187","0.8795663318566037","0.4559057010079572","0","","","","","",""
"","do_trial","170","916393","0.0-152.0-0.0","503.90000000596046","","","","50","0,0,0","2","forest","112","probe-63","0.11143731902369763","0.7305509701338125","0.3898377117583508","0","","","","","",""
"","do_trial","171","922392","0.0-153.0-0.0","461.79999999701977","","","","49","1,1,1","2","forest","113","probe-77","0.16465093768118982","0.6990652944735303","0.49025480537823035","1","","","","","",""
"","do_trial","172","929043","0.0-154.0-0.0","1119.2000000029802","","","","50","0,1,1","2","forest","114","probe-128","0.2123385203774162","0.7950003028534937","0.4052068358800225","1","","","","","",""
"","do_trial","173","935296","0.0-155.0-0.0","708.7000000029802","","","","50","0,1,1","2","forest","115","probe-189","0.10404795304605291","0.9016117852827482","0.5377753983883388","1","","","","","",""
"","do_trial","174","942280","0.0-156.0-0.0","1454.800000011921","","","","50","0,1,0","2","forest","116","probe-40","0.10411234945453732","0.8960122148962674","0.5196112186434199","1","","","","","",""
"","do_trial","175","948494","0.0-157.0-0.0","677.2999999970198","","","","49","0,1,0","2","forest","117","probe-97","0.26549436627138406","0.9334353185809192","0.6197091113196079","0","","","","","",""
"","do_trial","176","956423","0.0-158.0-0.0","2385.3999999910593","","","","49","1,1,1","2","forest","118","probe-66","0.23637343062458593","0.746225763334768","0.5899150089843778","1","","","","","",""
"","do_trial","177","962667","0.0-159.0-0.0","712.2999999970198","","","","49","0,1,0","2","forest","119","probe-18","0.07530234561606951","0.6968702679878314","0.526415605276113","0","","","","","",""
"","do_bye","178","964180","0.0-160.0-0.0","null","","","","null","","","","","","","","","","","","","","",""
"","do_travel","179","970188","0.0-161.0-0.0","null","","","","null","","","","","","","","","","","","","","",""
"","do_welcome","180","971709","0.0-161.0-1.0","null","","","","null","","","","","","","","","","","","","","",""
"","do_trial","181","979108","0.0-162.0-0.0","1863","","","","50","0,1,1","3","city","120","probe-150","0.19675427941369045","1","0.3848102075740976","1","","","","","",""
"","do_trial","182","986789","0.0-163.0-0.0","2137.7000000029802","","","","51","1,1,1","3","city","121","probe-162","0.23644616196085955","1","0.336477072647998","1","","","","","",""
"","do_trial","183","992606","0.0-164.0-0.0","270.70000000298023","","","","51","0,1,0","3","city","122","probe-165","0.11787136434863076","1","0.3418945524839831","0","","","","","",""
"","do_trial","184","999097","0.0-165.0-0.0","956.7000000029802","","","","51","0,1,1","3","city","123","probe-170","0.14313196012817334","1","0.3279425204514561","1","","","","","",""
"","do_trial","185","1006996","0.0-166.0-0.0","2357.9000000059605","","","","51","0,1,1","3","city","124","probe-65","0.053776074089212964","0.883916614856291","0.5006541275112305","1","","","","","",""
"","do_trial","186","1012852","0.0-167.0-0.0","323.79999999701977","","","","50","0,1,1","3","city","125","probe-216","0.08582257350751897","0.9265799858136383","0.4441999096682781","1","","","","","",""
"","do_trial","187","1021077","0.0-168.0-0.0","2683.7999999970198","","","","49","0,1,0","3","city","126","probe-224","0.06942066291651357","0.7696249864359841","0.3952064146757158","0","","","","","",""
"","do_trial","188","1027551","0.0-169.0-0.0","937.6999999880791","","","","49","0,1,0","3","city","127","probe-28","0.0525486608718084","0.7724279507265722","0.3671799161127905","0","","","","","",""
"","do_trial","189","1033600","0.0-170.0-0.0","null","","","","null","0,1,0","3","city","128","probe-03","0.09003875614598586","0.7361009411396008","0.29281501330081894","","","","","","",""
"","do_trial","190","1039389","0.0-171.0-0.0","253.40000000596046","","","","50","0,0,0","3","city","129","probe-138","0.16093425937926534","0.7576122770594981","0.460552190976556","0","","","","","",""
"","do_trial","191","1045180","0.0-172.0-0.0","245.09999999403954","","","","50","0,0,1","3","city","130","probe-43","0.19215398752718954","0.3722149889086313","0.7229727096758974","0","","","","","",""
"","do_trial","192","1051228","0.0-173.0-0.0","null","","","","null","0,0,1","3","city","131","probe-240","0.263533984466953","0.3984240860762707","0.7900166663937832","","","","","","",""
"","do_trial","193","1057120","0.0-174.0-0.0","352.40000000596046","","","","51","1,0,1","3","city","132","probe-69","0.294404114207955","0.2085318523953455","0.8430035018920847","1","","","","","",""
"","do_trial","194","1063159","0.0-175.0-0.0","null","","","","null","1,1,1","3","city","133","probe-121","0.4252198170551849","0.12299940106960826","0.9099578028310582","","","","","","",""
"","do_trial","195","1069074","0.0-176.0-0.0","369.40000000596046","","","","50","1,0,1","3","city","134","probe-53","0.516237828518075","0.1796239081011264","0.9252756910594571","0","","","","","",""
"","do_trial","196","1074863","0.0-177.0-0.0","257.70000000298023","","","","49","0,0,1","3","city","135","probe-19","0.5549672352394113","0.10034398534497736","0.9147460004468265","0","","","","","",""
"","do_trial","197","1080690","0.0-178.0-0.0","285.40000000596046","","","","50","1,0,0","3","city","136","probe-10","0.5676626210636925","0.2384848287412092","0.9277624492395661","0","","","","","",""
"","do_trial","198","1087991","0.0-179.0-0.0","1770.7000000029802","","","","49","1,1,1","3","city","137","probe-49","0.5484054536654448","0.15115979444427757","0.8415100949305816","1","","","","","",""
"","do_trial","199","1095120","0.0-180.0-0.0","1599.2000000029802","","","","51","0,0,1","3","city","138","probe-72","0.5181268622635249","0.1070198047945409","0.7652533307272346","1","","","","","",""
"","do_trial","200","1101863","0.0-181.0-0.0","1208.7999999970198","","","","51","1,0,1","3","city","139","probe-159","0.5232866721789052","0.2116938298653777","0.8380264141100492","1","","","","","",""
"","do_trial","201","1109846","0.0-182.0-0.0","2447.7999999970198","","","","51","1,0,0","3","city","140","probe-17","0.36260627909011717","0.34701968986823084","0.7592641880757033","0","","","","","",""
"","do_trial","202","1115647","0.0-183.0-0.0","270.1000000089407","","","","51","0,0,1","3","city","141","probe-202","0.4991148969647799","0.3628959594860486","0.733811200446509","1","","","","","",""
"","do_trial","203","1122055","0.0-184.0-0.0","867.2999999970198","","","","51","1,1,1","3","city","142","probe-98","0.42560225261327667","0.3300640938673175","0.8565631323518269","1","","","","","",""
"","do_trial","204","1128116","0.0-185.0-0.0","517.5","","","","51","0,0,1","3","city","143","probe-135","0.4732735406486139","0.32481612517839664","0.8411884798538742","1","","","","","",""
"","do_trial","205","1134652","0.0-186.0-0.0","994.7000000029802","","","","51","1,0,1","3","city","144","probe-106","0.41664593066799593","0.16883344536531675","0.9293495251743051","1","","","","","",""
"","do_trial","206","1141000","0.0-187.0-0.0","809.2000000029802","","","","50","1,1,1","3","city","145","probe-146","0.4876467519051343","0.18410584479252315","0.898542976807358","1","","","","","",""
"","do_trial","207","1148945","0.0-188.0-0.0","2401.6000000089407","","","","49","0,0,1","3","city","146","probe-199","0.4145445833430763","0.2638157392830554","0.8943472608041674","0","","","","","",""
"","do_trial","208","1155346","0.0-189.0-0.0","859.8999999910593","","","","49","0,1,1","3","city","147","probe-15","0.43157329640873526","0.254959638624328","0.7473418452151532","0","","","","","",""
"","do_trial","209","1161161","0.0-190.0-0.0","278.5","","","","50","0,0,0","3","city","148","probe-236","0.6111719832202931","0.16426120470237557","0.6859049002282542","0","","","","","",""
"","do_trial","210","1166986","0.0-191.0-0.0","285.19999998807907","","","","49","0,0,0","3","city","149","probe-198","0.49743601943923865","0.16319158672417713","0.6953032249791835","0","","","","","",""
"","do_trial","211","1173109","0.0-192.0-0.0","588.7000000029802","","","","51","0,0,0","3","city","150","probe-124","0.41501803485720096","0.18895722144187946","0.8231798436620517","0","","","","","",""
"","do_trial","212","1179195","0.0-193.0-0.0","543.5","","","","51","1,0,1","3","city","151","probe-38","0.5005366122534265","0.14349577556393364","0.9211923973956794","1","","","","","",""
"","do_trial","213","1186912","0.0-194.0-0.0","2178.300000011921","","","","51","0,1,1","3","city","152","probe-206","0.43045996549543974","0.08912948155033658","0.9147668970399977","1","","","","","",""
"","do_trial","214","1192785","0.0-195.0-0.0","341.29999999701977","","","","50","0,0,1","3","city","153","probe-177","0.43614908497737787","0.08479383810106583","0.8427787381477194","0","","","","","",""
"","do_trial","215","1198951","0.0-196.0-0.0","634.5","","","","51","1,0,1","3","city","154","probe-79","0.5052293216034289","0.13282401009031802","0.9251692416370314","1","","","","","",""
"","do_trial","216","1205303","0.0-197.0-0.0","814.2000000029802","","","","50","1,0,1","3","city","155","probe-08","0.4297112153430652","0.13413988375170402","0.7663517733979918","0","","","","","",""
"","do_trial","217","1211156","0.0-198.0-0.0","314.09999999403954","","","","51","0,0,1","3","city","156","probe-210","0.3447463798385043","0.10238750866584745","0.7624104582400756","1","","","","","",""
"","do_trial","218","1217235","0.0-199.0-0.0","537.1000000089407","","","","51","0,0,1","3","city","157","probe-209","0.3153286362246112","0.16079708355184485","0.7865792342511625","1","","","","","",""
"","do_trial","219","1224102","0.0-200.0-0.0","1325.0999999940395","","","","49","1,0,0","3","city","158","probe-60","0.5139070425293191","0.11309092284498448","0.920918014622683","1","","","","","",""
"","do_trial","220","1229932","0.0-201.0-0.0","285.59999999403954","","","","50","1,0,1","3","city","159","probe-105","0.522112920513315","0.16293906230889177","0.9042936408934884","0","","","","","",""
"","do_bye","221","1231450","0.0-202.0-0.0","null","","","","null","","","","","","","","","","","","","","",""
"","do_travel","222","1237467","0.0-203.0-0.0","null","","","","null","","","","","","","","","","","","","","",""
"","do_welcome","223","1238980","0.0-203.0-1.0","null","","","","null","","","","","","","","","","","","","","",""
"","do_trial","224","1245034","0.0-204.0-0.0","null","","","","null","1,0,1","4","coast","160","probe-96","0.45615875522074845","0.28187509337340316","1","","","","","","",""
"","do_trial","225","1251028","0.0-205.0-0.0","448.79999999701977","","","","50","0,0,1","4","coast","161","probe-151","0.38758289512168975","0.33589137066795355","1","0","","","","","",""
"","do_trial","226","1257048","0.0-206.0-0.0","488.30000001192093","","","","49","0,0,1","4","coast","162","probe-01","0.2836746061577528","0.306278855379857","1","0","","","","","",""
"","do_trial","227","1263301","0.0-207.0-0.0","709.3000000119209","","","","49","0,0,1","4","coast","163","probe-109","0.2745159537315523","0.21289455539605723","1","0","","","","","",""
"","do_trial","228","1269190","0.0-208.0-0.0","355.29999999701977","","","","49","0,0,1","4","coast","164","probe-81","0.32879802373922823","0.10330211373082626","0.9370294787003454","0","","","","","",""
"","do_trial","229","1274972","0.0-209.0-0.0","244.5","","","","51","0,0,1","4","coast","165","probe-74","0.3562244446954288","0.0802269214065109","0.859275915354926","1","","","","","",""
"","do_trial","230","1280998","0.0-210.0-0.0","495.20000000298023","","","","50","0,0,1","4","coast","166","probe-230","0.4007984281086811","0.0754532943554203","0.8634709519059389","0","","","","","",""
"","do_trial","231","1287056","0.0-211.0-0.0","526.1000000089407","","","","51","1,0,1","4","coast","167","probe-113","0.3267721906653305","0.09907908242516467","0.9193116863186035","1","","","","","",""
"","do_trial","232","1293054","0.0-212.0-0.0","468.59999999403954","","","","51","1,0,1","4","coast","168","probe-04","0.4095542405067594","0.24208945808645801","0.8699449034573583","1","","","","","",""
"","do_trial","233","1299133","0.0-213.0-0.0","542","","","","51","0,1,1","4","coast","169","probe-221","0.34954895679201825","0.1425674735235243","0.8716400995425799","1","","","","","",""
"","do_trial","234","1305541","0.0-214.0-0.0","870.8000000119209","","","","50","0,0,1","4","coast","170","probe-13","0.28680687335066163","0.3096536068328518","0.5973854692869384","0","","","","","",""
"","do_trial","235","1311820","0.0-215.0-0.0","743","","","","49","0,0,0","4","coast","171","probe-61","0.3261665611207423","0.4574331740593885","0.5420890716394307","0","","","","","",""
"","do_trial","236","1317640","0.0-216.0-0.0","279.59999999403954","","","","50","0,1,0","4","coast","172","probe-125","0.22953217065821527","0.602784106857134","0.6091042918815334","1","","","","","",""
"","do_trial","237","1325074","0.0-217.0-0.0","1896.2000000029802","","","","50","0,1,0","4","coast","173","probe-37","0.21273691911866827","0.6379995819777661","0.5137651962965297","1","","","","","",""
"","do_trial","238","1331224","0.0-218.0-0.0","609.0999999940395","","","","49","0,0,0","4","coast","174","probe-196","0.14342429398463258","0.558125865344279","0.4729822614979103","0","","","","","",""
"","do_trial","239","1338427","0.0-219.0-0.0","1668.6000000089407","","","","51","0,1,0","4","coast","175","probe-06","0.1719344508955184","0.5919956284763341","0.4417541154945388","0","","","","","",""
"","do_trial","240","1344468","0.0-220.0-0.0","null","","","","null","0,1,0","4","coast","176","probe-187","0.189122388152656","0.6346079953480164","0.4540969902228551","","","","","","",""
"","do_trial","241","1350340","0.0-221.0-0.0","340.29999999701977","","","","51","1,1,0","4","coast","177","probe-160","0.2436221040184747","0.7183806447284917","0.5037927837473023","0","","","","","",""
"","do_trial","242","1356152","0.0-222.0-0.0","270","","","","49","0,1,0","4","coast","178","probe-58","0.07630795086946807","0.913137545175195","0.40374825439830425","0","","","","","",""
"","do_trial","243","1361877","0.0-223.0-0.0","181.70000000298023","","","","50","1,1,1","4","coast","179","probe-45","0.19211091247685327","0.9193888046876194","0.43976433425344874","1","","","","","",""
"","do_trial","244","1367787","0.0-224.0-0.0","365.79999999701977","","","","49","0,1,0","4","coast","180","probe-34","0.057828044788833105","0.9337720684060782","0.3760457969525901","0","","","","","",""
"","do_trial","245","1375716","0.0-225.0-0.0","2388.5","","","","51","0,0,1","4","coast","181","probe-217","0.1575251154077022","0.6683351924428419","0.3526875348547592","1","","","","","",""
"","do_trial","246","1382748","0.0-226.0-0.0","1500.2999999970198","","","","49","0,0,0","4","coast","182","probe-22","0.0795555225673109","0.5507838154177802","0.3240500550299052","0","","","","","",""
"","do_trial","247","1390127","0.0-227.0-0.0","1844.9000000059605","","","","51","0,0,0","4","coast","183","probe-229","0.08352589559860837","0.6657872818669369","0.46775668012438687","0","","","","","",""
"","do_trial","248","1396547","0.0-228.0-0.0","887.8999999910593","","","","50","0,1,0","4","coast","184","probe-16","0.1818198435691015","0.8023133911787409","0.39929566027225016","1","","","","","",""
"","do_trial","249","1402923","0.0-229.0-0.0","845.8000000119209","","","","51","0,1,1","4","coast","185","probe-215","0.21445874736952536","0.8245019974733401","0.46033087842870324","1","","","","","",""
"","do_trial","250","1409253","0.0-230.0-0.0","787.8999999910593","","","","50","0,1,0","4","coast","186","probe-192","0.21457315217119732","0.7110989490799784","0.520688909968762","1","","","","","",""
"","do_trial","251","1415703","0.0-231.0-0.0","909.1999999880791","","","","49","0,0,1","4","coast","187","probe-237","0.17381212577575514","0.728457575657583","0.4986076030973681","0","","","","","",""
"","do_trial","252","1421949","0.0-232.0-0.0","714.9000000059605","","","","51","0,1,1","4","coast","188","probe-208","0.057386721500194436","0.749776105241508","0.3768374777449561","1","","","","","",""
"","do_trial","253","1428197","0.0-233.0-0.0","711.6000000089407","","","","50","0,1,0","4","coast","189","probe-149","0.0783586040592191","0.8610433778852749","0.2442601057275876","1","","","","","",""
"","do_trial","254","1434173","0.0-234.0-0.0","445.79999999701977","","","","49","1,0,1","4","coast","190","probe-09","0.06973819370954334","0.8286220229542488","0.3549515271069836","1","","","","","",""
"","do_trial","255","1440370","0.0-235.0-0.0","651.2000000029802","","","","51","0,1,0","4","coast","191","probe-31","0.12326086154131066","0.8223398646210184","0.40890031435019747","0","","","","","",""
"","do_trial","256","1446291","0.0-236.0-0.0","380.6000000089407","","","","50","0,1,0","4","coast","192","probe-56","0.0645737123504261","0.6340553138458457","0.37875445442151223","1","","","","","",""
"","do_trial","257","1452074","0.0-237.0-0.0","238.5","","","","49","0,0,1","4","coast","193","probe-225","0.06942177996946824","0.7600748358079862","0.34622257379299665","0","","","","","",""
"","do_trial","258","1458123","0.0-238.0-0.0","null","","","","null","0,1,1","4","coast","194","probe-118","0.12370293801491773","0.797225655428194","0.4117256205279864","","","","","","",""
"","do_trial","259","1464125","0.0-239.0-0.0","463.6000000089407","","","","49","0,1,0","4","coast","195","probe-172","0.11920609071385935","0.8144589191927548","0.3909760059439341","0","","","","","",""
"","do_trial","260","1472126","0.0-240.0-0.0","2459.5999999940395","","","","51","0,1,1","4","coast","196","probe-193","0.13257100744171033","0.7848432530268088","0.3301823388263408","1","","","","","",""
"","do_trial","261","1478161","0.0-241.0-0.0","null","","","","null","0,1,0","4","coast","197","probe-191","0.06159762593582643","0.8053616867397584","0.40876613532603445","","","","","","",""
"","do_trial","262","1484559","0.0-242.0-0.0","855.0999999940395","","","","50","0,1,0","4","coast","198","probe-87","0.066758320184232","0.9047753619488558","0.35827961191203833","1","","","","","",""
"","do_trial","263","1490458","0.0-243.0-0.0","360.5","","","","49","0,1,1","4","coast","199","probe-164","0.06422875002499749","0.8552790066178502","0.3702791047007132","0","","","","","",""
"","do_bye","264","1491966","0.0-244.0-0.0","null","","","","null","","","","","","","","","","","","","","",""
"","do_travel","265","1497973","0.0-245.0-0.0","null","","","","null","","","","","","","","","","","","","","",""
"","do_welcome","266","1499485","0.0-245.0-1.0","null","","","","null","","","","","","","","","","","","","","",""
"","do_trial","267","1505531","0.0-246.0-0.0","null","","","","null","0,1,0","5","mountain","200","probe-71","0.07054205633589293","1","0.25996067520073296","","","","","","",""
"","do_trial","268","1511560","0.0-247.0-0.0","482.29999999701977","","","","49","1,1,0","5","mountain","201","probe-54","0.22050066208639257","1","0.3418070012223333","1","","","","","",""
"","do_trial","269","1517578","0.0-248.0-0.0","486.30000001192093","","","","50","0,1,0","5","mountain","202","probe-175","0.13445004775965705","1","0.30249879232687915","1","","","","","",""
"","do_trial","270","1524167","0.0-249.0-0.0","1063.4000000059605","","","","50","0,1,0","5","mountain","203","probe-48","0.08903839871792613","1","0.3750183191578364","1","","","","","",""
"","do_trial","271","1530326","0.0-250.0-0.0","621.7000000029802","","","","51","1,0,1","5","mountain","204","probe-144","0.3128320653308896","0.871323297617013","0.485335459954409","1","","","","","",""
"","do_trial","272","1536257","0.0-251.0-0.0","401.5","","","","51","0,1,1","5","mountain","205","probe-223","0.19373203962010935","0.8124058969394868","0.4773691392697231","1","","","","","",""
"","do_trial","273","1542857","0.0-252.0-0.0","1058.9000000059605","","","","49","0,0,0","5","mountain","206","probe-05","0.18001146490917866","0.8059756274948633","0.37253558786673774","0","","","","","",""
"","do_trial","274","1549270","0.0-253.0-0.0","875.7000000029802","","","","50","0,1,1","5","mountain","207","probe-107","0.17256760586927378","0.7517466156366964","0.3600168427469664","1","","","","","",""
"","do_trial","275","1555349","0.0-254.0-0.0","543.5999999940395","","","","49","0,0,1","5","mountain","208","probe-227","0.10529976112183413","0.713852800963212","0.5665336990245815","0","","","","","",""
"","do_trial","276","1561427","0.0-255.0-0.0","545.7000000029802","","","","49","0,1,1","5","mountain","209","probe-75","0.06004470774344529","0.8631824567302624","0.59124207011914","0","","","","","",""
"","do_trial","277","1568407","0.0-256.0-0.0","1450.7999999970198","","","","50","1,0,1","5","mountain","210","probe-238","0.09296275641795024","0.5144128140033224","0.692103083347392","0","","","","","",""
"","do_trial","278","1574798","0.0-257.0-0.0","846.7999999970198","","","","50","0,1,1","5","mountain","211","probe-27","0.15908964068258236","0.5500415737900216","0.6869874774795717","1","","","","","",""
"","do_trial","279","1580623","0.0-258.0-0.0","291.20000000298023","","","","51","0,1,1","5","mountain","212","probe-52","0.09602491319881244","0.5112628095205939","0.8929997969891571","1","","","","","",""
"","do_trial","280","1587878","0.0-259.0-0.0","1719","","","","49","1,1,1","5","mountain","213","probe-80","0.13999736124057977","0.5511004077782318","0.8430753130918777","1","","","","","",""
"","do_trial","281","1593798","0.0-260.0-0.0","381.20000000298023","","","","50","0,0,1","5","mountain","214","probe-174","0.05660276932577135","0.43860102875887613","0.8230161295387624","0","","","","","",""
"","do_trial","282","1599831","0.0-261.0-0.0","null","","","","null","0,0,1","5","mountain","215","probe-103","0.07201850640946338","0.4517143736990748","0.8006191583267358","","","","","","",""
"","do_trial","283","1605842","0.0-262.0-0.0","476","","","","49","1,1,1","5","mountain","216","probe-62","0.13767205669046742","0.4608600577024584","0.8022975346340699","1","","","","","",""
"","do_trial","284","1611665","0.0-263.0-0.0","290.1000000089407","","","","49","0,1,1","5","mountain","217","probe-178","0.17094549260130049","0.42252744599399467","0.8257969652928853","0","","","","","",""
"","do_trial","285","1617777","0.0-264.0-0.0","581.5","","","","51","0,0,0","5","mountain","218","probe-166","0.10698835776629625","0.5691997237364969","0.7426942824316006","0","","","","","",""
"","do_trial","286","1625158","0.0-265.0-0.0","1849.6000000089407","","","","51","0,0,1","5","mountain","219","probe-142","0.06795943940588471","0.49859506222436856","0.7749297291860939","1","","","","","",""
"","do_trial","287","1631330","0.0-266.0-0.0","639.2000000029802","","","","50","0,0,1","5","mountain","220","probe-25","0.06808053191068135","0.42308605073453215","0.7991986206473842","0","","","","","",""
"","do_trial","288","1637879","0.0-267.0-0.0","1006.2000000029802","","","","50","0,1,1","5","mountain","221","probe-133","0.08138947426214597","0.5931428992432975","0.8722989622930619","1","","","","","",""
"","do_trial","289","1645870","0.0-268.0-0.0","2454.2999999970198","","","","49","1,1,1","5","mountain","222","probe-122","0.11345850538769586","0.662040108355429","0.8762176173935913","1","","","","","",""
"","do_trial","290","1651742","0.0-269.0-0.0","332.5","","","","49","0,1,0","5","mountain","223","probe-42","0.12730215008903284","0.7061019906160066","0.9048384113719046","0","","","","","",""
"","do_trial","291","1657675","0.0-270.0-0.0","398.20000000298023","","","","51","0,0,0","5","mountain","224","probe-184","0.19081867197259406","0.49070197424885","0.9496910407989029","0","","","","","",""
"","do_trial","292","1663599","0.0-271.0-0.0","391.59999999403954","","","","51","1,0,1","5","mountain","225","probe-41","0.27608115038939274","0.4308212713580458","0.8575195049074138","1","","","","","",""
"","do_trial","293","1669640","0.0-272.0-0.0","null","","","","null","0,0,1","5","mountain","226","probe-168","0.21282444853382065","0.4565170070061285","0.7232255176605957","","","","","","",""
"","do_trial","294","1675704","0.0-273.0-0.0","533.2000000029802","","","","50","0,0,0","5","mountain","227","probe-183","0.11080731743193674","0.5242129590006488","0.6111485953254474","0","","","","","",""
"","do_trial","295","1682910","0.0-274.0-0.0","1676.6000000089407","","","","51","0,1,1","5","mountain","228","probe-129","0.11510081001729035","0.5355822956320397","0.7356954047872348","1","","","","","",""
"","do_trial","296","1689063","0.0-275.0-0.0","614.7999999970198","","","","51","0,1,1","5","mountain","229","probe-141","0.06206565742349847","0.5523573904475005","0.7966230412044029","1","","","","","",""
"","do_trial","297","1695010","0.0-276.0-0.0","413.8999999910593","","","","51","0,1,1","5","mountain","230","probe-211","0.06947242611157776","0.5995968089164534","0.8155433170168165","1","","","","","",""
"","do_trial","298","1701461","0.0-277.0-0.0","922.7000000029802","","","","50","0,1,1","5","mountain","231","probe-157","0.07643527328623413","0.40724272268804595","0.8560636328862959","1","","","","","",""
"","do_trial","299","1708066","0.0-278.0-0.0","1072.2999999970198","","","","50","0,1,1","5","mountain","232","probe-44","0.10350242473662856","0.421746343429244","0.8641823896179376","1","","","","","",""
"","do_trial","300","1714382","0.0-279.0-0.0","779","","","","49","0,1,1","5","mountain","233","probe-110","0.15181411470513068","0.4918744988346342","0.741175415411279","0","","","","","",""
"","do_trial","301","1720320","0.0-280.0-0.0","406.09999999403954","","","","49","0,1,1","5","mountain","234","probe-205","0.13672221230450018","0.45778390749346815","0.7341903479831474","0","","","","","",""
"","do_trial","302","1726563","0.0-281.0-0.0","706","","","","50","0,1,1","5","mountain","235","probe-167","0.14735603498721328","0.42274492534569513","0.7509765642051403","1","","","","","",""
"","do_trial","303","1732790","0.0-282.0-0.0","698.7000000029802","","","","51","0,0,1","5","mountain","236","probe-50","0.05399764592212659","0.3012023327839816","0.7767881707354427","1","","","","","",""
"","do_trial","304","1738841","0.0-283.0-0.0","null","","","","null","0,0,1","5","mountain","237","probe-112","0.20668773445503835","0.2937565617878747","0.7758722642138254","","","","","","",""
"","do_trial","305","1744901","0.0-284.0-0.0","517","","","","50","0,0,1","5","mountain","238","probe-100","0.20024365675847336","0.3489330806994053","0.6529949581305102","0","","","","","",""
"","do_trial","306","1752188","0.0-285.0-0.0","1750","","","","49","0,1,1","5","mountain","239","probe-232","0.13596120649126703","0.36006185579088273","0.6473146764579061","0","","","","","",""
"","do_bye","307","1753699","0.0-286.0-0.0","null","","","","null","","","","","","","","","","","","","","",""
"","html-keyboard-response","308","1873704","0.0-286.0-1.0","null","<div class='center'><p>You may take a break now!</p><p> Stretch for a little bit. Get a glass of water.</p><p> You have two minutes to rest. Then, the game will automatically move on.</p><p>If you’d like to get started on the second half of the experiment sooner, then press the <b>space bar</b></p></div>","null","","","","","","","","","","","","","","","","",""
"","html-keyboard-response","309","2063068","0.0-286.0-2.0","189364","<div class='center'><p>You’ve arrived at the final destination of your journey! Unfortunately, it’s very foggy out, so you won’t be able to see it in the distance like in previous places you've visited.</p><p>You’ll still be deciding which pirates you want to rob ships. However, because of the fog you also won’t be able to see the ship in the distance. </p><p><b>[Press the space bar to continue]</b></p></div>","32","","","","","","","","","","","","","","","","",""
"","html-keyboard-response","310","2105181","0.0-286.0-3.0","42112.29999999702","<div class='center'><p> Sometimes you’ll be asked if you’ve seen a ship before (see the example below). You will use the 5, 6, 7, 8 buttons on your keyboard to respond. </p><p> If you definitely did not see the ship, pick the the big red thumbs down by pressing <b>5</b>.</p><p> If you don’t think you saw it but aren’t sure, then pick the small red thumbs down by pressing <b>6</b>.</p><p> If you think you might have seen it, then pick the small green thumbs up by pressing <b>7</b>.</p><p> If you definitely did see this ship before, then pick the big thumb green thumbs up by pressing <b>8</b>.</p><p> If you recall correctly, then you’ll get a gold coin!</p><p><b>[Press the space bar to begin the next phase of the experiment]</b></p><p><img src='run_exp/static/images/example_recog_trial.png' height='500'></p></div>","32","","","","","","","","","","","","","","","","",""
"","do_welcome","311","2106689","0.0-286.0-4.0","null","","","","null","","","","","","","","","","","","","","",""
"","do_trial","312","2111944","0.0-287.0-0.0","1710.0999999940395","","","","51","0,1,1","6","blank","240","null","0.15642984954958697","0.4143746050477353","1","1","","","","","",""
"","do_trial","313","2116650","0.0-288.0-0.0","1172.300000011921","","","","50","0,0,1","6","blank","241","null","0.20655562601882715","0.3143089140921224","0.9376158060046254","0","","","","","",""
"","do_trial","314","2121335","0.0-289.0-0.0","1152","","","","49","0,1,1","6","blank","242","null","0.052809819268144924","0.35414205091942436","0.7604856886235214","0","","","","","",""
"","do_trial","315","2125451","0.0-290.0-0.0","575.0999999940395","","","","50","0,0,1","6","blank","243","null","0.07237488881512377","0.25293722712444106","0.941394241888108","0","","","","","",""
"","do_trial","316","2129490","0.0-291.0-0.0","507.79999999701977","","","","51","0,1,1","6","blank","244","null","0.11964545309308193","0.4511411276126102","0.9448067298055629","1","","","","","",""
"","do_trial","317","2133376","0.0-292.0-0.0","348.70000000298023","","","","50","0,1,1","6","blank","245","null","0.058788498484432274","0.44825823381135854","0.8753878720601966","1","","","","","",""
"","do_trial","318","2137889","0.0-293.0-0.0","974.8000000119209","","","","51","0,0,1","6","blank","246","null","0.16598450178931592","0.32874590052390806","0.8598001457084324","1","","","","","",""
"","do_recog","319","2143906","0.0-294.0-0.0","null","","","","null","","","","247","probe-150","","","","","1","[object Object]","120","3","0",""
"","do_trial","320","2149173","0.0-295.0-0.0","1731.8999999910593","","","","50","0,0,0","6","blank","248","null","0.11472830394367826","0.33053274281413125","0.862539761366547","0","","","","","",""
"","do_trial","321","2153779","0.0-296.0-0.0","1076.9000000059605","","","","51","0,1,1","6","blank","249","null","0.18793922170721036","0.5030591340915436","0.9003412785083192","1","","","","","",""
"","do_recog","322","2159796","0.0-297.0-0.0","null","","","","null","","","","250","probe-245","","","","","0","[object Object]","null","null","0",""
"","do_trial","323","2164721","0.0-298.0-0.0","1390.4000000059605","","","","51","0,1,1","6","blank","251","null","0.09732669599619932","0.5512144170203088","0.8774412817505151","1","","","","","",""
"","do_recog","324","2168954","0.0-299.0-0.0","2717.5","","","","53","","","","252","probe-162","","","","","1","[object Object]","121","3","0",""
"","do_trial","325","2174293","0.0-300.0-0.0","1796.9000000059605","","","","50","0,1,0","6","blank","253","null","0.20277124352961384","0.39650561392623074","0.5861043368271197","1","","","","","",""
"","do_recog","326","2177798","0.0-301.0-0.0","1992.9000000059605","","","","54","","","","254","probe-220","","","","","1","[object Object]","83","2","0",""
"","do_trial","327","2182943","0.0-302.0-0.0","1600.0999999940395","","","","51","0,0,1","6","blank","255","null","0.5247838209960811","0.27396311628684855","0.38375203401517183","1","","","","","",""
"","do_recog","328","2186594","0.0-303.0-0.0","2134.6000000089407","","","","56","","","","256","probe-65","","","","","1","[object Object]","124","3","1",""
"","do_trial","329","2191868","0.0-304.0-0.0","1729.6000000089407","","","","51","1,0,1","6","blank","257","null","0.6219698561840723","0.24764986455293705","0.3313842831946055","1","","","","","",""
"","do_trial","330","2196546","0.0-305.0-0.0","1139.6000000089407","","","","50","0,0,0","6","blank","258","null","0.8506569700130939","0.2932064113655619","0.3001632177979561","0","","","","","",""
"","do_trial","331","2200488","0.0-306.0-0.0","405.5","","","","51","0,0,1","6","blank","259","null","0.608583988097427","0.36216373698612325","0.3754856371109838","1","","","","","",""
"","do_trial","332","2204953","0.0-307.0-0.0","926.2000000029802","","","","50","1,0,0","6","blank","260","null","0.6857178128140208","0.4920356847907726","0.1843561487772929","0","","","","","",""
"","do_trial","333","2209537","0.0-308.0-0.0","1044.7000000029802","","","","49","1,1,0","6","blank","261","null","0.8802883531283879","0.32091865439888906","0.05521330702116721","1","","","","","",""
"","do_trial","334","2214001","0.0-309.0-0.0","927.1000000089407","","","","50","1,0,0","6","blank","262","null","0.7192570602928273","0.3282111889785771","0.09501696613734695","0","","","","","",""
"","do_recog","335","2217237","0.0-310.0-0.0","1724.3999999910593","","","","55","","","","263","probe-248","","","","","0","[object Object]","null","null","0",""
"","do_trial","336","2222485","0.0-311.0-0.0","1713.8999999910593","","","","50","0,0,0","6","blank","264","null","0.6749326078631803","0.39980833671657356","0.07704793839303226","0","","","","","",""
"","do_recog","337","2225797","0.0-312.0-0.0","1794.9000000059605","","","","56","","","","265","probe-138","","","","","1","[object Object]","129","3","1",""
"","do_trial","338","2230755","0.0-313.0-0.0","1414.9000000059605","","","","50","1,1,0","6","blank","266","null","0.7304627347744758","0.2895109586364108","0.16739729910794396","1","","","","","",""
"","do_trial","339","2235409","0.0-314.0-0.0","1120.5999999940395","","","","49","1,0,1","6","blank","267","null","0.6966252508511448","0.3959727240823366","0.1934897291630437","1","","","","","",""
"","do_trial","340","2239752","0.0-315.0-0.0","813.3999999910593","","","","49","1,1,0","6","blank","268","null","0.8045157024899204","0.325105076996014","0.2198073783376569","1","","","","","",""
"","do_trial","341","2244319","0.0-316.0-0.0","1019.5","","","","50","1,0,0","6","blank","269","null","0.7939298926678341","0.34432456775253456","0.13344161171185634","0","","","","","",""
"","do_recog","342","2247322","0.0-317.0-0.0","1488.7999999970198","","","","56","","","","270","probe-02","","","","","1","[object Object]","48","1","1",""
"","do_trial","343","2252558","0.0-318.0-0.0","1701.2000000029802","","","","51","0,0,0","6","blank","271","null","0.8117604246195986","0.421162942678298","0.11310554595842655","0","","","","","",""
"","do_trial","344","2257004","0.0-319.0-0.0","908.1000000089407","","","","50","1,0,0","6","blank","272","null","0.7529548826328085","0.4843755692067836","0.1198252160936355","0","","","","","",""
"","do_trial","345","2261353","0.0-320.0-0.0","815.6000000089407","","","","50","0,1,0","6","blank","273","null","0.602158966084391","0.4093371542795483","0.11131815034732762","1","","","","","",""
"","do_trial","346","2265323","0.0-321.0-0.0","435.90000000596046","","","","50","0,0,0","6","blank","274","null","0.7066925177459327","0.39535939221254873","0.08730782745295634","0","","","","","",""
"","do_trial","347","2269841","0.0-322.0-0.0","987.0999999940395","","","","49","1,1,0","6","blank","275","null","0.6207412224936215","0.3010640850594109","0.1109633991754944","1","","","","","",""
"","do_trial","348","2274672","0.0-323.0-0.0","1290.699999988079","","","","49","1,0,0","6","blank","276","null","0.7742242047919055","0.24385813465361575","0.09919897369169739","1","","","","","",""
"","do_recog","349","2277894","0.0-324.0-0.0","1709.6000000089407","","","","56","","","","277","probe-230","","","","","1","[object Object]","166","4","1",""
"","do_trial","350","2283296","0.0-325.0-0.0","1861","","","","51","0,1,0","6","blank","278","null","0.6952712856732831","0.4546357483448085","0.1541551267852097","0","","","","","",""
"","do_recog","351","2286849","0.0-326.0-0.0","2036.2000000029802","","","","55","","","","279","probe-223","","","","","1","[object Object]","205","5","1",""
"","do_trial","352","2291776","0.0-327.0-0.0","1397.5","","","","50","1,0,0","6","blank","280","null","1","0.5746782702699066","0.0822259126951424","0","","","","","",""
"","do_trial","353","2295648","0.0-328.0-0.0","341.6000000089407","","","","51","1,1,0","6","blank","281","null","0.8901454624945516","0.5324473206189384","0.12204075019286807","0","","","","","",""
"","do_trial","354","2299731","0.0-329.0-0.0","546.2000000029802","","","","49","1,1,1","6","blank","282","null","0.8050789175968394","0.3265644148312796","0.27551734638854514","1","","","","","",""
"","do_trial","355","2304247","0.0-330.0-0.0","969.7999999970198","","","","50","1,1,0","6","blank","283","null","0.6974598378706903","0.31258735573509194","0.16103895868436305","1","","","","","",""
"","do_recog","356","2307101","0.0-331.0-0.0","1342.6000000089407","","","","56","","","","284","probe-23","","","","","1","[object Object]","44","1","1",""
"","do_trial","357","2311059","0.0-332.0-0.0","424.20000000298023","","","","51","1,0,0","6","blank","285","null","0.6647669503131779","0.2903647945612014","0.1791902187803639","0","","","","","",""
"","do_recog","358","2313976","0.0-333.0-0.0","1403","","","","55","","","","286","probe-247","","","","","0","[object Object]","null","null","0",""
"","do_trial","359","2318577","0.0-334.0-0.0","1062","","","","51","1,0,0","6","blank","287","null","0.7168783960872067","0.33052357173362185","0.20678869288752008","0","","","","","",""
"","do_trial","360","2323353","0.0-335.0-0.0","1232.7999999970198","","","","49","1,1,1","6","blank","288","null","0.6525377950228323","0.4171352469828714","0.164016300949897","1","","","","","",""
"","do_trial","361","2327280","0.0-336.0-0.0","398.79999999701977","","","","50","0,1,0","6","blank","289","null","0.7759469778624046","0.47293188050124096","0.16650779953121597","1","","","","","",""
"","do_recog","362","2330789","0.0-337.0-0.0","1987.699999988079","","","","56","","","","290","probe-216","","","","","1","[object Object]","125","3","1",""
"","do_trial","363","2335308","0.0-338.0-0.0","975.7999999970198","","","","49","1,1,1","6","blank","291","null","0.7332693642753012","0.40723607098394915","0.10032347410768094","1","","","","","",""
"","do_trial","364","2339265","0.0-339.0-0.0","422.30000001192093","","","","50","1,0,0","6","blank","292","null","0.5711946410251646","0.32066944814411147","0.12574671992822667","0","","","","","",""
"","do_trial","365","2343223","0.0-340.0-0.0","407.5","","","","50","0,0,0","6","blank","293","null","0.57845704634028","0.2757054349554595","0.07903940471319638","0","","","","","",""
"","do_trial","366","2347404","0.0-341.0-0.0","646.2000000029802","","","","49","1,0,1","6","blank","294","null","0.5619492535201905","0.20265677064457863","0.10353185947180837","1","","","","","",""
"","do_recog","367","2350358","0.0-342.0-0.0","1433.5999999940395","","","","56","","","","295","probe-83","","","","","1","[object Object]","41","1","1",""
"","do_trial","368","2355786","0.0-343.0-0.0","1896.2000000029802","","","","51","1,1,0","6","blank","296","null","0.3099110224265268","0.5851001073163127","0.27921619921427443","0","","","","","",""
"","do_recog","369","2358930","0.0-344.0-0.0","1633.7999999970198","","","","56","","","","297","probe-107","","","","","1","[object Object]","207","5","1",""
"","do_trial","370","2362981","0.0-345.0-0.0","510.1000000089407","","","","50","0,1,0","6","blank","298","null","0.11498367569653599","0.6167759707737437","0.3306823999424554","1","","","","","",""
"","do_trial","371","2367174","0.0-346.0-0.0","652.2999999970198","","","","49","0,0,1","6","blank","299","null","0.0567637810276915","0.7340005508693166","0.3517135095078218","0","","","","","",""
"","do_trial","372","2371067","0.0-347.0-0.0","347.29999999701977","","","","50","0,1,0","6","blank","300","null","0.07310450451509425","0.6712239768663367","0.3880213513068194","1","","","","","",""
"","do_recog","373","2373413","0.0-348.0-0.0","824","","","","56","","","","301","probe-70","","","","","1","[object Object]","45","1","1",""
"","do_trial","374","2377474","0.0-349.0-0.0","519","","","","49","0,1,1","6","blank","302","null","0.09086064308862687","0.8131515790411655","0.3527081652857072","0","","","","","",""
"","do_trial","375","2381375","0.0-350.0-0.0","370.1000000089407","","","","50","0,1,1","6","blank","303","null","0.20323434118997888","0.9383658780111572","0.32582934400354807","1","","","","","",""
"","do_recog","376","2383652","0.0-351.0-0.0","764.5","","","","56","","","","304","probe-188","","","","","1","[object Object]","85","2","1",""
"","do_trial","377","2387703","0.0-352.0-0.0","513.0999999940395","","","","51","0,1,0","6","blank","305","null","0.16667457083270254","0.9278390313500086","0.31269458371384273","0","","","","","",""
"","do_trial","378","2391609","0.0-353.0-0.0","366.20000000298023","","","","50","0,1,0","6","blank","306","null","0.14706410944378426","0.9412861180743489","0.29818759320593247","1","","","","","",""
"","do_recog","379","2394601","0.0-354.0-0.0","1482.7000000029802","","","","55","","","","307","probe-221","","","","","1","[object Object]","169","4","1",""
"","do_trial","380","2398900","0.0-355.0-0.0","759.2999999970198","","","","51","0,1,0","6","blank","308","null","0.14123857900540937","0.9497056999126681","0.3756183083312068","0","","","","","",""
"","do_recog","381","2401408","0.0-356.0-0.0","999.4000000059605","","","","56","","","","309","probe-33","","","","","1","[object Object]","42","1","1",""
"","do_trial","382","2405211","0.0-357.0-0.0","269.79999999701977","","","","50","0,1,0","6","blank","310","null","0.11723146659160087","0.8731420852981091","0.40582279273374616","1","","","","","",""
"","do_recog","383","2407424","0.0-358.0-0.0","696.2000000029802","","","","56","","","","311","probe-182","","","","","1","[object Object]","47","1","1",""
"","do_trial","384","2411685","0.0-359.0-0.0","713.7000000029802","","","","51","0,1,1","6","blank","312","null","0.1262954355455572","0.8441391840860925","0.4234962391865681","1","","","","","",""
"","do_trial","385","2415859","0.0-360.0-0.0","640.0999999940395","","","","49","0,1,0","6","blank","313","null","0.07130657618955737","0.819194965339126","0.3725456224744275","0","","","","","",""
"","do_trial","386","2420213","0.0-361.0-0.0","809.7999999970198","","","","51","0,1,0","6","blank","314","null","0.13858607073990753","0.8948929924535769","0.5291541809496352","0","","","","","",""
"","do_trial","387","2424080","0.0-362.0-0.0","327.20000000298023","","","","50","0,1,0","6","blank","315","null","0.07187872466491436","0.7994587263516104","0.6961366040698124","1","","","","","",""
"","do_trial","388","2428306","0.0-363.0-0.0","685.8000000119209","","","","49","0,1,0","6","blank","316","null","0.10473804499485198","0.7108359950222649","0.5783877476906236","0","","","","","",""
"","do_recog","389","2430967","0.0-364.0-0.0","1144","","","","56","","","","317","probe-48","","","","","1","[object Object]","203","5","1",""
"","do_trial","390","2435134","0.0-365.0-0.0","624.2000000029802","","","","51","0,1,0","6","blank","318","null","0.13930821076370437","0.8795734188617286","0.4181995208781743","0","","","","","",""
"","do_trial","391","2438922","0.0-366.0-0.0","240.3999999910593","","","","49","0,1,0","6","blank","319","null","0.09935170524166748","0.8257407654755913","0.5128826696654032","0","","","","","",""
"","do_trial","392","2442800","0.0-367.0-0.0","344","","","","50","1,1,0","6","blank","320","null","0.07984196326411767","0.8288042856418565","0.6512195188868413","1","","","","","",""
"","do_trial","393","2446570","0.0-368.0-0.0","236.70000000298023","","","","49","1,1,0","6","blank","321","null","0.05213033572322395","1","0.5923489060437859","1","","","","","",""
"","do_recog","394","2448884","0.0-369.0-0.0","791.7999999970198","","","","56","","","","322","probe-144","","","","","1","[object Object]","204","5","1",""
"","do_trial","395","2452968","0.0-370.0-0.0","546.3999999910593","","","","51","1,1,0","6","blank","323","null","0.14916108169751313","0.920296068029054","0.4245812077569705","0","","","","","",""
"","do_recog","396","2455372","0.0-371.0-0.0","890.3000000119209","","","","56","","","","324","probe-131","","","","","1","[object Object]","43","1","1",""
"","do_trial","397","2459435","0.0-372.0-0.0","519.6999999880791","","","","49","0,1,0","6","blank","325","null","0.066661388012825","0.8305432874862608","0.46070414444235275","0","","","","","",""
"","do_recog","398","2461977","0.0-373.0-0.0","1021.7999999970198","","","","56","","","","326","probe-170","","","","","1","[object Object]","123","3","1",""
"","do_trial","399","2467068","0.0-374.0-0.0","1553.7999999970198","","","","50","0,1,0","6","blank","327","null","0.07662198310734929","0.727300770066154","0.4265956427125655","1","","","","","",""
"","do_recog","400","2469312","0.0-375.0-0.0","733.2000000029802","","","","56","","","","328","probe-91","","","","","1","[object Object]","89","2","1",""
"","do_trial","401","2473822","0.0-376.0-0.0","971","","","","51","1,1,0","6","blank","329","null","0.10716631629880839","0.7064487867683172","0.2824618490719864","0","","","","","",""
"","do_recog","402","2476340","0.0-377.0-0.0","996.7999999970198","","","","55","","","","330","probe-175","","","","","1","[object Object]","202","5","1",""
"","do_trial","403","2480525","0.0-378.0-0.0","647.5999999940395","","","","51","0,1,0","6","blank","331","null","0.1534046473681041","0.8744859433181233","0.3211389039402283","0","","","","","",""
"","do_recog","404","2482973","0.0-379.0-0.0","931.2000000029802","","","","55","","","","332","probe-165","","","","","1","[object Object]","122","3","1",""
"","do_trial","405","2487296","0.0-380.0-0.0","780.6000000089407","","","","49","0,1,0","6","blank","333","null","0.1539795657897441","0.7713859934854024","0.4564482658118104","0","","","","","",""
"","do_recog","406","2489435","0.0-381.0-0.0","634","","","","56","","","","334","probe-224","","","","","1","[object Object]","126","3","1",""
"","do_trial","407","2493308","0.0-382.0-0.0","335.29999999701977","","","","49","0,1,0","6","blank","335","null","0.12474326205140768","0.8723447929834482","0.35593773735508677","0","","","","","",""
"","do_recog","408","2495377","0.0-383.0-0.0","558","","","","56","","","","336","probe-39","","","","","1","[object Object]","87","2","1",""
"","do_trial","409","2499509","0.0-384.0-0.0","595.0999999940395","","","","51","0,0,0","6","blank","337","null","0.1682970465341683","0.658502893377701","0.3088759442995522","0","","","","","",""
"","do_recog","410","2501762","0.0-385.0-0.0","731.2000000029802","","","","56","","","","338","probe-46","","","","","1","[object Object]","86","2","1",""
"","do_trial","411","2505895","0.0-386.0-0.0","593.7999999970198","","","","50","0,0,0","6","blank","339","null","0.14038551267864155","0.6581538809180372","0.33707632542331994","0","","","","","",""
"","do_trial","412","2509962","0.0-387.0-0.0","521.4000000059605","","","","49","0,0,0","6","blank","340","null","0.33393350212975975","0.4258423666743619","0.340801929478538","0","","","","","",""
"","do_trial","413","2514107","0.0-388.0-0.0","596.9000000059605","","","","51","0,0,0","6","blank","341","null","0.5821732381805346","0.13446248385954793","0.36035043667845407","0","","","","","",""
"","do_trial","414","2517871","0.0-389.0-0.0","231.29999999701977","","","","50","0,0,0","6","blank","342","null","0.6497484877156287","0.11957540258719006","0.3601465725312848","0","","","","","",""
"","do_trial","415","2521848","0.0-390.0-0.0","439.1000000089407","","","","50","0,1,1","6","blank","343","null","0.7393821074729949","0.2879801917215176","0.4602006309171508","1","","","","","",""
"","do_trial","416","2525900","0.0-391.0-0.0","515.6000000089407","","","","51","0,0,0","6","blank","344","null","0.686940161735476","0.27342215018180765","0.37153546659325865","0","","","","","",""
"","do_recog","417","2528311","0.0-392.0-0.0","901.5","","","","56","","","","345","probe-74","","","","","1","[object Object]","165","4","1",""
"","do_trial","418","2532403","0.0-393.0-0.0","557.7999999970198","","","","49","0,0,0","6","blank","346","null","0.7607593121655107","0.16004150913832801","0.3357026309299441","0","","","","","",""
"","do_recog","419","2534993","0.0-394.0-0.0","1069.8999999910593","","","","56","","","","347","probe-203","","","","","1","[object Object]","88","2","1",""
"","do_trial","420","2539139","0.0-395.0-0.0","603.7000000029802","","","","51","1,0,1","6","blank","348","null","0.6715612638722993","0.20622695808074215","0.40888569332469604","1","","","","","",""
"","do_recog","421","2542203","0.0-396.0-0.0","1548.2000000029802","","","","55","","","","349","probe-253","","","","","0","[object Object]","null","null","0",""
"","do_trial","422","2548092","0.0-397.0-0.0","2351.8999999910593","","","","49","1,0,1","6","blank","350","null","0.6764695659288639","0.06472962983768335","0.3878949153494785","1","","","","","",""
"","do_trial","423","2552621","0.0-398.0-0.0","999.0999999940395","","","","50","1,0,0","6","blank","351","null","0.5593178973134132","0.07784231261590714","0.25489899223504703","0","","","","","",""
"","do_recog","424","2555707","0.0-399.0-0.0","1578.0999999940395","","","","55","","","","352","probe-243","","","","","0","[object Object]","null","null","0",""
"","do_trial","425","2561596","0.0-400.0-0.0","2350.6000000089407","","","","51","0,0,1","6","blank","353","null","0.6929807614112589","0.21743960223645428","0.2515693464666556","1","","","","","",""
"","do_trial","426","2566146","0.0-401.0-0.0","1013.4000000059605","","","","50","0,1,1","6","blank","354","null","0.7089384547390216","0.2191299217358826","0.4076779158505642","1","","","","","",""
"","do_trial","427","2570541","0.0-402.0-0.0","862.4000000059605","","","","51","0,0,0","6","blank","355","null","0.5873426813376306","0.3229511644922784","0.43635739876949897","0","","","","","",""
"","do_recog","428","2573552","0.0-403.0-0.0","1499.4000000059605","","","","56","","","","356","probe-04","","","","","1","[object Object]","168","4","1",""
"","do_trial","429","2578596","0.0-404.0-0.0","1507.8999999910593","","","","51","1,0,1","6","blank","357","null","0.746001047892465","0.21925116530546102","0.33707546975340835","1","","","","","",""
"","do_trial","430","2582712","0.0-405.0-0.0","578.4000000059605","","","","50","1,0,0","6","blank","358","null","0.8410207588594518","0.2492527948999778","0.2625923072411651","0","","","","","",""
"","do_trial","431","2587603","0.0-406.0-0.0","1347.2999999970198","","","","51","1,0,0","6","blank","359","null","0.9132844606132278","0.07731367988322395","0.3559034084321512","0","","","","","",""
"","do_trial","432","2591718","0.0-407.0-0.0","570","","","","51","1,0,0","6","blank","360","null","0.9150673179070572","0.20446914026326865","0.35397834665034716","0","","","","","",""
"","do_recog","433","2594064","0.0-408.0-0.0","824","","","","56","","","","361","probe-227","","","","","1","[object Object]","208","5","1",""
"","do_trial","434","2598312","0.0-409.0-0.0","712.4000000059605","","","","51","1,0,0","6","blank","362","null","0.8206668317375791","0.22269811778079043","0.3406285179238165","0","","","","","",""
"","do_recog","435","2601320","0.0-410.0-0.0","1495.3999999910593","","","","56","","","","363","probe-75","","","","","1","[object Object]","209","5","1",""
"","do_trial","436","2606891","0.0-411.0-0.0","2040.7000000029802","","","","51","1,0,1","6","blank","364","null","0.8507766123461583","0.17617011370570232","0.45257512374873243","1","","","","","",""
"","do_trial","437","2612213","0.0-412.0-0.0","1781.7000000029802","","","","50","1,0,1","6","blank","365","null","0.8311677387561419","0.2275951239602871","0.5571057013537281","0","","","","","",""
"","do_trial","438","2617702","0.0-413.0-0.0","1945.5999999940395","","","","51","1,0,1","6","blank","366","null","0.6897355889913845","0.19335524302838958","0.4686925977075172","1","","","","","",""
"","do_recog","439","2621786","0.0-414.0-0.0","2576.3999999910593","","","","56","","","","367","probe-28","","","","","1","[object Object]","127","3","1",""
"","do_trial","440","2627436","0.0-415.0-0.0","2110","","","","51","1,0,0","6","blank","368","null","1","0.06017867905214045","0.3935746512967595","0","","","","","",""
"","do_recog","441","2630631","0.0-416.0-0.0","1682.4000000059605","","","","56","","","","369","probe-251","","","","","0","[object Object]","null","null","0",""
"","do_trial","442","2636394","0.0-417.0-0.0","2234.2999999970198","","","","51","1,0,1","6","blank","370","null","0.9443137951622927","0.13467612380404534","0.4043448803075694","1","","","","","",""
"","do_recog","443","2639389","0.0-418.0-0.0","1485.1000000089407","","","","56","","","","371","probe-01","","","","","1","[object Object]","162","4","1",""
"","do_trial","444","2643402","0.0-419.0-0.0","475.69999998807907","","","","49","1,0,0","6","blank","372","null","0.720880774918754","0.11582850723585145","0.3573996443977619","1","","","","","",""
"","do_recog","445","2645630","0.0-420.0-0.0","716.7999999970198","","","","56","","","","373","probe-179","","","","","1","[object Object]","81","2","1",""
"","do_trial","446","2649592","0.0-421.0-0.0","417.5","","","","50","0,0,1","6","blank","374","null","0.785353495020067","0.07561844248869364","0.3684865593872297","0","","","","","",""
"","do_recog","447","2651899","0.0-422.0-0.0","791","","","","56","","","","375","probe-137","","","","","1","[object Object]","46","1","1",""
"","do_trial","448","2655944","0.0-423.0-0.0","510.40000000596046","","","","49","1,0,0","6","blank","376","null","0.766093838297289","0.0749219817856698","0.5015692339023097","1","","","","","",""
"","do_trial","449","2660314","0.0-424.0-0.0","833","","","","50","1,1,0","6","blank","377","null","0.8721990087181606","0.1730026179734135","0.5219408102027994","1","","","","","",""
"","do_trial","450","2664427","0.0-425.0-0.0","581.7000000029802","","","","50","1,0,0","6","blank","378","null","0.8941796011015885","0.05160748434045798","0.3897285581403815","0","","","","","",""
"","do_recog","451","2666561","0.0-426.0-0.0","612.2000000029802","","","","56","","","","379","probe-120","","","","","1","[object Object]","84","2","1",""
"","do_trial","452","2670708","0.0-427.0-0.0","613.0999999940395","","","","49","1,0,1","6","blank","380","null","0.9327563547249268","0.1674927725459262","0.2974736813852594","1","","","","","",""
"","do_recog","453","2674758","0.0-428.0-0.0","2529","","","","53","","","","381","probe-113","","","","","1","[object Object]","167","4","0",""
"","do_trial","454","2678861","0.0-429.0-0.0","562.4000000059605","","","","50","1,0,0","6","blank","382","null","0.8690454931168392","0.13229244965419115","0.3082316129647343","0","","","","","",""
"","do_trial","455","2682871","0.0-430.0-0.0","474.59999999403954","","","","49","1,0,0","6","blank","383","null","0.8681890316384987","0.06462657423942927","0.4181785454623894","1","","","","","",""
"","do_recog","456","2685613","0.0-431.0-0.0","1225.3999999910593","","","","56","","","","384","probe-151","","","","","1","[object Object]","161","4","1",""
"","do_trial","457","2690120","0.0-432.0-0.0","968.5","","","","50","1,0,0","6","blank","385","null","0.5086812056223132","0.27198807046881496","0.39284608209113364","0","","","","","",""
"","do_recog","458","2692987","0.0-433.0-0.0","1359","","","","56","","","","386","probe-255","","","","","0","[object Object]","null","null","0",""
"","do_trial","459","2696982","0.0-434.0-0.0","456.59999999403954","","","","49","0,0,1","6","blank","387","null","0.45365123372946825","0.38863945494181734","0.41397711970211193","0","","","","","",""
"","do_recog","460","2699680","0.0-435.0-0.0","1177.5","","","","55","","","","388","probe-109","","","","","1","[object Object]","163","4","1",""
"","do_trial","461","2703847","0.0-436.0-0.0","619.2000000029802","","","","50","0,0,0","6","blank","389","null","0.1982034482243278","0.55649817483431","0.4129244471772294","0","","","","","",""
"","do_recog","462","2706152","0.0-437.0-0.0","793.8000000119209","","","","56","","","","390","probe-29","","","","","1","[object Object]","49","1","1",""
"","do_trial","463","2710391","0.0-438.0-0.0","696.5999999940395","","","","51","0,1,0","6","blank","391","null","0.17427263529039677","0.5648221136061901","0.4528428749676552","0","","","","","",""
"","do_recog","464","2712565","0.0-439.0-0.0","665.9000000059605","","","","56","","","","392","probe-05","","","","","1","[object Object]","206","5","1",""
"","do_trial","465","2716840","0.0-440.0-0.0","732.2000000029802","","","","50","0,0,0","6","blank","393","null","0.06399486780490828","0.7255693796211774","0.4645868891211809","0","","","","","",""
"","do_recog","466","2719193","0.0-441.0-0.0","840.5999999940395","","","","56","","","","394","probe-242","","","","","0","[object Object]","null","null","0",""
"","do_trial","467","2723556","0.0-442.0-0.0","831.8999999910593","","","","49","0,1,0","6","blank","395","null","0.17205855281146673","0.6912383000853676","0.4164006198393134","0","","","","","",""
"","do_recog","468","2726354","0.0-443.0-0.0","1284.6000000089407","","","","56","","","","396","probe-81","","","","","1","[object Object]","164","4","1",""
"","do_trial","469","2730369","0.0-444.0-0.0","487.29999999701977","","","","50","0,0,0","6","blank","397","null","0.15245910568890625","0.6246809417491643","0.43285267641376807","0","","","","","",""
"","do_recog","470","2733061","0.0-445.0-0.0","1176.4000000059605","","","","56","","","","398","probe-54","","","","","1","[object Object]","201","5","1",""
"","do_trial","471","2737911","0.0-446.0-0.0","1314.7000000029802","","","","51","0,1,0","6","blank","399","null","0.06692821194193053","0.667008325006641","0.5087823806348694","0","","","","","",""
"","do_trial","472","2741985","0.0-447.0-0.0","542.7000000029802","","","","50","0,1,0","6","blank","400","null","0.09755030563584986","0.762867914487079","0.7079610660027227","1","","","","","",""
"","do_recog","473","2744544","0.0-448.0-0.0","1054.9000000059605","","","","55","","","","401","probe-246","","","","","0","[object Object]","null","null","0",""
"","do_trial","474","2748830","0.0-449.0-0.0","735.8999999910593","","","","49","0,0,0","6","blank","402","null","0.052922514560146655","0.7041732698851643","0.5524565835101402","0","","","","","",""
"","do_recog","475","2751731","0.0-450.0-0.0","1393.5","","","","55","","","","403","probe-241","","","","","0","[object Object]","null","null","0",""
"","do_trial","476","2756653","0.0-451.0-0.0","1388","","","","49","0,0,1","6","blank","404","null","0.10911643485148305","0.5961477192381652","0.4643125511865054","0","","","","","",""
"","do_recog","477","2758990","0.0-452.0-0.0","826","","","","55","","","","405","probe-257","","","","","0","[object Object]","null","null","0",""
"","do_trial","478","2762985","0.0-453.0-0.0","457.90000000596046","","","","50","0,0,1","6","blank","406","null","0.08666675935843879","0.6935366173568726","0.6096035975851664","0","","","","","",""
"","do_trial","479","2766954","0.0-454.0-0.0","437.29999999701977","","","","49","0,0,1","6","blank","407","null","0.20115037951433926","0.6601434174873977","0.4111484788813365","0","","","","","",""
"","do_trial","480","2771244","0.0-455.0-0.0","752.7000000029802","","","","50","0,0,0","6","blank","408","null","0.1853672333261871","0.6482909244941374","0.23772793350038232","0","","","","","",""
