"success","trial_type","trial_index","time_elapsed","internal_node_id","interactions","blur_events","focus_events","fullscreenenter_events","fullscreenexit_events","rt","stimulus","key_press","subject_id","participant_id","age","gender","prompt","response","choice_outcomes","context_n","context_img_id","trial_n","probe_img_id","pR_red","pR_white","pR_black","outcome","contextArray_ind","validImageProbes","invalidImageProbes","pRew_Red","pRew_White","pRew_Black","availableForMemProbe","choice_blocks"
"true","fullscreen","0","6372","0.0-0.0","""event"",""trial"",""time""
""fullscreenenter"",""0"",""5390""
","
","
","""event"",""trial"",""time""
""fullscreenenter"",""0"",""5390""
","
","","","","","","","","","","","","","","","","","","","","","","","","","",""
"","pavlovia","1","6379","0.0-1.0","""event"",""trial"",""time""
""fullscreenenter"",""0"",""5390""
","
","
","""event"",""trial"",""time""
""fullscreenenter"",""0"",""5390""
","
","","","","","","","","","","","","","","","","","","","","","","","","","",""
"","instruc1","2","51497","0.0-2.0","""event"",""trial"",""time""
""fullscreenenter"",""0"",""5390""
","
","
","""event"",""trial"",""time""
""fullscreenenter"",""0"",""5390""
","
","null","run_exp/static/audio/clip_1_welcome.m4a","null","318","363","18","Female","<div class='center'><p>Welcome! This is the first part of the study. It will last ~30 minutes. In part 1 and part 2 of the study, you are the head captain of a pirate ship traveling around the world to different islands. You will play a few different games throughout these two parts. Here is an overview of them:</p><br><p>Part 1 (today)</p><p>1. Instructions, practice game, and quiz</p><p>2. Pick a pirate game on 6 different islands</p><br><p>Part 2 (tomorrow)</p><p>3. Pick a pirate game and memory game</p><p>4. Where did you see this ship? </p></div>","","","","","","","","","","","","","","","","","",""
"","html-keyboard-response","3","51681","0.0-3.0","""event"",""trial"",""time""
""fullscreenenter"",""0"",""5390""
","
","
","""event"",""trial"",""time""
""fullscreenenter"",""0"",""5390""
","
","180","<div class='center'><p>Welcome! This is the first part of the study. It will last ~30 minutes. In part 1 and part 2 of the study, you are the head captain of a pirate ship traveling around the world to different islands. You will play a few different games throughout these two parts. Here is an overview of them:</p><br><p>Part 1 (today)</p><p>1. Instructions, practice game, and quiz</p><p>2. Pick a pirate game on 6 different islands</p><br><p>Part 2 (tomorrow)</p><p>3. Pick a pirate game and memory game</p><p>4. Where did you see this ship? </p><p><b>[Press the space bar to continue]</b></p></div>","32","","","","","","","","","","","","","","","","","","","","","","",""
"","instruc2","4","56995","0.0-4.0","""event"",""trial"",""time""
""fullscreenenter"",""0"",""5390""
","
","
","""event"",""trial"",""time""
""fullscreenenter"",""0"",""5390""
","
","null","run_exp/static/audio/clip_2_different_places.m4a","null","","","","","<div class='center'><p>Today, you’ll visit these 6 islands on your journey. You'll be able to see these islands from your ship.</p><p><img src='run_exp/static/images/contexts/all_contexts.png' height='500'></p></div>","","","","","","","","","","","","","","","","","",""
"","html-keyboard-response","5","67331","0.0-5.0","""event"",""trial"",""time""
""fullscreenenter"",""0"",""5390""
","
","
","""event"",""trial"",""time""
""fullscreenenter"",""0"",""5390""
","
","10332.5","<div class='center'><p>Today, you’ll visit these 6 islands on your journey. You'll be able to see these islands from your ship.</p><p><img src='run_exp/static/images/contexts/all_contexts.png' height='500'></p><p><b>[Press the space bar to continue]</b></p></div>","32","","","","","","","","","","","","","","","","","","","","","","",""
"","instruc3","6","77005","0.0-6.0","""event"",""trial"",""time""
""fullscreenenter"",""0"",""5390""
","
","
","""event"",""trial"",""time""
""fullscreenenter"",""0"",""5390""
","
","null","run_exp/static/audio/clip_3_goal_of_game_1.m4a","null","","","","","<div class='center'><p> The pirates on your ship will rob other ships as they leave the island.</p> These ships have just sold their goods to the islanders, so they will be filled with lots and lots of gold.</p><p><img src='run_exp/static/images/tutorial/ship_center.png' height='400'></p></div>","","","","","","","","","","","","","","","","","",""
"","html-keyboard-response","7","84422","0.0-7.0","""event"",""trial"",""time""
""fullscreenenter"",""0"",""5390""
","
","
","""event"",""trial"",""time""
""fullscreenenter"",""0"",""5390""
","
","7414.699999988079","<div class='center'><p> The pirates on your ship will rob other ships as they leave the island.</p> These ships have just sold their goods to the islanders, so they will be filled with lots and lots of gold.</p><p><img src='run_exp/static/images/tutorial/ship_center.png' height='400'></p><p><b>[Press the space bar to continue]</b></p></div>","32","","","","","","","","","","","","","","","","","","","","","","",""
"","instruc4","8","112425","0.0-8.0","""event"",""trial"",""time""
""fullscreenenter"",""0"",""5390""
","
","
","""event"",""trial"",""time""
""fullscreenenter"",""0"",""5390""
","
","null","run_exp/static/audio/clip_4_goal_of_game_2.m4a","null","","","","","<div class='center'><p>As the head captain, you do not have to rob any ships yourself. Another pirate will be doing the robbing for you. First, you will choose a pirate to rob the next ship.</p><p><img src='run_exp/static/images/tutorial/pirates_all_crop.png' height='200'></p><p>Then, you'll see if the pirate successfully robbed the ship of their gold. If they were successful, then you'll get a stack of gold coins like this:</p><p><img src='run_exp/static/images/tutorial/reward.png' height='150'></p><p> If they were <b>not</b> successful, then you'll get no gold coins, and you'll see a big red x like this: </p><p><img src='run_exp/static/images/tutorial/reward_no.png' height='150'></p><p> How much bonus money you make is based on how many gold coins you collect.</p><div>","","","","","","","","","","","","","","","","","",""
"","html-keyboard-response","9","113677","0.0-9.0","""event"",""trial"",""time""
""fullscreenenter"",""0"",""5390""
","
","
","""event"",""trial"",""time""
""fullscreenenter"",""0"",""5390""
","
","1247.2000000476837","<div class='center'><p>As the head captain, you do not have to rob any ships yourself. Another pirate will be doing the robbing for you. First, you will choose a pirate to rob the next ship.</p><p><img src='run_exp/static/images/tutorial/pirates_all_crop.png' height='200'></p><p>Then, you'll see if the pirate successfully robbed the ship of their gold. If they were successful, then you'll get a stack of gold coins like this:</p><p><img src='run_exp/static/images/tutorial/reward.png' height='150'></p><p> If they were <b>not</b> successful, then you'll get no gold coins, and you'll see a big red x like this: </p><p><img src='run_exp/static/images/tutorial/reward_no.png' height='150'></p><p> How much bonus money you make is based on how many gold coins you collect.</p<p><b>[Press the space bar to continue]</b></p></div>","32","","","","","","","","","","","","","","","","","","","","","","",""
"","instruc5","10","137514","0.0-10.0","""event"",""trial"",""time""
""fullscreenenter"",""0"",""5390""
","
","
","""event"",""trial"",""time""
""fullscreenenter"",""0"",""5390""
","
","23833.19999998808","run_exp/static/audio/clip_5_probabilistic.m4a","49","","","","","<div class='center'><p>Even the most skilled pirate can not rob EVERY ship.</p><p> Some ships will have very strong protections against pirate attacks.</p><p> Blue beard, here, is very, very good at robbing ships, but he won't be successful every time he tries to rob one.</p><p> You can press the <b>‘1’</b> key on the keyboard to choose him.</p><p> Try choosing him 10 times to see how often he succeeds at robbing a ship. </p><p><img src='run_exp/static/images/tutorial/blue.png' height='500'></p></div>","","","","","","","","","","","","","","","","","",""
"","html-keyboard-response","11","139025","0.0-11.0","""event"",""trial"",""time""
""fullscreenenter"",""0"",""5390""
","
","
","""event"",""trial"",""time""
""fullscreenenter"",""0"",""5390""
","
","null","<div class='center'><p><img src='run_exp/static/images/tutorial/blue_win.png' height='500'></p></div>","null","","","","","","","","","","","","","","","","","","","","","","",""
"","html-keyboard-response","12","139199","0.0-12.0","""event"",""trial"",""time""
""fullscreenenter"",""0"",""5390""
","
","
","""event"",""trial"",""time""
""fullscreenenter"",""0"",""5390""
","
","172.5999999642372","<div class='center'><img src='run_exp/static/images/tutorial/blue.png' height='500'></p></div>","49","","","","","","","","","","","","","","","","","","","","","","",""
"","html-keyboard-response","13","140710","0.0-13.0","""event"",""trial"",""time""
""fullscreenenter"",""0"",""5390""
","
","
","""event"",""trial"",""time""
""fullscreenenter"",""0"",""5390""
","
","null","<div class='center'><p><img src='run_exp/static/images/tutorial/blue_win.png' height='500'></p></div>","null","","","","","","","","","","","","","","","","","","","","","","",""
"","html-keyboard-response","14","141807","0.0-14.0","""event"",""trial"",""time""
""fullscreenenter"",""0"",""5390""
","
","
","""event"",""trial"",""time""
""fullscreenenter"",""0"",""5390""
","
","1095.3999999761581","<div class='center'><img src='run_exp/static/images/tutorial/blue.png' height='500'></p></div>","49","","","","","","","","","","","","","","","","","","","","","","",""
"","html-keyboard-response","15","143322","0.0-15.0","""event"",""trial"",""time""
""fullscreenenter"",""0"",""5390""
","
","
","""event"",""trial"",""time""
""fullscreenenter"",""0"",""5390""
","
","null","<div class='center'><p><img src='run_exp/static/images/tutorial/blue_win.png' height='500'></p></div>","null","","","","","","","","","","","","","","","","","","","","","","",""
"","html-keyboard-response","16","144278","0.0-16.0","""event"",""trial"",""time""
""fullscreenenter"",""0"",""5390""
","
","
","""event"",""trial"",""time""
""fullscreenenter"",""0"",""5390""
","
","954.3999999761581","<div class='center'><img src='run_exp/static/images/tutorial/blue.png' height='500'></p></div>","49","","","","","","","","","","","","","","","","","","","","","","",""
"","html-keyboard-response","17","145785","0.0-17.0","""event"",""trial"",""time""
""fullscreenenter"",""0"",""5390""
","
","
","""event"",""trial"",""time""
""fullscreenenter"",""0"",""5390""
","
","null","<div class='center'><p><img src='run_exp/static/images/tutorial/blue_no_win.png' height='500'></p></div>","null","","","","","","","","","","","","","","","","","","","","","","",""
"","html-keyboard-response","18","146283","0.0-18.0","""event"",""trial"",""time""
""fullscreenenter"",""0"",""5390""
","
","
","""event"",""trial"",""time""
""fullscreenenter"",""0"",""5390""
","
","495.80000001192093","<div class='center'><img src='run_exp/static/images/tutorial/blue.png' height='500'></p></div>","49","","","","","","","","","","","","","","","","","","","","","","",""
"","html-keyboard-response","19","147792","0.0-19.0","""event"",""trial"",""time""
""fullscreenenter"",""0"",""5390""
","
","
","""event"",""trial"",""time""
""fullscreenenter"",""0"",""5390""
","
","null","<div class='center'><p><img src='run_exp/static/images/tutorial/blue_win.png' height='500'></p></div>","null","","","","","","","","","","","","","","","","","","","","","","",""
"","html-keyboard-response","20","149446","0.0-20.0","""event"",""trial"",""time""
""fullscreenenter"",""0"",""5390""
","
","
","""event"",""trial"",""time""
""fullscreenenter"",""0"",""5390""
","
","1653.5","<div class='center'><img src='run_exp/static/images/tutorial/blue.png' height='500'></p></div>","49","","","","","","","","","","","","","","","","","","","","","","",""
"","html-keyboard-response","21","150949","0.0-21.0","""event"",""trial"",""time""
""fullscreenenter"",""0"",""5390""
","
","
","""event"",""trial"",""time""
""fullscreenenter"",""0"",""5390""
","
","null","<div class='center'><p><img src='run_exp/static/images/tutorial/blue_win.png' height='500'></p></div>","null","","","","","","","","","","","","","","","","","","","","","","",""
"","html-keyboard-response","22","151412","0.0-22.0","""event"",""trial"",""time""
""fullscreenenter"",""0"",""5390""
","
","
","""event"",""trial"",""time""
""fullscreenenter"",""0"",""5390""
","
","461.5","<div class='center'><img src='run_exp/static/images/tutorial/blue.png' height='500'></p></div>","49","","","","","","","","","","","","","","","","","","","","","","",""
"","html-keyboard-response","23","152925","0.0-23.0","""event"",""trial"",""time""
""fullscreenenter"",""0"",""5390""
","
","
","""event"",""trial"",""time""
""fullscreenenter"",""0"",""5390""
","
","null","<div class='center'><p><img src='run_exp/static/images/tutorial/blue_win.png' height='500'></p></div>","null","","","","","","","","","","","","","","","","","","","","","","",""
"","html-keyboard-response","24","153301","0.0-24.0","""event"",""trial"",""time""
""fullscreenenter"",""0"",""5390""
","
","
","""event"",""trial"",""time""
""fullscreenenter"",""0"",""5390""
","
","374.60000002384186","<div class='center'><img src='run_exp/static/images/tutorial/blue.png' height='500'></p></div>","49","","","","","","","","","","","","","","","","","","","","","","",""
"","html-keyboard-response","25","154817","0.0-25.0","""event"",""trial"",""time""
""fullscreenenter"",""0"",""5390""
","
","
","""event"",""trial"",""time""
""fullscreenenter"",""0"",""5390""
","
","null","<div class='center'><p><img src='run_exp/static/images/tutorial/blue_no_win.png' height='500'></p></div>","null","","","","","","","","","","","","","","","","","","","","","","",""
"","html-keyboard-response","26","155874","0.0-26.0","""event"",""trial"",""time""
""fullscreenenter"",""0"",""5390""
","
","
","""event"",""trial"",""time""
""fullscreenenter"",""0"",""5390""
","
","1054.8999999761581","<div class='center'><img src='run_exp/static/images/tutorial/blue.png' height='500'></p></div>","49","","","","","","","","","","","","","","","","","","","","","","",""
"","html-keyboard-response","27","157377","0.0-27.0","""event"",""trial"",""time""
""fullscreenenter"",""0"",""5390""
","
","
","""event"",""trial"",""time""
""fullscreenenter"",""0"",""5390""
","
","null","<div class='center'><p><img src='run_exp/static/images/tutorial/blue_win.png' height='500'></p></div>","null","","","","","","","","","","","","","","","","","","","","","","",""
"","html-keyboard-response","28","157888","0.0-28.0","""event"",""trial"",""time""
""fullscreenenter"",""0"",""5390""
","
","
","""event"",""trial"",""time""
""fullscreenenter"",""0"",""5390""
","
","508.80000001192093","<div class='center'><img src='run_exp/static/images/tutorial/blue.png' height='500'></p></div>","49","","","","","","","","","","","","","","","","","","","","","","",""
"","html-keyboard-response","29","159404","0.0-29.0","""event"",""trial"",""time""
""fullscreenenter"",""0"",""5390""
","
","
","""event"",""trial"",""time""
""fullscreenenter"",""0"",""5390""
","
","null","<div class='center'><p><img src='run_exp/static/images/tutorial/blue_win.png' height='500'></p></div>","null","","","","","","","","","","","","","","","","","","","","","","",""
"","instruc6","30","164804","0.0-30.0","""event"",""trial"",""time""
""fullscreenenter"",""0"",""5390""
","
","
","""event"",""trial"",""time""
""fullscreenenter"",""0"",""5390""
","
","null","run_exp/static/audio/clip_6_blue_beard_outcome.m4a","null","","","","","<div class='center'><p> See, he succeeded in robbing the ships most of the time but not every time. </p></div>","","","","","","","","","","","","","","","","","",""
"","html-keyboard-response","31","166074","0.0-31.0","""event"",""trial"",""time""
""fullscreenenter"",""0"",""5390""
","
","
","""event"",""trial"",""time""
""fullscreenenter"",""0"",""5390""
","
","1268.300000011921","<div class='center'><p> See, he succeeded in robbing the ships most of the time but not every time. </p><p><b>[Press the space bar to continue]</b></p></div>","32","","","","","","","","","","","","","","","","","","","","","","",""
"","audio-keyboard-response","32","183636","0.0-32.0","""event"",""trial"",""time""
""fullscreenenter"",""0"",""5390""
","
","
","""event"",""trial"",""time""
""fullscreenenter"",""0"",""5390""
","
","17560.19999998808","run_exp/static/audio/clip_7_pick_pirate.m4a","50","","","","","","","","","","","","","","","","","","","","","","",""
"","audio-keyboard-response","33","188140","0.0-33.0-0.0","""event"",""trial"",""time""
""fullscreenenter"",""0"",""5390""
","
","
","""event"",""trial"",""time""
""fullscreenenter"",""0"",""5390""
","
","4501.199999988079","run_exp/static/audio/clip_8_chosen_pirate_win.m4a","32","","","","","","","","","","","","","","","","","","","","","","",""
"","audio-keyboard-response","34","190786","0.0-33.0-1.0","""event"",""trial"",""time""
""fullscreenenter"",""0"",""5390""
","
","
","""event"",""trial"",""time""
""fullscreenenter"",""0"",""5390""
","
","2642.199999988079","run_exp/static/audio/clip_9_pick_a_pirate_again.m4a","49","","","","","","","","","","","","","","","","","","","","","","",""
"","audio-keyboard-response","35","195594","0.0-34.0-0.0","""event"",""trial"",""time""
""fullscreenenter"",""0"",""5390""
","
","
","""event"",""trial"",""time""
""fullscreenenter"",""0"",""5390""
","
","4803.399999976158","run_exp/static/audio/clip_10_chosen_pirate_loss.m4a","32","","","","","","","","","","","","","","","","","","","","","","",""
"","instruc9","36","201084","0.0-35.0-0.0","""event"",""trial"",""time""
""fullscreenenter"",""0"",""5390""
","
","
","""event"",""trial"",""time""
""fullscreenenter"",""0"",""5390""
","
","null","run_exp/static/audio/clip_11_time_out.m4a","null","","","","","<div class='center'><p>If you don’t make your choice fast enough, you’ll have to wait a few seconds before you can make another one. </p><p><img src='run_exp/static/images/miscellaneous/hurry_up.png' height='500'></p></div>","","","","","","","","","","","","","","","","","",""
"","html-keyboard-response","37","202264","0.0-35.0-1.0","""event"",""trial"",""time""
""fullscreenenter"",""0"",""5390""
","
","
","""event"",""trial"",""time""
""fullscreenenter"",""0"",""5390""
","
","1177.3999999761581","<div class='center'><p>If you don’t make your choice fast enough, you’ll have to wait a few seconds before you can make another one. </p><p><img src='run_exp/static/images/miscellaneous/hurry_up.png' height='500'></p><p><b>[Press the space bar to continue]</b></p></div>","32","","","","","","","","","","","","","","","","","","","","","","",""
"","instruc10","38","241364","0.0-35.0-2.0","""event"",""trial"",""time""
""fullscreenenter"",""0"",""5390""
","
","
","""event"",""trial"",""time""
""fullscreenenter"",""0"",""5390""
","
","null","run_exp/static/audio/clip_12_probe.m4a","null","","","","","<div class='center'><p>Once you've chosen a pirate, you’ll be shown the ship they are robbing. You will never rob the same ship twice. Ships can be told apart from one another by the image on them. These are the goods that they sell. See, this ship has a travel mug on it. </p><p> You’ll have to remember which island you saw each ship on. You will win more gold coins and hence more bonus money if you remember correctly! To help you remember, you can imagine a story. For example, here, you could imagine a mug full of water in the desert. Or, as another example, if on the forest island, your pirate robbed a ship with an apple on it, you could imagine an apple falling from a tree in the forest. </p><p><img src='run_exp/static/images/tutorial/example_probe.png' height='500'></p></div>","","","","","","","","","","","","","","","","","",""
"","html-keyboard-response","39","287781","0.0-35.0-3.0","""event"",""trial"",""time""
""fullscreenenter"",""0"",""5390""
","
","
","""event"",""trial"",""time""
""fullscreenenter"",""0"",""5390""
","
","46413.60000002384","<div class='center'><p>Once you've chosen a pirate, you’ll be shown the ship they are robbing. You will never rob the same ship twice. Ships can be told apart from one another by the image on them. These are the goods that they sell. See, this ship has a travel mug on it. </p><p> You’ll have to remember which island you saw each ship on. You will win more gold coins and hence more bonus money if you remember correctly! To help you remember, you can imagine a story. For example, here, you could imagine a mug full of water in the desert. Or, as another example, if on the forest island, your pirate robbed a ship with an apple on it, you could imagine an apple falling from a tree in the forest. </p><p><img src='run_exp/static/images/tutorial/example_probe.png' height='500'></p><p><b>[Press the space bar to continue]</b></p></div>","32","","","","","","","","","","","","","","","","","","","","","","",""
"","instruc11","40","304194","0.0-35.0-4.0","""event"",""trial"",""time""
""fullscreenenter"",""0"",""5390""
","
","
","""event"",""trial"",""time""
""fullscreenenter"",""0"",""5390""
","
","null","run_exp/static/audio/clip_13_changepoint.m4a","null","","","","","<div class='center'><p>How successful a pirate is at robbing ships will depend on the island you’re on.</p><p> A pirate may have visited this island many times before and gained a lot of practice robbing ships there.</p><p>So, they’re more likely to be successful than a pirate who has never visited the island before.</p></div>","","","","","","","","","","","","","","","","","",""
"","html-keyboard-response","41","305975","0.0-35.0-5.0","""event"",""trial"",""time""
""fullscreenenter"",""0"",""5390""
","
","
","""event"",""trial"",""time""
""fullscreenenter"",""0"",""5390""
","
","1779.300000011921","<div class='center'><p>How successful a pirate is at robbing ships will depend on the island you’re on.</p><p> A pirate may have visited this island many times before and gained a lot of practice robbing ships there.</p><p>So, they’re more likely to be successful than a pirate who has never visited the island before.</p><p><b>[Press the space bar to continue]</b></p></div>","32","","","","","","","","","","","","","","","","","","","","","","",""
"","instruc12","42","347074","0.0-35.0-6.0","""event"",""trial"",""time""
""fullscreenenter"",""0"",""5390""
","
","
","""event"",""trial"",""time""
""fullscreenenter"",""0"",""5390""
","
","null","run_exp/static/audio/clip_14_drift.m4a","null","","","","","<div class='center'><p>How successful a pirate is at robbing ships can also change over the time spent on the island. </p><p> Ships may hear from islanders about the pirates coming and will improve their protections against the attack. This may make it harder to rob them.</p><p> Ships may also become lazy and weaken the strength of their protections. This may make it easier to rob them.</p><br><p>Things are always changing on the high seas! So, try your best to pay attention!</p><p><img src='run_exp/static/images/tutorial/contingency.png' height='500'></p></div>","","","","","","","","","","","","","","","","","",""
"","html-keyboard-response","43","373906","0.0-35.0-7.0","""event"",""trial"",""time""
""fullscreenenter"",""0"",""5390""
","
","
","""event"",""trial"",""time""
""fullscreenenter"",""0"",""5390""
","
","26829.19999998808","<div class='center'><p>How successful a pirate is at robbing ships can also change over the time spent on the island. </p><p> Ships may hear from islanders about the pirates coming and will improve their protections against the attack. This may make it harder to rob them.</p><p> Ships may also become lazy and weaken the strength of their protections. This may make it easier to rob them.</p><br><p>Things are always changing on the high seas! So, try your best to pay attention!</p><p><img src='run_exp/static/images/tutorial/contingency.png' height='500'></p><p><b>[Press the space bar to continue]</b></p></div>","32","","","","","","","","","","","","","","","","","","","","","","",""
"","instruc13","44","409088","0.0-35.0-8.0","""event"",""trial"",""time""
""fullscreenenter"",""0"",""5390""
","
","
","""event"",""trial"",""time""
""fullscreenenter"",""0"",""5390""
","
","null","run_exp/static/audio/clip_15_summary.m4a","null","","","","","<div class='center'><p>Let's go over the instructions quickly again. You have two important things to do: </p><b><p> 1. Pick the pirate who is the best at robbing ships on the current island. </p></b><b><p> 2. Remember on which island a ship was robbed.</p> </b><p>The amount of bonus money you can win depends on both.</p><p><br><p>Let’s try a practice game. The game will start by showing you the pirates. First, pick a pirate using the <b> 1, 2, 3 </b> keys on your keyboard. When you are shown a ship, try to remember which island you’re on by making up a story.</p><p>This is just a practice game, so you’re not playing for money. </p><p> Good luck! This game will be very difficult but try your best!</p></div>","","","","","","","","","","","","","","","","","",""
"","html-keyboard-response","45","440540","0.0-35.0-9.0","""event"",""trial"",""time""
""fullscreenenter"",""0"",""5390""
","
","
","""event"",""trial"",""time""
""fullscreenenter"",""0"",""5390""
","
","31449.099999964237","<div class='center'><p>Let's go over the instructions quickly again. You have two important things to do: </p><b><p> 1. Pick the pirate who is the best at robbing ships on the current island. </p></b><b><p> 2. Remember on which island a ship was robbed.</p> </b><p>The amount of bonus money you can win depends on both.</p><p><br><p>Let’s try a practice game. The game will start by showing you the pirates. First, pick a pirate using the <b> 1, 2, 3 </b> keys on your keyboard. When you are shown a ship, try to remember which island you’re on by making up a story.</p><p>This is just a practice game, so you’re not playing for money. </p><p> Good luck! This game will be very difficult but try your best!</p><p><b>[Press the space bar to continue]</b></p></div>","32","","","","","","","","","","","","","","","","","","","","","","",""
"","do_welcome","46","444562","0.0-35.0-10.0","""event"",""trial"",""time""
""fullscreenenter"",""0"",""5390""
","
","
","""event"",""trial"",""time""
""fullscreenenter"",""0"",""5390""
","
","null","","","","","","","","null","","","","","","","","","","","","","","","","",""
"","do_trial","47","451077","0.0-35.0-11.0","""event"",""trial"",""time""
""fullscreenenter"",""0"",""5390""
","
","
","""event"",""trial"",""time""
""fullscreenenter"",""0"",""5390""
","
","1993.3999999761581","","","","","","","","49","1,0,0","","","","","","","","","","","","","","","",""
"","html-keyboard-response","48","452081","0.0-36.0-0.0","""event"",""trial"",""time""
""fullscreenenter"",""0"",""5390""
","
","
","""event"",""trial"",""time""
""fullscreenenter"",""0"",""5390""
","
","null","<p></p>","null","","","","","","","","","","","","","","","","","","","","","","",""
"","do_trial","49","458661","0.0-36.0-1.0","""event"",""trial"",""time""
""fullscreenenter"",""0"",""5390""
","
","
","""event"",""trial"",""time""
""fullscreenenter"",""0"",""5390""
","
","2063.699999988079","","","","","","","","49","1,1,0","","","","","","","","","","","","","","","",""
"","html-keyboard-response","50","459670","0.0-37.0-0.0","""event"",""trial"",""time""
""fullscreenenter"",""0"",""5390""
","
","
","""event"",""trial"",""time""
""fullscreenenter"",""0"",""5390""
","
","null","<p></p>","null","","","","","","","","","","","","","","","","","","","","","","",""
"","do_trial","51","466480","0.0-37.0-1.0","""event"",""trial"",""time""
""fullscreenenter"",""0"",""5390""
","
","
","""event"",""trial"",""time""
""fullscreenenter"",""0"",""5390""
","
","2291","","","","","","","","49","1,0,1","","","","","","","","","","","","","","","",""
"","html-keyboard-response","52","467485","0.0-38.0-0.0","""event"",""trial"",""time""
""fullscreenenter"",""0"",""5390""
","
","
","""event"",""trial"",""time""
""fullscreenenter"",""0"",""5390""
","
","null","<p></p>","null","","","","","","","","","","","","","","","","","","","","","","",""
"","do_trial","53","475006","0.0-38.0-1.0","""event"",""trial"",""time""
""fullscreenenter"",""0"",""5390""
","
","
","""event"",""trial"",""time""
""fullscreenenter"",""0"",""5390""
","
","2994.600000023842","","","","","","","","49","0,1,0","","","","","","","","","","","","","","","",""
"","html-keyboard-response","54","476012","0.0-39.0-0.0","""event"",""trial"",""time""
""fullscreenenter"",""0"",""5390""
","
","
","""event"",""trial"",""time""
""fullscreenenter"",""0"",""5390""
","
","null","<p></p>","null","","","","","","","","","","","","","","","","","","","","","","",""
"","do_trial","55","482040","0.0-39.0-1.0","""event"",""trial"",""time""
""fullscreenenter"",""0"",""5390""
","
","
","""event"",""trial"",""time""
""fullscreenenter"",""0"",""5390""
","
","null","","","","","","","","null","1,0,0","","","","","","","","","","","","","","","",""
"","html-keyboard-response","56","483045","0.0-40.0-0.0","""event"",""trial"",""time""
""fullscreenenter"",""0"",""5390""
","
","
","""event"",""trial"",""time""
""fullscreenenter"",""0"",""5390""
","
","null","<p></p>","null","","","","","","","","","","","","","","","","","","","","","","",""
"","do_trial","57","488257","0.0-40.0-1.0","""event"",""trial"",""time""
""fullscreenenter"",""0"",""5390""
","
","
","""event"",""trial"",""time""
""fullscreenenter"",""0"",""5390""
","
","700.6999999880791","","","","","","","","51","1,0,0","","","","","","","","","","","","","","","",""
"","do_bye","58","489778","0.0-41.0-0.0","""event"",""trial"",""time""
""fullscreenenter"",""0"",""5390""
","
","
","""event"",""trial"",""time""
""fullscreenenter"",""0"",""5390""
","
","null","","","","","","","","null","","","","","","","","","","","","","","","","",""
"","do_travel","59","498789","0.0-41.0-1.0","""event"",""trial"",""time""
""fullscreenenter"",""0"",""5390""
","
","
","""event"",""trial"",""time""
""fullscreenenter"",""0"",""5390""
","
","null","","","","","","","","null","","","","","","","","","","","","","","","","",""
"","do_welcome","60","502802","0.0-41.0-2.0","""event"",""trial"",""time""
""fullscreenenter"",""0"",""5390""
","
","
","""event"",""trial"",""time""
""fullscreenenter"",""0"",""5390""
","
","null","","","","","","","","null","","","","","","","","","","","","","","","","",""
"","do_trial","61","508663","0.0-41.0-3.0","""event"",""trial"",""time""
""fullscreenenter"",""0"",""5390""
","
","
","""event"",""trial"",""time""
""fullscreenenter"",""0"",""5390""
","
","1351.8999999761581","","","","","","","","50","1,0,0","","","","","","","","","","","","","","","",""
"","html-keyboard-response","62","509681","0.0-42.0-0.0","""event"",""trial"",""time""
""fullscreenenter"",""0"",""5390""
","
","
","""event"",""trial"",""time""
""fullscreenenter"",""0"",""5390""
","
","null","<p></p>","null","","","","","","","","","","","","","","","","","","","","","","",""
"","do_trial","63","515143","0.0-42.0-1.0","""event"",""trial"",""time""
""fullscreenenter"",""0"",""5390""
","
","
","""event"",""trial"",""time""
""fullscreenenter"",""0"",""5390""
","
","949.5999999642372","","","","","","","","51","1,0,1","","","","","","","","","","","","","","","",""
"","html-keyboard-response","64","516152","0.0-43.0-0.0","""event"",""trial"",""time""
""fullscreenenter"",""0"",""5390""
","
","
","""event"",""trial"",""time""
""fullscreenenter"",""0"",""5390""
","
","null","<p></p>","null","","","","","","","","","","","","","","","","","","","","","","",""
"","do_trial","65","521833","0.0-43.0-1.0","""event"",""trial"",""time""
""fullscreenenter"",""0"",""5390""
","
","
","""event"",""trial"",""time""
""fullscreenenter"",""0"",""5390""
","
","1169.0999999642372","","","","","","","","51","1,1,0","","","","","","","","","","","","","","","",""
"","html-keyboard-response","66","522849","0.0-44.0-0.0","""event"",""trial"",""time""
""fullscreenenter"",""0"",""5390""
","
","
","""event"",""trial"",""time""
""fullscreenenter"",""0"",""5390""
","
","null","<p></p>","null","","","","","","","","","","","","","","","","","","","","","","",""
"","do_trial","67","528369","0.0-44.0-1.0","""event"",""trial"",""time""
""fullscreenenter"",""0"",""5390""
","
","
","""event"",""trial"",""time""
""fullscreenenter"",""0"",""5390""
","
","996.3000000119209","","","","","","","","49","0,0,1","","","","","","","","","","","","","","","",""
"","html-keyboard-response","68","529378","0.0-45.0-0.0","""event"",""trial"",""time""
""fullscreenenter"",""0"",""5390""
","
","
","""event"",""trial"",""time""
""fullscreenenter"",""0"",""5390""
","
","null","<p></p>","null","","","","","","","","","","","","","","","","","","","","","","",""
"","do_trial","69","535696","0.0-45.0-1.0","""event"",""trial"",""time""
""fullscreenenter"",""0"",""5390""
","
","
","""event"",""trial"",""time""
""fullscreenenter"",""0"",""5390""
","
","1809.6000000238419","","","","","","","","50","1,0,1","","","","","","","","","","","","","","","",""
"","html-keyboard-response","70","540352","0.0-46.0-0.0","""event"",""trial"",""time""
""fullscreenenter"",""0"",""5390""
","
","
","""event"",""trial"",""time""
""fullscreenenter"",""0"",""5390""
","
","4652.299999952316","<div class='center'><p><img src='run_exp/static/images/tutorial/prac_best_pirate.png'  height='500'></p></div>","50","","","","","","","","","","","","","","","","","","","","","","",""
"","html-keyboard-response","71","545182","0.0-47.0-0.0","""event"",""trial"",""time""
""fullscreenenter"",""0"",""5390""
","
","
","""event"",""trial"",""time""
""fullscreenenter"",""0"",""5390""
","
","4828.200000047684","<div class='center'><p>That's incorrect! Red beard was the best.</p><p><b>[Press the space bar to continue]</b></p></div>","32","","","","","","","","","","","","","","","","","","","","","","",""
"","html-keyboard-response","72","547696","0.0-47.0-1.0","""event"",""trial"",""time""
""fullscreenenter"",""0"",""5390""
","
","
","""event"",""trial"",""time""
""fullscreenenter"",""0"",""5390""
","
","2512.5","<div class='center'><p><img src='run_exp/static/images/tutorial/prac_source.png'  height='500'></p></div>","50","","","","","","","","","","","","","","","","","","","","","","",""
"","html-keyboard-response","73","549677","0.0-48.0-0.0","""event"",""trial"",""time""
""fullscreenenter"",""0"",""5390""
","
","
","""event"",""trial"",""time""
""fullscreenenter"",""0"",""5390""
","
","1980.1000000238419","<div class='center'><p>That's correct! You saw this ship on the cavern island.</p><p><b>[Press the space bar to continue]</b></p></div>","32","","","","","","","","","","","","","","","","","","","","","","",""
"","quiz_beginning","74","560871","0.0-48.0-1.0","""event"",""trial"",""time""
""fullscreenenter"",""0"",""5390""
","
","
","""event"",""trial"",""time""
""fullscreenenter"",""0"",""5390""
","
","null","run_exp/static/audio/clip_16_quiz_intro.m4a","null","","","","","<div class='center'><p>Good job on the practice game! Now, you will be asked some true or false questions to make sure you really understand the rules of the game.</p><p> Press <b>'1'</b> on the keyboard for true and press <b>'2'</b> for false.</p></div>","","","","","","","","","","","","","","","","","",""
"","audio-keyboard-response","75","571891","0.0-48.0-2.0","""event"",""trial"",""time""
""fullscreenenter"",""0"",""5390""
","
","
","""event"",""trial"",""time""
""fullscreenenter"",""0"",""5390""
","
","11014.5","run_exp/static/audio/clip_17_q1.m4a","50","","","","","","","","","","","","","","","","","","","","","","",""
"","q1_err","76","576791","0.0-49.0-0.0","""event"",""trial"",""time""
""fullscreenenter"",""0"",""5390""
","
","
","""event"",""trial"",""time""
""fullscreenenter"",""0"",""5390""
","
","null","run_exp/static/audio/clip_19_wrong_q1.m4a","null","","","","","<div class='center'><p>That’s incorrect. You win bonus money by collecting gold coins.</p></div>","","","","","","","","","","","","","","","","","",""
"","html-keyboard-response","77","577750","0.0-49.0-1.0","""event"",""trial"",""time""
""fullscreenenter"",""0"",""5390""
","
","
","""event"",""trial"",""time""
""fullscreenenter"",""0"",""5390""
","
","957.8999999761581","<div class='center'><p>That’s incorrect. You win bonus money by collecting gold coins.</p><p><b>[Press the space bar to continue]</b></p></div>","32","","","","","","","","","","","","","","","","","","","","","","",""
"","audio-keyboard-response","78","587695","0.0-49.0-2.0","""event"",""trial"",""time""
""fullscreenenter"",""0"",""5390""
","
","
","""event"",""trial"",""time""
""fullscreenenter"",""0"",""5390""
","
","9943.699999988079","run_exp/static/audio/clip_20_q2.m4a","50","","","","","","","","","","","","","","","","","","","","","","",""
"","correct","79","590091","0.0-50.0-0.0","""event"",""trial"",""time""
""fullscreenenter"",""0"",""5390""
","
","
","""event"",""trial"",""time""
""fullscreenenter"",""0"",""5390""
","
","null","run_exp/static/audio/clip_18_correct.m4a","null","","","","","<div class='center'><p>That's correct!</p></div>","","","","","","","","","","","","","","","","","",""
"","html-keyboard-response","80","591093","0.0-50.0-1.0","""event"",""trial"",""time""
""fullscreenenter"",""0"",""5390""
","
","
","""event"",""trial"",""time""
""fullscreenenter"",""0"",""5390""
","
","1000.1999999880791","<div class='center'><p>That's correct!</p><p><b>[Press the space bar to continue]</b></p></div>","32","","","","","","","","","","","","","","","","","","","","","","",""
"","audio-keyboard-response","81","596267","0.0-50.0-2.0","""event"",""trial"",""time""
""fullscreenenter"",""0"",""5390""
","
","
","""event"",""trial"",""time""
""fullscreenenter"",""0"",""5390""
","
","5171.5","run_exp/static/audio/clip_22_q3.m4a","50","","","","","","","","","","","","","","","","","","","","","","",""
"","correct","82","598671","0.0-51.0-0.0","""event"",""trial"",""time""
""fullscreenenter"",""0"",""5390""
","
","
","""event"",""trial"",""time""
""fullscreenenter"",""0"",""5390""
","
","null","run_exp/static/audio/clip_18_correct.m4a","null","","","","","<div class='center'><p>That's correct!</p></div>","","","","","","","","","","","","","","","","","",""
"","html-keyboard-response","83","599166","0.0-51.0-1.0","""event"",""trial"",""time""
""fullscreenenter"",""0"",""5390""
","
","
","""event"",""trial"",""time""
""fullscreenenter"",""0"",""5390""
","
","494.69999998807907","<div class='center'><p>That's correct!</p><p><b>[Press the space bar to continue]</b></p></div>","32","","","","","","","","","","","","","","","","","","","","","","",""
"","audio-keyboard-response","84","604704","0.0-51.0-2.0","""event"",""trial"",""time""
""fullscreenenter"",""0"",""5390""
","
","
","""event"",""trial"",""time""
""fullscreenenter"",""0"",""5390""
","
","5535.599999964237","run_exp/static/audio/clip_24_q4.m4a","49","","","","","","","","","","","","","","","","","","","","","","",""
"","correct","85","607091","0.0-52.0-0.0","""event"",""trial"",""time""
""fullscreenenter"",""0"",""5390""
","
","
","""event"",""trial"",""time""
""fullscreenenter"",""0"",""5390""
","
","null","run_exp/static/audio/clip_18_correct.m4a","null","","","","","<div class='center'><p>That's correct!</p></div>","","","","","","","","","","","","","","","","","",""
"","html-keyboard-response","86","607693","0.0-52.0-1.0","""event"",""trial"",""time""
""fullscreenenter"",""0"",""5390""
","
","
","""event"",""trial"",""time""
""fullscreenenter"",""0"",""5390""
","
","600.8999999761581","<div class='center'><p>That's correct!</p><p><b>[Press the space bar to continue]</b></p></div>","32","","","","","","","","","","","","","","","","","","","","","","",""
"","q_all_err","87","613891","0.0-53.0-0.0","""event"",""trial"",""time""
""fullscreenenter"",""0"",""5390""
","
","
","""event"",""trial"",""time""
""fullscreenenter"",""0"",""5390""
","
","null","run_exp/static/audio/clip_26_quiz_redo.m4a","null","","","","","<div class='center'><p>Oops, you missed some questions. Now that you’ve heard the correct answers. Try the quiz again! </p></div>","","","","","","","","","","","","","","","","","",""
"","html-keyboard-response","88","614370","0.0-53.0-1.0","""event"",""trial"",""time""
""fullscreenenter"",""0"",""5390""
","
","
","""event"",""trial"",""time""
""fullscreenenter"",""0"",""5390""
","
","476.69999998807907","<div class='center'><p>Oops, you missed some questions. Now that you’ve heard the correct answers. Try the quiz again! </p><p><b>[Press the space bar to continue]</b></p></div>","32","","","","","","","","","","","","","","","","","","","","","","",""
"","audio-keyboard-response","89","617649","0.0-53.0-2.0","""event"",""trial"",""time""
""fullscreenenter"",""0"",""5390""
","
","
","""event"",""trial"",""time""
""fullscreenenter"",""0"",""5390""
","
","3278.800000011921","run_exp/static/audio/clip_17_q1.m4a","49","","","","","","","","","","","","","","","","","","","","","","",""
"","correct","90","620051","0.0-54.0-0.0","""event"",""trial"",""time""
""fullscreenenter"",""0"",""5390""
","
","
","""event"",""trial"",""time""
""fullscreenenter"",""0"",""5390""
","
","null","run_exp/static/audio/clip_18_correct.m4a","null","","","","","<div class='center'><p>That's correct!</p></div>","","","","","","","","","","","","","","","","","",""
"","html-keyboard-response","91","620374","0.0-54.0-1.0","""event"",""trial"",""time""
""fullscreenenter"",""0"",""5390""
","
","
","""event"",""trial"",""time""
""fullscreenenter"",""0"",""5390""
","
","321.69999998807907","<div class='center'><p>That's correct!</p><p><b>[Press the space bar to continue]</b></p></div>","32","","","","","","","","","","","","","","","","","","","","","","",""
"","audio-keyboard-response","92","628398","0.0-54.0-2.0","""event"",""trial"",""time""
""fullscreenenter"",""0"",""5390""
","
","
","""event"",""trial"",""time""
""fullscreenenter"",""0"",""5390""
","
","8022.700000047684","run_exp/static/audio/clip_20_q2.m4a","50","","","","","","","","","","","","","","","","","","","","","","",""
"","correct","93","630791","0.0-55.0-0.0","""event"",""trial"",""time""
""fullscreenenter"",""0"",""5390""
","
","
","""event"",""trial"",""time""
""fullscreenenter"",""0"",""5390""
","
","null","run_exp/static/audio/clip_18_correct.m4a","null","","","","","<div class='center'><p>That's correct!</p></div>","","","","","","","","","","","","","","","","","",""
"","html-keyboard-response","94","631143","0.0-55.0-1.0","""event"",""trial"",""time""
""fullscreenenter"",""0"",""5390""
","
","
","""event"",""trial"",""time""
""fullscreenenter"",""0"",""5390""
","
","351.19999998807907","<div class='center'><p>That's correct!</p><p><b>[Press the space bar to continue]</b></p></div>","32","","","","","","","","","","","","","","","","","","","","","","",""
"","audio-keyboard-response","95","637863","0.0-55.0-2.0","""event"",""trial"",""time""
""fullscreenenter"",""0"",""5390""
","
","
","""event"",""trial"",""time""
""fullscreenenter"",""0"",""5390""
","
","6719","run_exp/static/audio/clip_22_q3.m4a","50","","","","","","","","","","","","","","","","","","","","","","",""
"","correct","96","640251","0.0-56.0-0.0","""event"",""trial"",""time""
""fullscreenenter"",""0"",""5390""
","
","
","""event"",""trial"",""time""
""fullscreenenter"",""0"",""5390""
","
","null","run_exp/static/audio/clip_18_correct.m4a","null","","","","","<div class='center'><p>That's correct!</p></div>","","","","","","","","","","","","","","","","","",""
"","html-keyboard-response","97","640803","0.0-56.0-1.0","""event"",""trial"",""time""
""fullscreenenter"",""0"",""5390""
","
","
","""event"",""trial"",""time""
""fullscreenenter"",""0"",""5390""
","
","550.5999999642372","<div class='center'><p>That's correct!</p><p><b>[Press the space bar to continue]</b></p></div>","32","","","","","","","","","","","","","","","","","","","","","","",""
"","audio-keyboard-response","98","645441","0.0-56.0-2.0","""event"",""trial"",""time""
""fullscreenenter"",""0"",""5390""
","
","
","""event"",""trial"",""time""
""fullscreenenter"",""0"",""5390""
","
","4637.100000023842","run_exp/static/audio/clip_24_q4.m4a","49","","","","","","","","","","","","","","","","","","","","","","",""
"","correct","99","647872","0.0-57.0-0.0","""event"",""trial"",""time""
""fullscreenenter"",""0"",""5390""
","
","
","""event"",""trial"",""time""
""fullscreenenter"",""0"",""5390""
","
","null","run_exp/static/audio/clip_18_correct.m4a","null","","","","","<div class='center'><p>That's correct!</p></div>","","","","","","","","","","","","","","","","","",""
"","html-keyboard-response","100","648340","0.0-57.0-1.0","""event"",""trial"",""time""
""fullscreenenter"",""0"",""5390""
","
","
","""event"",""trial"",""time""
""fullscreenenter"",""0"",""5390""
","
","467.5999999642372","<div class='center'><p>That's correct!</p><p><b>[Press the space bar to continue]</b></p></div>","32","","","","","","","","","","","","","","","","","","","","","","",""
"","q_all_corr","101","656831","0.0-58.0-0.0","""event"",""trial"",""time""
""fullscreenenter"",""0"",""5390""
","
","
","""event"",""trial"",""time""
""fullscreenenter"",""0"",""5390""
","
","null","run_exp/static/audio/clip_27_quiz_all_correct.m4a","null","","","","","<div class='center'><p>Good job! You’re now ready to move on to the real game! Remember this game will be difficult but don't get discouraged and try your best!</p></div>","","","","","","","","","","","","","","","","","",""
"","html-keyboard-response","102","949952","0.0-58.0-1.0","""event"",""trial"",""time""
""fullscreenenter"",""0"",""5390""
","
","
","""event"",""trial"",""time""
""fullscreenenter"",""0"",""5390""
","
","293119.1999999881","<div class='center'><p>Good job! You’re now ready to move on to the real game! Remember this game will be difficult but don't get discouraged and try your best!</p><p><b>[Press the space bar to continue]</b></p></div>","32","","","","","","","","","","","","","","","","","","","","","","",""
"","do_welcome","103","953960","0.0-59.0-0.0","""event"",""trial"",""time""
""fullscreenenter"",""0"",""5390""
","
","
","""event"",""trial"",""time""
""fullscreenenter"",""0"",""5390""
","
","null","","","","","","","","null","","","","","","","","","","","","","","","","",""
"","do_trial","104","959741","0.0-60.0-0.0","""event"",""trial"",""time""
""fullscreenenter"",""0"",""5390""
","
","
","""event"",""trial"",""time""
""fullscreenenter"",""0"",""5390""
","
","1234.199999988079","","","","","","","","49","0,0,0","0","mountain","0","probe-113","0.6","0.3","0.1","0","","","","","","","",""
"","html-keyboard-response","105","960746","0.0-60.0-1.0","""event"",""trial"",""time""
""fullscreenenter"",""0"",""5390""
","
","
","""event"",""trial"",""time""
""fullscreenenter"",""0"",""5390""
","
","null","<p></p>","null","","","","","","","","","","","","","","","","","","","","","","",""
"","do_trial","106","965988","0.0-61.0-0.0","""event"",""trial"",""time""
""fullscreenenter"",""0"",""5390""
","
","
","""event"",""trial"",""time""
""fullscreenenter"",""0"",""5390""
","
","702.3000000119209","","","","","","","","50","0,0,1","0","mountain","1","probe-68","0.5646275981834729","0.3568090168757138","0.1494487893200079","0","","","","","","","",""
"","html-keyboard-response","107","966993","0.0-61.0-1.0","""event"",""trial"",""time""
""fullscreenenter"",""0"",""5390""
","
","
","""event"",""trial"",""time""
""fullscreenenter"",""0"",""5390""
","
","null","<p></p>","null","","","","","","","","","","","","","","","","","","","","","","",""
"","do_trial","108","971654","0.0-62.0-0.0","""event"",""trial"",""time""
""fullscreenenter"",""0"",""5390""
","
","
","""event"",""trial"",""time""
""fullscreenenter"",""0"",""5390""
","
","107.80000001192093","","","","","","","","51","0,1,0","0","mountain","2","probe-01","0.5753043885422605","0.4210137305689503","0.051731297770124696","0","","","","","","","",""
"","html-keyboard-response","109","972656","0.0-62.0-1.0","""event"",""trial"",""time""
""fullscreenenter"",""0"",""5390""
","
","
","""event"",""trial"",""time""
""fullscreenenter"",""0"",""5390""
","
","null","<p></p>","null","","","","","","","","","","","","","","","","","","","","","","",""
"","do_trial","110","978297","0.0-63.0-0.0","""event"",""trial"",""time""
""fullscreenenter"",""0"",""5390""
","
","
","""event"",""trial"",""time""
""fullscreenenter"",""0"",""5390""
","
","1094.1000000238419","","","","","","","","51","0,0,1","0","mountain","3","probe-20","0.63349369019195","0.37088485620433587","0.08972186258226021","1","","","","","","","",""
"","html-keyboard-response","111","979310","0.0-63.0-1.0","""event"",""trial"",""time""
""fullscreenenter"",""0"",""5390""
","
","
","""event"",""trial"",""time""
""fullscreenenter"",""0"",""5390""
","
","null","<p></p>","null","","","","","","","","","","","","","","","","","","","","","","",""
"","do_trial","112","984589","0.0-64.0-0.0","""event"",""trial"",""time""
""fullscreenenter"",""0"",""5390""
","
","
","""event"",""trial"",""time""
""fullscreenenter"",""0"",""5390""
","
","733.3999999761581","","","","","","","","51","0,0,0","0","mountain","4","probe-228","0.60685143772226","0.6100318116608768","0.17720917198266187","0","","","","","","","",""
"","html-keyboard-response","113","985593","0.0-64.0-1.0","""event"",""trial"",""time""
""fullscreenenter"",""0"",""5390""
","
","
","""event"",""trial"",""time""
""fullscreenenter"",""0"",""5390""
","
","null","<p></p>","null","","","","","","","","","","","","","","","","","","","","","","",""
"","do_trial","114","991161","0.0-65.0-0.0","""event"",""trial"",""time""
""fullscreenenter"",""0"",""5390""
","
","
","""event"",""trial"",""time""
""fullscreenenter"",""0"",""5390""
","
","1020.8000000119209","","","","","","","","49","1,0,0","0","mountain","5","probe-141","0.7366207197602321","0.5260699471004849","0.09904777791509208","1","","","","","","","",""
"","html-keyboard-response","115","992174","0.0-65.0-1.0","""event"",""trial"",""time""
""fullscreenenter"",""0"",""5390""
","
","
","""event"",""trial"",""time""
""fullscreenenter"",""0"",""5390""
","
","null","<p></p>","null","","","","","","","","","","","","","","","","","","","","","","",""
"","do_trial","116","997597","0.0-66.0-0.0","""event"",""trial"",""time""
""fullscreenenter"",""0"",""5390""
","
","
","""event"",""trial"",""time""
""fullscreenenter"",""0"",""5390""
","
","881.4000000357628","","","","","","","","49","1,0,0","0","mountain","6","probe-212","0.5786537224779823","0.32466771972435327","0.0949364489761155","1","","","","","","","",""
"","html-keyboard-response","117","998613","0.0-66.0-1.0","""event"",""trial"",""time""
""fullscreenenter"",""0"",""5390""
","
","
","""event"",""trial"",""time""
""fullscreenenter"",""0"",""5390""
","
","null","<p></p>","null","","","","","","","","","","","","","","","","","","","","","","",""
"","do_trial","118","1003745","0.0-67.0-0.0","""event"",""trial"",""time""
""fullscreenenter"",""0"",""5390""
","
","
","""event"",""trial"",""time""
""fullscreenenter"",""0"",""5390""
","
","584.2999999523163","","","","","","","","49","0,1,0","0","mountain","7","probe-92","0.5904222921773692","0.38038566388488726","0.07105769181277673","0","","","","","","","",""
"","html-keyboard-response","119","1004752","0.0-67.0-1.0","""event"",""trial"",""time""
""fullscreenenter"",""0"",""5390""
","
","
","""event"",""trial"",""time""
""fullscreenenter"",""0"",""5390""
","
","null","<p></p>","null","","","","","","","","","","","","","","","","","","","","","","",""
"","do_trial","120","1011171","0.0-68.0-0.0","""event"",""trial"",""time""
""fullscreenenter"",""0"",""5390""
","
","
","""event"",""trial"",""time""
""fullscreenenter"",""0"",""5390""
","
","1866.199999988079","","","","","","","","50","1,0,0","0","mountain","8","probe-124","0.6365322724288655","0.4149170782312202","0.05192672481529165","0","","","","","","","",""
"","html-keyboard-response","121","1012181","0.0-68.0-1.0","""event"",""trial"",""time""
""fullscreenenter"",""0"",""5390""
","
","
","""event"",""trial"",""time""
""fullscreenenter"",""0"",""5390""
","
","null","<p></p>","null","","","","","","","","","","","","","","","","","","","","","","",""
"","do_trial","122","1017339","0.0-69.0-0.0","""event"",""trial"",""time""
""fullscreenenter"",""0"",""5390""
","
","
","""event"",""trial"",""time""
""fullscreenenter"",""0"",""5390""
","
","607.6999999880791","","","","","","","","49","1,1,0","0","mountain","9","probe-136","0.7211200442023008","0.3629687364120899","0.15295056273931482","1","","","","","","","",""
"","html-keyboard-response","123","1018352","0.0-69.0-1.0","""event"",""trial"",""time""
""fullscreenenter"",""0"",""5390""
","
","
","""event"",""trial"",""time""
""fullscreenenter"",""0"",""5390""
","
","null","<p></p>","null","","","","","","","","","","","","","","","","","","","","","","",""
"","do_trial","124","1023788","0.0-70.0-0.0","""event"",""trial"",""time""
""fullscreenenter"",""0"",""5390""
","
","
","""event"",""trial"",""time""
""fullscreenenter"",""0"",""5390""
","
","890.5999999642372","","","","","","","","49","1,0,0","0","mountain","10","probe-11","0.4360465535142508","0.3125781401320703","0.12651481433564427","1","","","","","","","",""
"","html-keyboard-response","125","1024794","0.0-70.0-1.0","""event"",""trial"",""time""
""fullscreenenter"",""0"",""5390""
","
","
","""event"",""trial"",""time""
""fullscreenenter"",""0"",""5390""
","
","null","<p></p>","null","","","","","","","","","","","","","","","","","","","","","","",""
"","do_trial","126","1030066","0.0-71.0-0.0","""event"",""trial"",""time""
""fullscreenenter"",""0"",""5390""
","
","
","""event"",""trial"",""time""
""fullscreenenter"",""0"",""5390""
","
","724.1999999880791","","","","","","","","49","0,0,0","0","mountain","11","probe-119","0.5915942759325811","0.4470127667530811","0.06490078050554937","0","","","","","","","",""
"","html-keyboard-response","127","1031081","0.0-71.0-1.0","""event"",""trial"",""time""
""fullscreenenter"",""0"",""5390""
","
","
","""event"",""trial"",""time""
""fullscreenenter"",""0"",""5390""
","
","null","<p></p>","null","","","","","","","","","","","","","","","","","","","","","","",""
"","do_trial","128","1036174","0.0-72.0-0.0","""event"",""trial"",""time""
""fullscreenenter"",""0"",""5390""
","
","
","""event"",""trial"",""time""
""fullscreenenter"",""0"",""5390""
","
","537","","","","","","","","49","0,0,0","0","mountain","12","probe-22","0.6106732510119773","0.2571872635339063","0.0679410769286511","0","","","","","","","",""
"","html-keyboard-response","129","1037186","0.0-72.0-1.0","""event"",""trial"",""time""
""fullscreenenter"",""0"",""5390""
","
","
","""event"",""trial"",""time""
""fullscreenenter"",""0"",""5390""
","
","null","<p></p>","null","","","","","","","","","","","","","","","","","","","","","","",""
"","do_trial","130","1042641","0.0-73.0-0.0","""event"",""trial"",""time""
""fullscreenenter"",""0"",""5390""
","
","
","""event"",""trial"",""time""
""fullscreenenter"",""0"",""5390""
","
","910.9000000357628","","","","","","","","49","1,0,0","0","mountain","13","probe-78","0.6694108860106605","0.17402151312736394","0.22141367509079168","1","","","","","","","",""
"","html-keyboard-response","131","1043650","0.0-73.0-1.0","""event"",""trial"",""time""
""fullscreenenter"",""0"",""5390""
","
","
","""event"",""trial"",""time""
""fullscreenenter"",""0"",""5390""
","
","null","<p></p>","null","","","","","","","","","","","","","","","","","","","","","","",""
"","do_trial","132","1048880","0.0-74.0-0.0","""event"",""trial"",""time""
""fullscreenenter"",""0"",""5390""
","
","
","""event"",""trial"",""time""
""fullscreenenter"",""0"",""5390""
","
","678","","","","","","","","49","1,0,0","0","mountain","14","probe-135","0.5981405769828486","0.253427329858591","0.14105135846263608","1","","","","","","","",""
"","html-keyboard-response","133","1049893","0.0-74.0-1.0","""event"",""trial"",""time""
""fullscreenenter"",""0"",""5390""
","
","
","""event"",""trial"",""time""
""fullscreenenter"",""0"",""5390""
","
","null","<p></p>","null","","","","","","","","","","","","","","","","","","","","","","",""
"","do_trial","134","1054800","0.0-75.0-0.0","""event"",""trial"",""time""
""fullscreenenter"",""0"",""5390""
","
","
","""event"",""trial"",""time""
""fullscreenenter"",""0"",""5390""
","
","359.5","","","","","","","","49","1,1,0","0","mountain","15","probe-115","0.6432572690829319","0.4428100009192217","0.08647016815286927","1","","","","","","","",""
"","html-keyboard-response","135","1055807","0.0-75.0-1.0","""event"",""trial"",""time""
""fullscreenenter"",""0"",""5390""
","
","
","""event"",""trial"",""time""
""fullscreenenter"",""0"",""5390""
","
","null","<p></p>","null","","","","","","","","","","","","","","","","","","","","","","",""
"","do_trial","136","1061159","0.0-76.0-0.0","""event"",""trial"",""time""
""fullscreenenter"",""0"",""5390""
","
","
","""event"",""trial"",""time""
""fullscreenenter"",""0"",""5390""
","
","799.3000000119209","","","","","","","","49","1,1,1","0","mountain","16","probe-64","0.7598454564960468","0.34312122958079444","0.26742638611810604","1","","","","","","","",""
"","html-keyboard-response","137","1062166","0.0-76.0-1.0","""event"",""trial"",""time""
""fullscreenenter"",""0"",""5390""
","
","
","""event"",""trial"",""time""
""fullscreenenter"",""0"",""5390""
","
","null","<p></p>","null","","","","","","","","","","","","","","","","","","","","","","",""
"","do_trial","138","1067193","0.0-77.0-0.0","""event"",""trial"",""time""
""fullscreenenter"",""0"",""5390""
","
","
","""event"",""trial"",""time""
""fullscreenenter"",""0"",""5390""
","
","485.7999999523163","","","","","","","","49","1,0,0","0","mountain","17","probe-83","0.8279459697541464","0.1966184069377931","0.16256687184512114","1","","","","","","","",""
"","html-keyboard-response","139","1068202","0.0-77.0-1.0","""event"",""trial"",""time""
""fullscreenenter"",""0"",""5390""
","
","
","""event"",""trial"",""time""
""fullscreenenter"",""0"",""5390""
","
","null","<p></p>","null","","","","","","","","","","","","","","","","","","","","","","",""
"","do_trial","140","1073151","0.0-78.0-0.0","""event"",""trial"",""time""
""fullscreenenter"",""0"",""5390""
","
","
","""event"",""trial"",""time""
""fullscreenenter"",""0"",""5390""
","
","396","","","","","","","","49","1,0,0","0","mountain","18","probe-51","0.7349416234543619","0.32656849789868914","0.1610941069306314","1","","","","","","","",""
"","html-keyboard-response","141","1074164","0.0-78.0-1.0","""event"",""trial"",""time""
""fullscreenenter"",""0"",""5390""
","
","
","""event"",""trial"",""time""
""fullscreenenter"",""0"",""5390""
","
","null","<p></p>","null","","","","","","","","","","","","","","","","","","","","","","",""
"","do_trial","142","1079072","0.0-79.0-0.0","""event"",""trial"",""time""
""fullscreenenter"",""0"",""5390""
","
","
","""event"",""trial"",""time""
""fullscreenenter"",""0"",""5390""
","
","364.5","","","","","","","","49","0,0,0","0","mountain","19","probe-57","0.5322697755982752","0.22419167164583895","0.14017281771422968","0","","","","","","","",""
"","html-keyboard-response","143","1080083","0.0-79.0-1.0","""event"",""trial"",""time""
""fullscreenenter"",""0"",""5390""
","
","
","""event"",""trial"",""time""
""fullscreenenter"",""0"",""5390""
","
","null","<p></p>","null","","","","","","","","","","","","","","","","","","","","","","",""
"","do_trial","144","1085201","0.0-80.0-0.0","""event"",""trial"",""time""
""fullscreenenter"",""0"",""5390""
","
","
","""event"",""trial"",""time""
""fullscreenenter"",""0"",""5390""
","
","578.6000000238419","","","","","","","","49","1,0,0","0","mountain","20","probe-198","0.6232182241786716","0.25666254546539713","0.08943847226642702","1","","","","","","","",""
"","html-keyboard-response","145","1086213","0.0-80.0-1.0","""event"",""trial"",""time""
""fullscreenenter"",""0"",""5390""
","
","
","""event"",""trial"",""time""
""fullscreenenter"",""0"",""5390""
","
","null","<p></p>","null","","","","","","","","","","","","","","","","","","","","","","",""
"","do_trial","146","1091309","0.0-81.0-0.0","""event"",""trial"",""time""
""fullscreenenter"",""0"",""5390""
","
","
","""event"",""trial"",""time""
""fullscreenenter"",""0"",""5390""
","
","553.8000000119209","","","","","","","","49","0,1,0","0","mountain","21","probe-173","0.5275639627240968","0.13915261124129033","0.1099251060389253","0","","","","","","","",""
"","html-keyboard-response","147","1092317","0.0-81.0-1.0","""event"",""trial"",""time""
""fullscreenenter"",""0"",""5390""
","
","
","""event"",""trial"",""time""
""fullscreenenter"",""0"",""5390""
","
","null","<p></p>","null","","","","","","","","","","","","","","","","","","","","","","",""
"","do_trial","148","1097453","0.0-82.0-0.0","""event"",""trial"",""time""
""fullscreenenter"",""0"",""5390""
","
","
","""event"",""trial"",""time""
""fullscreenenter"",""0"",""5390""
","
","586","","","","","","","","49","1,0,1","0","mountain","22","probe-144","0.4945680673147255","0.24232468688049186","0.1102700075690915","1","","","","","","","",""
"","html-keyboard-response","149","1098457","0.0-82.0-1.0","""event"",""trial"",""time""
""fullscreenenter"",""0"",""5390""
","
","
","""event"",""trial"",""time""
""fullscreenenter"",""0"",""5390""
","
","null","<p></p>","null","","","","","","","","","","","","","","","","","","","","","","",""
"","do_trial","150","1103598","0.0-83.0-0.0","""event"",""trial"",""time""
""fullscreenenter"",""0"",""5390""
","
","
","""event"",""trial"",""time""
""fullscreenenter"",""0"",""5390""
","
","593","","","","","","","","51","0,0,1","0","mountain","23","probe-226","0.41614050587247875","0.3093077176172677","0.09268879972275666","1","","","","","","","",""
"","html-keyboard-response","151","1104607","0.0-83.0-1.0","""event"",""trial"",""time""
""fullscreenenter"",""0"",""5390""
","
","
","""event"",""trial"",""time""
""fullscreenenter"",""0"",""5390""
","
","null","<p></p>","null","","","","","","","","","","","","","","","","","","","","","","",""
"","do_trial","152","1109635","0.0-84.0-0.0","""event"",""trial"",""time""
""fullscreenenter"",""0"",""5390""
","
","
","""event"",""trial"",""time""
""fullscreenenter"",""0"",""5390""
","
","470.69999998807907","","","","","","","","49","0,1,0","0","mountain","24","probe-95","0.5528730844297751","0.3339439388778001","0.07081345001309022","0","","","","","","","",""
"","html-keyboard-response","153","1110645","0.0-84.0-1.0","""event"",""trial"",""time""
""fullscreenenter"",""0"",""5390""
","
","
","""event"",""trial"",""time""
""fullscreenenter"",""0"",""5390""
","
","null","<p></p>","null","","","","","","","","","","","","","","","","","","","","","","",""
"","do_trial","154","1115613","0.0-85.0-0.0","""event"",""trial"",""time""
""fullscreenenter"",""0"",""5390""
","
","
","""event"",""trial"",""time""
""fullscreenenter"",""0"",""5390""
","
","409","","","","","","","","49","0,0,0","0","mountain","25","probe-80","0.5311279658231394","0.358661361946745","0.1313696738049396","0","","","","","","","",""
"","html-keyboard-response","155","1116624","0.0-85.0-1.0","""event"",""trial"",""time""
""fullscreenenter"",""0"",""5390""
","
","
","""event"",""trial"",""time""
""fullscreenenter"",""0"",""5390""
","
","null","<p></p>","null","","","","","","","","","","","","","","","","","","","","","","",""
"","do_trial","156","1121665","0.0-86.0-0.0","""event"",""trial"",""time""
""fullscreenenter"",""0"",""5390""
","
","
","""event"",""trial"",""time""
""fullscreenenter"",""0"",""5390""
","
","479.10000002384186","","","","","","","","49","0,0,1","0","mountain","26","probe-177","0.5058399823762808","0.39990142227318504","0.0617196343366303","0","","","","","","","",""
"","html-keyboard-response","157","1122675","0.0-86.0-1.0","""event"",""trial"",""time""
""fullscreenenter"",""0"",""5390""
","
","
","""event"",""trial"",""time""
""fullscreenenter"",""0"",""5390""
","
","null","<p></p>","null","","","","","","","","","","","","","","","","","","","","","","",""
"","do_trial","158","1127635","0.0-87.0-0.0","""event"",""trial"",""time""
""fullscreenenter"",""0"",""5390""
","
","
","""event"",""trial"",""time""
""fullscreenenter"",""0"",""5390""
","
","409.60000002384186","","","","","","","","50","1,0,0","0","mountain","27","probe-126","0.5592411059131384","0.38745270283994354","0.1657182743902472","0","","","","","","","",""
"","html-keyboard-response","159","1128647","0.0-87.0-1.0","""event"",""trial"",""time""
""fullscreenenter"",""0"",""5390""
","
","
","""event"",""trial"",""time""
""fullscreenenter"",""0"",""5390""
","
","null","<p></p>","null","","","","","","","","","","","","","","","","","","","","","","",""
"","do_trial","160","1133667","0.0-88.0-0.0","""event"",""trial"",""time""
""fullscreenenter"",""0"",""5390""
","
","
","""event"",""trial"",""time""
""fullscreenenter"",""0"",""5390""
","
","470.60000002384186","","","","","","","","49","0,0,0","0","mountain","28","probe-50","0.4044581856959616","0.284600725856799","0.14077802256364075","0","","","","","","","",""
"","html-keyboard-response","161","1134682","0.0-88.0-1.0","""event"",""trial"",""time""
""fullscreenenter"",""0"",""5390""
","
","
","""event"",""trial"",""time""
""fullscreenenter"",""0"",""5390""
","
","null","<p></p>","null","","","","","","","","","","","","","","","","","","","","","","",""
"","do_trial","162","1139665","0.0-89.0-0.0","""event"",""trial"",""time""
""fullscreenenter"",""0"",""5390""
","
","
","""event"",""trial"",""time""
""fullscreenenter"",""0"",""5390""
","
","423.7000000476837","","","","","","","","51","0,0,0","0","mountain","29","probe-139","0.4343322254136042","0.2588636808895184","0.06094548685707009","0","","","","","","","",""
"","html-keyboard-response","163","1140675","0.0-89.0-1.0","""event"",""trial"",""time""
""fullscreenenter"",""0"",""5390""
","
","
","""event"",""trial"",""time""
""fullscreenenter"",""0"",""5390""
","
","null","<p></p>","null","","","","","","","","","","","","","","","","","","","","","","",""
"","do_bye","164","1142192","0.0-90.0-0.0","""event"",""trial"",""time""
""fullscreenenter"",""0"",""5390""
","
","
","""event"",""trial"",""time""
""fullscreenenter"",""0"",""5390""
","
","null","","","","","","","","null","","","","","","","","","","","","","","","","",""
"","break","165","1160774","0.0-90.0-1.0","""event"",""trial"",""time""
""fullscreenenter"",""0"",""5390""
","
","
","""event"",""trial"",""time""
""fullscreenenter"",""0"",""5390""
","
","18580.69999998808","<div class='center'><p>Time to take a quick break! You have 2 minutes to rest, but you can move on sooner if you'd like.</p><p> Press the <b>space bar</b> to continue.</p></div>","32","","","","","","","","","","","","","","","","","","","","","","",""
"","do_travel","166","1169784","0.0-91.0-0.0","""event"",""trial"",""time""
""fullscreenenter"",""0"",""5390""
","
","
","""event"",""trial"",""time""
""fullscreenenter"",""0"",""5390""
","
","null","","","","","","","","null","","","","","","","","","","","","","","","","",""
"","do_welcome","167","1173798","0.0-91.0-1.0","""event"",""trial"",""time""
""fullscreenenter"",""0"",""5390""
","
","
","""event"",""trial"",""time""
""fullscreenenter"",""0"",""5390""
","
","null","","","","","","","","null","","","","","","","","","","","","","","","","",""
"","do_trial","168","1179438","0.0-92.0-0.0","""event"",""trial"",""time""
""fullscreenenter"",""0"",""5390""
","
","
","""event"",""trial"",""time""
""fullscreenenter"",""0"",""5390""
","
","1098.2000000476837","","","","","","","","49","1,1,0","1","coast","30","probe-186","1","0.3893740825298083","0.0572178188782094","1","","","","","","","",""
"","html-keyboard-response","169","1180441","0.0-92.0-1.0","""event"",""trial"",""time""
""fullscreenenter"",""0"",""5390""
","
","
","""event"",""trial"",""time""
""fullscreenenter"",""0"",""5390""
","
","null","<p></p>","null","","","","","","","","","","","","","","","","","","","","","","",""
"","do_trial","170","1185918","0.0-93.0-0.0","""event"",""trial"",""time""
""fullscreenenter"",""0"",""5390""
","
","
","""event"",""trial"",""time""
""fullscreenenter"",""0"",""5390""
","
","932.2999999523163","","","","","","","","49","1,0,0","1","coast","31","probe-150","1","0.36869515804790665","0.051136236234743074","1","","","","","","","",""
"","html-keyboard-response","171","1186927","0.0-93.0-1.0","""event"",""trial"",""time""
""fullscreenenter"",""0"",""5390""
","
","
","""event"",""trial"",""time""
""fullscreenenter"",""0"",""5390""
","
","null","<p></p>","null","","","","","","","","","","","","","","","","","","","","","","",""
"","do_trial","172","1191925","0.0-94.0-0.0","""event"",""trial"",""time""
""fullscreenenter"",""0"",""5390""
","
","
","""event"",""trial"",""time""
""fullscreenenter"",""0"",""5390""
","
","441.60000002384186","","","","","","","","49","1,0,0","1","coast","32","probe-204","1","0.2127711042232768","0.0915184053800845","1","","","","","","","",""
"","html-keyboard-response","173","1192938","0.0-94.0-1.0","""event"",""trial"",""time""
""fullscreenenter"",""0"",""5390""
","
","
","""event"",""trial"",""time""
""fullscreenenter"",""0"",""5390""
","
","null","<p></p>","null","","","","","","","","","","","","","","","","","","","","","","",""
"","do_trial","174","1197788","0.0-95.0-0.0","""event"",""trial"",""time""
""fullscreenenter"",""0"",""5390""
","
","
","""event"",""trial"",""time""
""fullscreenenter"",""0"",""5390""
","
","306.60000002384186","","","","","","","","49","1,0,0","1","coast","33","probe-117","0.9332685871476537","0.3358482597102108","0.128196704498333","1","","","","","","","",""
"","html-keyboard-response","175","1198801","0.0-95.0-1.0","""event"",""trial"",""time""
""fullscreenenter"",""0"",""5390""
","
","
","""event"",""trial"",""time""
""fullscreenenter"",""0"",""5390""
","
","null","<p></p>","null","","","","","","","","","","","","","","","","","","","","","","",""
"","do_trial","176","1203935","0.0-96.0-0.0","""event"",""trial"",""time""
""fullscreenenter"",""0"",""5390""
","
","
","""event"",""trial"",""time""
""fullscreenenter"",""0"",""5390""
","
","587.6999999880791","","","","","","","","49","1,1,0","1","coast","34","probe-38","0.8411947466222263","0.3108949562487806","0.17079466656738465","1","","","","","","","",""
"","html-keyboard-response","177","1204941","0.0-96.0-1.0","""event"",""trial"",""time""
""fullscreenenter"",""0"",""5390""
","
","
","""event"",""trial"",""time""
""fullscreenenter"",""0"",""5390""
","
","null","<p></p>","null","","","","","","","","","","","","","","","","","","","","","","",""
"","do_trial","178","1210263","0.0-97.0-0.0","""event"",""trial"",""time""
""fullscreenenter"",""0"",""5390""
","
","
","""event"",""trial"",""time""
""fullscreenenter"",""0"",""5390""
","
","760.6999999880791","","","","","","","","49","1,1,0","1","coast","35","probe-39","0.6038851719255872","0.35362124777399423","0.1941929299454391","1","","","","","","","",""
"","html-keyboard-response","179","1211270","0.0-97.0-1.0","""event"",""trial"",""time""
""fullscreenenter"",""0"",""5390""
","
","
","""event"",""trial"",""time""
""fullscreenenter"",""0"",""5390""
","
","null","<p></p>","null","","","","","","","","","","","","","","","","","","","","","","",""
"","do_trial","180","1216290","0.0-98.0-0.0","""event"",""trial"",""time""
""fullscreenenter"",""0"",""5390""
","
","
","""event"",""trial"",""time""
""fullscreenenter"",""0"",""5390""
","
","477.5","","","","","","","","49","1,0,1","1","coast","36","probe-69","0.6138780406555788","0.252705355225362","0.298129443786565","1","","","","","","","",""
"","html-keyboard-response","181","1217304","0.0-98.0-1.0","""event"",""trial"",""time""
""fullscreenenter"",""0"",""5390""
","
","
","""event"",""trial"",""time""
""fullscreenenter"",""0"",""5390""
","
","null","<p></p>","null","","","","","","","","","","","","","","","","","","","","","","",""
"","do_trial","182","1222573","0.0-99.0-0.0","""event"",""trial"",""time""
""fullscreenenter"",""0"",""5390""
","
","
","""event"",""trial"",""time""
""fullscreenenter"",""0"",""5390""
","
","725.4000000357628","","","","","","","","49","1,0,1","1","coast","37","probe-219","0.6673528951255231","0.30691034510538606","0.21455126500071595","1","","","","","","","",""
"","html-keyboard-response","183","1223587","0.0-99.0-1.0","""event"",""trial"",""time""
""fullscreenenter"",""0"",""5390""
","
","
","""event"",""trial"",""time""
""fullscreenenter"",""0"",""5390""
","
","null","<p></p>","null","","","","","","","","","","","","","","","","","","","","","","",""
"","do_trial","184","1228497","0.0-100.0-0.0","""event"",""trial"",""time""
""fullscreenenter"",""0"",""5390""
","
","
","""event"",""trial"",""time""
""fullscreenenter"",""0"",""5390""
","
","353.30000001192093","","","","","","","","49","0,0,0","1","coast","38","probe-104","0.7198096559023408","0.18356960749402906","0.2699113374373821","0","","","","","","","",""
"","html-keyboard-response","185","1229504","0.0-100.0-1.0","""event"",""trial"",""time""
""fullscreenenter"",""0"",""5390""
","
","
","""event"",""trial"",""time""
""fullscreenenter"",""0"",""5390""
","
","null","<p></p>","null","","","","","","","","","","","","","","","","","","","","","","",""
"","do_trial","186","1234625","0.0-101.0-0.0","""event"",""trial"",""time""
""fullscreenenter"",""0"",""5390""
","
","
","""event"",""trial"",""time""
""fullscreenenter"",""0"",""5390""
","
","574.3000000119209","","","","","","","","49","0,0,0","1","coast","39","probe-185","0.5716381381065951","0.13767680662088863","0.22745067679476833","0","","","","","","","",""
"","html-keyboard-response","187","1235636","0.0-101.0-1.0","""event"",""trial"",""time""
""fullscreenenter"",""0"",""5390""
","
","
","""event"",""trial"",""time""
""fullscreenenter"",""0"",""5390""
","
","null","<p></p>","null","","","","","","","","","","","","","","","","","","","","","","",""
"","do_trial","188","1240631","0.0-102.0-0.0","""event"",""trial"",""time""
""fullscreenenter"",""0"",""5390""
","
","
","""event"",""trial"",""time""
""fullscreenenter"",""0"",""5390""
","
","443.30000001192093","","","","","","","","49","0,0,0","1","coast","40","probe-52","0.6563767042533365","0.06963074284578807","0.2530987493649556","0","","","","","","","",""
"","html-keyboard-response","189","1241645","0.0-102.0-1.0","""event"",""trial"",""time""
""fullscreenenter"",""0"",""5390""
","
","
","""event"",""trial"",""time""
""fullscreenenter"",""0"",""5390""
","
","null","<p></p>","null","","","","","","","","","","","","","","","","","","","","","","",""
"","do_trial","190","1246614","0.0-103.0-0.0","""event"",""trial"",""time""
""fullscreenenter"",""0"",""5390""
","
","
","""event"",""trial"",""time""
""fullscreenenter"",""0"",""5390""
","
","427.69999998807907","","","","","","","","50","1,0,0","1","coast","41","probe-176","0.5496198217202317","0.06579427138614075","0.2957928893620559","0","","","","","","","",""
"","html-keyboard-response","191","1247625","0.0-103.0-1.0","""event"",""trial"",""time""
""fullscreenenter"",""0"",""5390""
","
","
","""event"",""trial"",""time""
""fullscreenenter"",""0"",""5390""
","
","null","<p></p>","null","","","","","","","","","","","","","","","","","","","","","","",""
"","do_trial","192","1252675","0.0-104.0-0.0","""event"",""trial"",""time""
""fullscreenenter"",""0"",""5390""
","
","
","""event"",""trial"",""time""
""fullscreenenter"",""0"",""5390""
","
","498.5","","","","","","","","51","0,0,0","1","coast","42","probe-130","0.4318877272042972","0.16036827086357527","0.5543509209584114","0","","","","","","","",""
"","html-keyboard-response","193","1253683","0.0-104.0-1.0","""event"",""trial"",""time""
""fullscreenenter"",""0"",""5390""
","
","
","""event"",""trial"",""time""
""fullscreenenter"",""0"",""5390""
","
","null","<p></p>","null","","","","","","","","","","","","","","","","","","","","","","",""
"","do_trial","194","1258767","0.0-105.0-0.0","""event"",""trial"",""time""
""fullscreenenter"",""0"",""5390""
","
","
","""event"",""trial"",""time""
""fullscreenenter"",""0"",""5390""
","
","531.3000000119209","","","","","","","","51","0,0,1","1","coast","43","probe-101","0.37602579639403483","0.10758631830475732","0.5610407281265765","1","","","","","","","",""
"","html-keyboard-response","195","1259782","0.0-105.0-1.0","""event"",""trial"",""time""
""fullscreenenter"",""0"",""5390""
","
","
","""event"",""trial"",""time""
""fullscreenenter"",""0"",""5390""
","
","null","<p></p>","null","","","","","","","","","","","","","","","","","","","","","","",""
"","do_trial","196","1265336","0.0-106.0-0.0","""event"",""trial"",""time""
""fullscreenenter"",""0"",""5390""
","
","
","""event"",""trial"",""time""
""fullscreenenter"",""0"",""5390""
","
","1007.3999999761581","","","","","","","","51","0,0,1","1","coast","44","probe-98","0.33750916123092745","0.09280969491127772","0.6786817947588318","1","","","","","","","",""
"","html-keyboard-response","197","1266347","0.0-106.0-1.0","""event"",""trial"",""time""
""fullscreenenter"",""0"",""5390""
","
","
","""event"",""trial"",""time""
""fullscreenenter"",""0"",""5390""
","
","null","<p></p>","null","","","","","","","","","","","","","","","","","","","","","","",""
"","do_trial","198","1271315","0.0-107.0-0.0","""event"",""trial"",""time""
""fullscreenenter"",""0"",""5390""
","
","
","""event"",""trial"",""time""
""fullscreenenter"",""0"",""5390""
","
","425.80000001192093","","","","","","","","51","0,0,1","1","coast","45","probe-111","0.4091268613990723","0.14804676815018591","0.7168567294712022","1","","","","","","","",""
"","html-keyboard-response","199","1272323","0.0-107.0-1.0","""event"",""trial"",""time""
""fullscreenenter"",""0"",""5390""
","
","
","""event"",""trial"",""time""
""fullscreenenter"",""0"",""5390""
","
","null","<p></p>","null","","","","","","","","","","","","","","","","","","","","","","",""
"","do_trial","200","1277504","0.0-108.0-0.0","""event"",""trial"",""time""
""fullscreenenter"",""0"",""5390""
","
","
","""event"",""trial"",""time""
""fullscreenenter"",""0"",""5390""
","
","624.6000000238419","","","","","","","","51","1,0,1","1","coast","46","probe-160","0.45635817922107824","0.23227970415057259","0.799952044868773","1","","","","","","","",""
"","html-keyboard-response","201","1278511","0.0-108.0-1.0","""event"",""trial"",""time""
""fullscreenenter"",""0"",""5390""
","
","
","""event"",""trial"",""time""
""fullscreenenter"",""0"",""5390""
","
","null","<p></p>","null","","","","","","","","","","","","","","","","","","","","","","",""
"","do_trial","202","1283438","0.0-109.0-0.0","""event"",""trial"",""time""
""fullscreenenter"",""0"",""5390""
","
","
","""event"",""trial"",""time""
""fullscreenenter"",""0"",""5390""
","
","375.5999999642372","","","","","","","","51","0,0,1","1","coast","47","probe-193","0.4414998322079795","0.2715354308695325","0.5924597417713866","1","","","","","","","",""
"","html-keyboard-response","203","1284452","0.0-109.0-1.0","""event"",""trial"",""time""
""fullscreenenter"",""0"",""5390""
","
","
","""event"",""trial"",""time""
""fullscreenenter"",""0"",""5390""
","
","null","<p></p>","null","","","","","","","","","","","","","","","","","","","","","","",""
"","do_trial","204","1289516","0.0-110.0-0.0","""event"",""trial"",""time""
""fullscreenenter"",""0"",""5390""
","
","
","""event"",""trial"",""time""
""fullscreenenter"",""0"",""5390""
","
","510.30000001192093","","","","","","","","51","0,0,1","1","coast","48","probe-84","0.37199010482806816","0.33114153705657473","0.6532353393211873","1","","","","","","","",""
"","html-keyboard-response","205","1290528","0.0-110.0-1.0","""event"",""trial"",""time""
""fullscreenenter"",""0"",""5390""
","
","
","""event"",""trial"",""time""
""fullscreenenter"",""0"",""5390""
","
","null","<p></p>","null","","","","","","","","","","","","","","","","","","","","","","",""
"","do_trial","206","1295746","0.0-111.0-0.0","""event"",""trial"",""time""
""fullscreenenter"",""0"",""5390""
","
","
","""event"",""trial"",""time""
""fullscreenenter"",""0"",""5390""
","
","657.1999999880791","","","","","","","","51","1,1,0","1","coast","49","probe-54","0.27829030517926295","0.21315579263490134","0.6654127255987737","0","","","","","","","",""
"","html-keyboard-response","207","1296760","0.0-111.0-1.0","""event"",""trial"",""time""
""fullscreenenter"",""0"",""5390""
","
","
","""event"",""trial"",""time""
""fullscreenenter"",""0"",""5390""
","
","null","<p></p>","null","","","","","","","","","","","","","","","","","","","","","","",""
"","do_trial","208","1301748","0.0-112.0-0.0","""event"",""trial"",""time""
""fullscreenenter"",""0"",""5390""
","
","
","""event"",""trial"",""time""
""fullscreenenter"",""0"",""5390""
","
","440.5999999642372","","","","","","","","51","1,0,1","1","coast","50","probe-192","0.280600882391603","0.18340180623154484","0.6747103767361281","1","","","","","","","",""
"","html-keyboard-response","209","1302755","0.0-112.0-1.0","""event"",""trial"",""time""
""fullscreenenter"",""0"",""5390""
","
","
","""event"",""trial"",""time""
""fullscreenenter"",""0"",""5390""
","
","null","<p></p>","null","","","","","","","","","","","","","","","","","","","","","","",""
"","do_trial","210","1308109","0.0-113.0-0.0","""event"",""trial"",""time""
""fullscreenenter"",""0"",""5390""
","
","
","""event"",""trial"",""time""
""fullscreenenter"",""0"",""5390""
","
","791","","","","","","","","51","0,0,1","1","coast","51","probe-214","0.2949310367742105","0.24339935542227953","0.5330669452835692","1","","","","","","","",""
"","html-keyboard-response","211","1309120","0.0-113.0-1.0","""event"",""trial"",""time""
""fullscreenenter"",""0"",""5390""
","
","
","""event"",""trial"",""time""
""fullscreenenter"",""0"",""5390""
","
","null","<p></p>","null","","","","","","","","","","","","","","","","","","","","","","",""
"","do_trial","212","1314512","0.0-114.0-0.0","""event"",""trial"",""time""
""fullscreenenter"",""0"",""5390""
","
","
","""event"",""trial"",""time""
""fullscreenenter"",""0"",""5390""
","
","844.2000000476837","","","","","","","","51","0,0,1","1","coast","52","probe-194","0.20973692345003078","0.06268930837433796","0.7069910965203269","1","","","","","","","",""
"","html-keyboard-response","213","1315521","0.0-114.0-1.0","""event"",""trial"",""time""
""fullscreenenter"",""0"",""5390""
","
","
","""event"",""trial"",""time""
""fullscreenenter"",""0"",""5390""
","
","null","<p></p>","null","","","","","","","","","","","","","","","","","","","","","","",""
"","do_trial","214","1320308","0.0-115.0-0.0","""event"",""trial"",""time""
""fullscreenenter"",""0"",""5390""
","
","
","""event"",""trial"",""time""
""fullscreenenter"",""0"",""5390""
","
","228.60000002384186","","","","","","","","51","0,0,1","1","coast","53","probe-87","0.23181361075634604","0.1808901682067566","0.6962122461229795","1","","","","","","","",""
"","html-keyboard-response","215","1321321","0.0-115.0-1.0","""event"",""trial"",""time""
""fullscreenenter"",""0"",""5390""
","
","
","""event"",""trial"",""time""
""fullscreenenter"",""0"",""5390""
","
","null","<p></p>","null","","","","","","","","","","","","","","","","","","","","","","",""
"","do_trial","216","1326502","0.0-116.0-0.0","""event"",""trial"",""time""
""fullscreenenter"",""0"",""5390""
","
","
","""event"",""trial"",""time""
""fullscreenenter"",""0"",""5390""
","
","638.0999999642372","","","","","","","","51","1,1,0","1","coast","54","probe-28","0.24781437270797224","0.24808869061503522","0.550949632272282","0","","","","","","","",""
"","html-keyboard-response","217","1327516","0.0-116.0-1.0","""event"",""trial"",""time""
""fullscreenenter"",""0"",""5390""
","
","
","""event"",""trial"",""time""
""fullscreenenter"",""0"",""5390""
","
","null","<p></p>","null","","","","","","","","","","","","","","","","","","","","","","",""
"","do_trial","218","1332390","0.0-117.0-0.0","""event"",""trial"",""time""
""fullscreenenter"",""0"",""5390""
","
","
","""event"",""trial"",""time""
""fullscreenenter"",""0"",""5390""
","
","325.30000001192093","","","","","","","","51","0,0,1","1","coast","55","probe-26","0.2524156053370522","0.27271715630468196","0.5181710401179268","1","","","","","","","",""
"","html-keyboard-response","219","1333401","0.0-117.0-1.0","""event"",""trial"",""time""
""fullscreenenter"",""0"",""5390""
","
","
","""event"",""trial"",""time""
""fullscreenenter"",""0"",""5390""
","
","null","<p></p>","null","","","","","","","","","","","","","","","","","","","","","","",""
"","do_trial","220","1338505","0.0-118.0-0.0","""event"",""trial"",""time""
""fullscreenenter"",""0"",""5390""
","
","
","""event"",""trial"",""time""
""fullscreenenter"",""0"",""5390""
","
","547.3999999761581","","","","","","","","51","1,0,1","1","coast","56","probe-222","0.35119683179204786","0.1370058497666985","0.6559809149398914","1","","","","","","","",""
"","html-keyboard-response","221","1339521","0.0-118.0-1.0","""event"",""trial"",""time""
""fullscreenenter"",""0"",""5390""
","
","
","""event"",""trial"",""time""
""fullscreenenter"",""0"",""5390""
","
","null","<p></p>","null","","","","","","","","","","","","","","","","","","","","","","",""
"","do_trial","222","1344671","0.0-119.0-0.0","""event"",""trial"",""time""
""fullscreenenter"",""0"",""5390""
","
","
","""event"",""trial"",""time""
""fullscreenenter"",""0"",""5390""
","
","576.3000000119209","","","","","","","","51","1,1,1","1","coast","57","probe-21","0.37589277248269126","0.15802199436578054","0.8037891957103946","1","","","","","","","",""
"","html-keyboard-response","223","1345682","0.0-119.0-1.0","""event"",""trial"",""time""
""fullscreenenter"",""0"",""5390""
","
","
","""event"",""trial"",""time""
""fullscreenenter"",""0"",""5390""
","
","null","<p></p>","null","","","","","","","","","","","","","","","","","","","","","","",""
"","do_trial","224","1350750","0.0-120.0-0.0","""event"",""trial"",""time""
""fullscreenenter"",""0"",""5390""
","
","
","""event"",""trial"",""time""
""fullscreenenter"",""0"",""5390""
","
","525","","","","","","","","51","1,1,1","1","coast","58","probe-225","0.3447187167503563","0.3266348984314341","0.6475686938501157","1","","","","","","","",""
"","html-keyboard-response","225","1351765","0.0-120.0-1.0","""event"",""trial"",""time""
""fullscreenenter"",""0"",""5390""
","
","
","""event"",""trial"",""time""
""fullscreenenter"",""0"",""5390""
","
","null","<p></p>","null","","","","","","","","","","","","","","","","","","","","","","",""
"","do_trial","226","1356822","0.0-121.0-0.0","""event"",""trial"",""time""
""fullscreenenter"",""0"",""5390""
","
","
","""event"",""trial"",""time""
""fullscreenenter"",""0"",""5390""
","
","497.69999998807907","","","","","","","","51","0,0,1","1","coast","59","probe-163","0.44767099730229953","0.1946024588385345","0.7163295066583386","1","","","","","","","",""
"","html-keyboard-response","227","1357836","0.0-121.0-1.0","""event"",""trial"",""time""
""fullscreenenter"",""0"",""5390""
","
","
","""event"",""trial"",""time""
""fullscreenenter"",""0"",""5390""
","
","null","<p></p>","null","","","","","","","","","","","","","","","","","","","","","","",""
"","do_trial","228","1362802","0.0-122.0-0.0","""event"",""trial"",""time""
""fullscreenenter"",""0"",""5390""
","
","
","""event"",""trial"",""time""
""fullscreenenter"",""0"",""5390""
","
","409.60000002384186","","","","","","","","51","0,0,1","1","coast","60","probe-82","0.3697606436151157","0.15738570880917435","0.7286528848985762","1","","","","","","","",""
"","html-keyboard-response","229","1363812","0.0-122.0-1.0","""event"",""trial"",""time""
""fullscreenenter"",""0"",""5390""
","
","
","""event"",""trial"",""time""
""fullscreenenter"",""0"",""5390""
","
","null","<p></p>","null","","","","","","","","","","","","","","","","","","","","","","",""
"","do_trial","230","1368878","0.0-123.0-0.0","""event"",""trial"",""time""
""fullscreenenter"",""0"",""5390""
","
","
","""event"",""trial"",""time""
""fullscreenenter"",""0"",""5390""
","
","513","","","","","","","","51","0,0,0","1","coast","61","probe-202","0.3935384408704985","0.21168000441671325","0.6165357491181367","0","","","","","","","",""
"","html-keyboard-response","231","1369892","0.0-123.0-1.0","""event"",""trial"",""time""
""fullscreenenter"",""0"",""5390""
","
","
","""event"",""trial"",""time""
""fullscreenenter"",""0"",""5390""
","
","null","<p></p>","null","","","","","","","","","","","","","","","","","","","","","","",""
"","do_trial","232","1374817","0.0-124.0-0.0","""event"",""trial"",""time""
""fullscreenenter"",""0"",""5390""
","
","
","""event"",""trial"",""time""
""fullscreenenter"",""0"",""5390""
","
","367.5","","","","","","","","51","1,0,1","1","coast","62","probe-205","0.3540692995174913","0.16313656018062095","0.6925805643393591","1","","","","","","","",""
"","html-keyboard-response","233","1375834","0.0-124.0-1.0","""event"",""trial"",""time""
""fullscreenenter"",""0"",""5390""
","
","
","""event"",""trial"",""time""
""fullscreenenter"",""0"",""5390""
","
","null","<p></p>","null","","","","","","","","","","","","","","","","","","","","","","",""
"","do_trial","234","1380768","0.0-125.0-0.0","""event"",""trial"",""time""
""fullscreenenter"",""0"",""5390""
","
","
","""event"",""trial"",""time""
""fullscreenenter"",""0"",""5390""
","
","384.60000002384186","","","","","","","","51","1,0,0","1","coast","63","probe-86","0.2466105155663991","0.12295380401060396","0.6351140631656075","0","","","","","","","",""
"","html-keyboard-response","235","1381783","0.0-125.0-1.0","""event"",""trial"",""time""
""fullscreenenter"",""0"",""5390""
","
","
","""event"",""trial"",""time""
""fullscreenenter"",""0"",""5390""
","
","null","<p></p>","null","","","","","","","","","","","","","","","","","","","","","","",""
"","do_trial","236","1386878","0.0-126.0-0.0","""event"",""trial"",""time""
""fullscreenenter"",""0"",""5390""
","
","
","""event"",""trial"",""time""
""fullscreenenter"",""0"",""5390""
","
","550.7999999523163","","","","","","","","51","0,0,0","1","coast","64","probe-47","0.1787778915680701","0.0841805751192421","0.5618605191222613","0","","","","","","","",""
"","html-keyboard-response","237","1387886","0.0-126.0-1.0","""event"",""trial"",""time""
""fullscreenenter"",""0"",""5390""
","
","
","""event"",""trial"",""time""
""fullscreenenter"",""0"",""5390""
","
","null","<p></p>","null","","","","","","","","","","","","","","","","","","","","","","",""
"","do_trial","238","1392844","0.0-127.0-0.0","""event"",""trial"",""time""
""fullscreenenter"",""0"",""5390""
","
","
","""event"",""trial"",""time""
""fullscreenenter"",""0"",""5390""
","
","411.7999999523163","","","","","","","","51","0,0,0","1","coast","65","probe-15","0.250405488646684","0.11568882820721202","0.5350227453553424","0","","","","","","","",""
"","html-keyboard-response","239","1393852","0.0-127.0-1.0","""event"",""trial"",""time""
""fullscreenenter"",""0"",""5390""
","
","
","""event"",""trial"",""time""
""fullscreenenter"",""0"",""5390""
","
","null","<p></p>","null","","","","","","","","","","","","","","","","","","","","","","",""
"","do_trial","240","1398876","0.0-128.0-0.0","""event"",""trial"",""time""
""fullscreenenter"",""0"",""5390""
","
","
","""event"",""trial"",""time""
""fullscreenenter"",""0"",""5390""
","
","469.5","","","","","","","","51","1,0,1","1","coast","66","probe-208","0.3019009648154134","0.2254263230871185","0.6758340246762748","1","","","","","","","",""
"","html-keyboard-response","241","1399885","0.0-128.0-1.0","""event"",""trial"",""time""
""fullscreenenter"",""0"",""5390""
","
","
","""event"",""trial"",""time""
""fullscreenenter"",""0"",""5390""
","
","null","<p></p>","null","","","","","","","","","","","","","","","","","","","","","","",""
"","do_trial","242","1405039","0.0-129.0-0.0","""event"",""trial"",""time""
""fullscreenenter"",""0"",""5390""
","
","
","""event"",""trial"",""time""
""fullscreenenter"",""0"",""5390""
","
","605.8000000119209","","","","","","","","51","0,0,1","1","coast","67","probe-89","0.3268806402145894","0.18850135100103835","0.7249285884080295","1","","","","","","","",""
"","html-keyboard-response","243","1406048","0.0-129.0-1.0","""event"",""trial"",""time""
""fullscreenenter"",""0"",""5390""
","
","
","""event"",""trial"",""time""
""fullscreenenter"",""0"",""5390""
","
","null","<p></p>","null","","","","","","","","","","","","","","","","","","","","","","",""
"","do_trial","244","1410908","0.0-130.0-0.0","""event"",""trial"",""time""
""fullscreenenter"",""0"",""5390""
","
","
","""event"",""trial"",""time""
""fullscreenenter"",""0"",""5390""
","
","309.9000000357628","","","","","","","","51","0,1,0","1","coast","68","probe-137","0.2677247862468508","0.2084789805011893","0.5721718235784615","0","","","","","","","",""
"","html-keyboard-response","245","1411912","0.0-130.0-1.0","""event"",""trial"",""time""
""fullscreenenter"",""0"",""5390""
","
","
","""event"",""trial"",""time""
""fullscreenenter"",""0"",""5390""
","
","null","<p></p>","null","","","","","","","","","","","","","","","","","","","","","","",""
"","do_trial","246","1417034","0.0-131.0-0.0","""event"",""trial"",""time""
""fullscreenenter"",""0"",""5390""
","
","
","""event"",""trial"",""time""
""fullscreenenter"",""0"",""5390""
","
","582.3999999761581","","","","","","","","51","0,0,0","1","coast","69","probe-152","0.34134273116839303","0.11252655005159215","0.5773715703107163","0","","","","","","","",""
"","html-keyboard-response","247","1418042","0.0-131.0-1.0","""event"",""trial"",""time""
""fullscreenenter"",""0"",""5390""
","
","
","""event"",""trial"",""time""
""fullscreenenter"",""0"",""5390""
","
","null","<p></p>","null","","","","","","","","","","","","","","","","","","","","","","",""
"","do_bye","248","1419549","0.0-132.0-0.0","""event"",""trial"",""time""
""fullscreenenter"",""0"",""5390""
","
","
","""event"",""trial"",""time""
""fullscreenenter"",""0"",""5390""
","
","null","","","","","","","","null","","","","","","","","","","","","","","","","",""
"","break","249","1456219","0.0-132.0-1.0","""event"",""trial"",""time""
""fullscreenenter"",""0"",""5390""
","
","
","""event"",""trial"",""time""
""fullscreenenter"",""0"",""5390""
","
","36668.30000001192","<div class='center'><p>Time to take a quick break! You have 2 minutes to rest, but you can move on sooner if you'd like.</p><p> Press the <b>space bar</b> to continue.</p></div>","32","","","","","","","","","","","","","","","","","","","","","","",""
"","do_travel","250","1465226","0.0-133.0-0.0","""event"",""trial"",""time""
""fullscreenenter"",""0"",""5390""
","
","
","""event"",""trial"",""time""
""fullscreenenter"",""0"",""5390""
","
","null","","","","","","","","null","","","","","","","","","","","","","","","","",""
"","do_welcome","251","1469247","0.0-133.0-1.0","""event"",""trial"",""time""
""fullscreenenter"",""0"",""5390""
","
","
","""event"",""trial"",""time""
""fullscreenenter"",""0"",""5390""
","
","null","","","","","","","","null","","","","","","","","","","","","","","","","",""
"","do_trial","252","1474928","0.0-134.0-0.0","""event"",""trial"",""time""
""fullscreenenter"",""0"",""5390""
","
","
","""event"",""trial"",""time""
""fullscreenenter"",""0"",""5390""
","
","1133.5","","","","","","","","50","0,0,1","2","highway","70","probe-40","0.382877282520607","0.08332495711595214","1","0","","","","","","","",""
"","html-keyboard-response","253","1475931","0.0-134.0-1.0","""event"",""trial"",""time""
""fullscreenenter"",""0"",""5390""
","
","
","""event"",""trial"",""time""
""fullscreenenter"",""0"",""5390""
","
","null","<p></p>","null","","","","","","","","","","","","","","","","","","","","","","",""
"","do_trial","254","1481218","0.0-135.0-0.0","""event"",""trial"",""time""
""fullscreenenter"",""0"",""5390""
","
","
","""event"",""trial"",""time""
""fullscreenenter"",""0"",""5390""
","
","742.5","","","","","","","","51","0,0,1","2","highway","71","probe-93","0.33596348297804474","0.05708402614528511","1","1","","","","","","","",""
"","html-keyboard-response","255","1482227","0.0-135.0-1.0","""event"",""trial"",""time""
""fullscreenenter"",""0"",""5390""
","
","
","""event"",""trial"",""time""
""fullscreenenter"",""0"",""5390""
","
","null","<p></p>","null","","","","","","","","","","","","","","","","","","","","","","",""
"","do_trial","256","1487207","0.0-136.0-0.0","""event"",""trial"",""time""
""fullscreenenter"",""0"",""5390""
","
","
","""event"",""trial"",""time""
""fullscreenenter"",""0"",""5390""
","
","429.2000000476837","","","","","","","","51","1,0,1","2","highway","72","probe-131","0.35535740455922626","0.0799883018940524","0.8948276612617869","1","","","","","","","",""
"","html-keyboard-response","257","1488219","0.0-136.0-1.0","""event"",""trial"",""time""
""fullscreenenter"",""0"",""5390""
","
","
","""event"",""trial"",""time""
""fullscreenenter"",""0"",""5390""
","
","null","<p></p>","null","","","","","","","","","","","","","","","","","","","","","","",""
"","do_trial","258","1493055","0.0-137.0-0.0","""event"",""trial"",""time""
""fullscreenenter"",""0"",""5390""
","
","
","""event"",""trial"",""time""
""fullscreenenter"",""0"",""5390""
","
","291.69999998807907","","","","","","","","51","0,0,1","2","highway","73","probe-70","0.30949635629548283","0.18433374734353877","0.729499083869015","1","","","","","","","",""
"","html-keyboard-response","259","1494069","0.0-137.0-1.0","""event"",""trial"",""time""
""fullscreenenter"",""0"",""5390""
","
","