"success","trial_type","trial_index","time_elapsed","internal_node_id","interactions","blur_events","focus_events","fullscreenenter_events","fullscreenexit_events","rt","stimulus","key_press","subject_id","participant_id","age","gender","prompt","response","choice_outcomes","context_n","context_img_id","trial_n","probe_img_id","pR_red","pR_white","pR_black","outcome","contextArray_ind","validImageProbes","invalidImageProbes","pRew_Red","pRew_White","pRew_Black","availableForMemProbe","choice_blocks"
"true","fullscreen","0","4298","0.0-0.0","""event"",""trial"",""time""
""fullscreenenter"",""0"",""3303""
","
","
","""event"",""trial"",""time""
""fullscreenenter"",""0"",""3303""
","
","","","","","","","","","","","","","","","","","","","","","","","","","",""
"","pavlovia","1","4303","0.0-1.0","""event"",""trial"",""time""
""fullscreenenter"",""0"",""3303""
","
","
","""event"",""trial"",""time""
""fullscreenenter"",""0"",""3303""
","
","","","","","","","","","","","","","","","","","","","","","","","","","",""
"","instruc1","2","49392","0.0-2.0","""event"",""trial"",""time""
""fullscreenenter"",""0"",""3303""
","
","
","""event"",""trial"",""time""
""fullscreenenter"",""0"",""3303""
","
","null","run_exp/static/audio/clip_1_welcome.m4a","null","328","421","19","Female","<div class='center'><p>Welcome! This is the first part of the study. It will last ~30 minutes. In part 1 and part 2 of the study, you are the head captain of a pirate ship traveling around the world to different islands. You will play a few different games throughout these two parts. Here is an overview of them:</p><br><p>Part 1 (today)</p><p>1. Instructions, practice game, and quiz</p><p>2. Pick a pirate game on 6 different islands</p><br><p>Part 2 (tomorrow)</p><p>3. Pick a pirate game and memory game</p><p>4. Where did you see this ship? </p></div>","","","","","","","","","","","","","","","","","",""
"","html-keyboard-response","3","50753","0.0-3.0","""event"",""trial"",""time""
""fullscreenenter"",""0"",""3303""
","
","
","""event"",""trial"",""time""
""fullscreenenter"",""0"",""3303""
","
","1359.1000000238419","<div class='center'><p>Welcome! This is the first part of the study. It will last ~30 minutes. In part 1 and part 2 of the study, you are the head captain of a pirate ship traveling around the world to different islands. You will play a few different games throughout these two parts. Here is an overview of them:</p><br><p>Part 1 (today)</p><p>1. Instructions, practice game, and quiz</p><p>2. Pick a pirate game on 6 different islands</p><br><p>Part 2 (tomorrow)</p><p>3. Pick a pirate game and memory game</p><p>4. Where did you see this ship? </p><p><b>[Press the space bar to continue]</b></p></div>","32","","","","","","","","","","","","","","","","","","","","","","",""
"","instruc2","4","56051","0.0-4.0","""event"",""trial"",""time""
""fullscreenenter"",""0"",""3303""
","
","
","""event"",""trial"",""time""
""fullscreenenter"",""0"",""3303""
","
","null","run_exp/static/audio/clip_2_different_places.m4a","null","","","","","<div class='center'><p>Today, you’ll visit these 6 islands on your journey. You'll be able to see these islands from your ship.</p><p><img src='run_exp/static/images/contexts/all_contexts.png' height='500'></p></div>","","","","","","","","","","","","","","","","","",""
"","html-keyboard-response","5","58418","0.0-5.0","""event"",""trial"",""time""
""fullscreenenter"",""0"",""3303""
","
","
","""event"",""trial"",""time""
""fullscreenenter"",""0"",""3303""
","
","2364.7999999523163","<div class='center'><p>Today, you’ll visit these 6 islands on your journey. You'll be able to see these islands from your ship.</p><p><img src='run_exp/static/images/contexts/all_contexts.png' height='500'></p><p><b>[Press the space bar to continue]</b></p></div>","32","","","","","","","","","","","","","","","","","","","","","","",""
"","instruc3","6","68090","0.0-6.0","""event"",""trial"",""time""
""fullscreenenter"",""0"",""3303""
","
","
","""event"",""trial"",""time""
""fullscreenenter"",""0"",""3303""
","
","null","run_exp/static/audio/clip_3_goal_of_game_1.m4a","null","","","","","<div class='center'><p> The pirates on your ship will rob other ships as they leave the island.</p> These ships have just sold their goods to the islanders, so they will be filled with lots and lots of gold.</p><p><img src='run_exp/static/images/tutorial/ship_center.png' height='400'></p></div>","","","","","","","","","","","","","","","","","",""
"","html-keyboard-response","7","69895","0.0-7.0","""event"",""trial"",""time""
""fullscreenenter"",""0"",""3303""
","
","
","""event"",""trial"",""time""
""fullscreenenter"",""0"",""3303""
","
","1802.5999999642372","<div class='center'><p> The pirates on your ship will rob other ships as they leave the island.</p> These ships have just sold their goods to the islanders, so they will be filled with lots and lots of gold.</p><p><img src='run_exp/static/images/tutorial/ship_center.png' height='400'></p><p><b>[Press the space bar to continue]</b></p></div>","32","","","","","","","","","","","","","","","","","","","","","","",""
"","instruc4","8","97870","0.0-8.0","""event"",""trial"",""time""
""fullscreenenter"",""0"",""3303""
","
","
","""event"",""trial"",""time""
""fullscreenenter"",""0"",""3303""
","
","null","run_exp/static/audio/clip_4_goal_of_game_2.m4a","null","","","","","<div class='center'><p>As the head captain, you do not have to rob any ships yourself. Another pirate will be doing the robbing for you. First, you will choose a pirate to rob the next ship.</p><p><img src='run_exp/static/images/tutorial/pirates_all_crop.png' height='200'></p><p>Then, you'll see if the pirate successfully robbed the ship of their gold. If they were successful, then you'll get a stack of gold coins like this:</p><p><img src='run_exp/static/images/tutorial/reward.png' height='150'></p><p> If they were <b>not</b> successful, then you'll get no gold coins, and you'll see a big red x like this: </p><p><img src='run_exp/static/images/tutorial/reward_no.png' height='150'></p><p> How much bonus money you make is based on how many gold coins you collect.</p><div>","","","","","","","","","","","","","","","","","",""
"","html-keyboard-response","9","98626","0.0-9.0","""event"",""trial"",""time""
""fullscreenenter"",""0"",""3303""
","
","
","""event"",""trial"",""time""
""fullscreenenter"",""0"",""3303""
","
","754.5","<div class='center'><p>As the head captain, you do not have to rob any ships yourself. Another pirate will be doing the robbing for you. First, you will choose a pirate to rob the next ship.</p><p><img src='run_exp/static/images/tutorial/pirates_all_crop.png' height='200'></p><p>Then, you'll see if the pirate successfully robbed the ship of their gold. If they were successful, then you'll get a stack of gold coins like this:</p><p><img src='run_exp/static/images/tutorial/reward.png' height='150'></p><p> If they were <b>not</b> successful, then you'll get no gold coins, and you'll see a big red x like this: </p><p><img src='run_exp/static/images/tutorial/reward_no.png' height='150'></p><p> How much bonus money you make is based on how many gold coins you collect.</p<p><b>[Press the space bar to continue]</b></p></div>","32","","","","","","","","","","","","","","","","","","","","","","",""
"","instruc5","10","120853","0.0-10.0","""event"",""trial"",""time""
""fullscreenenter"",""0"",""3303""
","
","
","""event"",""trial"",""time""
""fullscreenenter"",""0"",""3303""
","
","22225.80000001192","run_exp/static/audio/clip_5_probabilistic.m4a","49","","","","","<div class='center'><p>Even the most skilled pirate can not rob EVERY ship.</p><p> Some ships will have very strong protections against pirate attacks.</p><p> Blue beard, here, is very, very good at robbing ships, but he won't be successful every time he tries to rob one.</p><p> You can press the <b>‘1’</b> key on the keyboard to choose him.</p><p> Try choosing him 10 times to see how often he succeeds at robbing a ship. </p><p><img src='run_exp/static/images/tutorial/blue.png' height='500'></p></div>","","","","","","","","","","","","","","","","","",""
"","html-keyboard-response","11","122370","0.0-11.0","""event"",""trial"",""time""
""fullscreenenter"",""0"",""3303""
","
","
","""event"",""trial"",""time""
""fullscreenenter"",""0"",""3303""
","
","null","<div class='center'><p><img src='run_exp/static/images/tutorial/blue_win.png' height='500'></p></div>","null","","","","","","","","","","","","","","","","","","","","","","",""
"","html-keyboard-response","12","122549","0.0-12.0","""event"",""trial"",""time""
""fullscreenenter"",""0"",""3303""
","
","
","""event"",""trial"",""time""
""fullscreenenter"",""0"",""3303""
","
","178","<div class='center'><img src='run_exp/static/images/tutorial/blue.png' height='500'></p></div>","49","","","","","","","","","","","","","","","","","","","","","","",""
"","html-keyboard-response","13","124055","0.0-13.0","""event"",""trial"",""time""
""fullscreenenter"",""0"",""3303""
","
","
","""event"",""trial"",""time""
""fullscreenenter"",""0"",""3303""
","
","null","<div class='center'><p><img src='run_exp/static/images/tutorial/blue_win.png' height='500'></p></div>","null","","","","","","","","","","","","","","","","","","","","","","",""
"","html-keyboard-response","14","124868","0.0-14.0","""event"",""trial"",""time""
""fullscreenenter"",""0"",""3303""
","
","
","""event"",""trial"",""time""
""fullscreenenter"",""0"",""3303""
","
","812.5","<div class='center'><img src='run_exp/static/images/tutorial/blue.png' height='500'></p></div>","49","","","","","","","","","","","","","","","","","","","","","","",""
"","html-keyboard-response","15","126374","0.0-15.0","""event"",""trial"",""time""
""fullscreenenter"",""0"",""3303""
","
","
","""event"",""trial"",""time""
""fullscreenenter"",""0"",""3303""
","
","null","<div class='center'><p><img src='run_exp/static/images/tutorial/blue_win.png' height='500'></p></div>","null","","","","","","","","","","","","","","","","","","","","","","",""
"","html-keyboard-response","16","126777","0.0-16.0","""event"",""trial"",""time""
""fullscreenenter"",""0"",""3303""
","
","
","""event"",""trial"",""time""
""fullscreenenter"",""0"",""3303""
","
","402.0999999642372","<div class='center'><img src='run_exp/static/images/tutorial/blue.png' height='500'></p></div>","49","","","","","","","","","","","","","","","","","","","","","","",""
"","html-keyboard-response","17","128285","0.0-17.0","""event"",""trial"",""time""
""fullscreenenter"",""0"",""3303""
","
","
","""event"",""trial"",""time""
""fullscreenenter"",""0"",""3303""
","
","null","<div class='center'><p><img src='run_exp/static/images/tutorial/blue_no_win.png' height='500'></p></div>","null","","","","","","","","","","","","","","","","","","","","","","",""
"","html-keyboard-response","18","128889","0.0-18.0","""event"",""trial"",""time""
""fullscreenenter"",""0"",""3303""
","
","
","""event"",""trial"",""time""
""fullscreenenter"",""0"",""3303""
","
","603.1999999880791","<div class='center'><img src='run_exp/static/images/tutorial/blue.png' height='500'></p></div>","49","","","","","","","","","","","","","","","","","","","","","","",""
"","html-keyboard-response","19","130398","0.0-19.0","""event"",""trial"",""time""
""fullscreenenter"",""0"",""3303""
","
","
","""event"",""trial"",""time""
""fullscreenenter"",""0"",""3303""
","
","null","<div class='center'><p><img src='run_exp/static/images/tutorial/blue_win.png' height='500'></p></div>","null","","","","","","","","","","","","","","","","","","","","","","",""
"","html-keyboard-response","20","130959","0.0-20.0","""event"",""trial"",""time""
""fullscreenenter"",""0"",""3303""
","
","
","""event"",""trial"",""time""
""fullscreenenter"",""0"",""3303""
","
","560.1000000238419","<div class='center'><img src='run_exp/static/images/tutorial/blue.png' height='500'></p></div>","49","","","","","","","","","","","","","","","","","","","","","","",""
"","html-keyboard-response","21","132471","0.0-21.0","""event"",""trial"",""time""
""fullscreenenter"",""0"",""3303""
","
","
","""event"",""trial"",""time""
""fullscreenenter"",""0"",""3303""
","
","null","<div class='center'><p><img src='run_exp/static/images/tutorial/blue_win.png' height='500'></p></div>","null","","","","","","","","","","","","","","","","","","","","","","",""
"","html-keyboard-response","22","132914","0.0-22.0","""event"",""trial"",""time""
""fullscreenenter"",""0"",""3303""
","
","
","""event"",""trial"",""time""
""fullscreenenter"",""0"",""3303""
","
","441.89999997615814","<div class='center'><img src='run_exp/static/images/tutorial/blue.png' height='500'></p></div>","49","","","","","","","","","","","","","","","","","","","","","","",""
"","html-keyboard-response","23","134428","0.0-23.0","""event"",""trial"",""time""
""fullscreenenter"",""0"",""3303""
","
","
","""event"",""trial"",""time""
""fullscreenenter"",""0"",""3303""
","
","null","<div class='center'><p><img src='run_exp/static/images/tutorial/blue_win.png' height='500'></p></div>","null","","","","","","","","","","","","","","","","","","","","","","",""
"","html-keyboard-response","24","134709","0.0-24.0","""event"",""trial"",""time""
""fullscreenenter"",""0"",""3303""
","
","
","""event"",""trial"",""time""
""fullscreenenter"",""0"",""3303""
","
","280.60000002384186","<div class='center'><img src='run_exp/static/images/tutorial/blue.png' height='500'></p></div>","49","","","","","","","","","","","","","","","","","","","","","","",""
"","html-keyboard-response","25","136213","0.0-25.0","""event"",""trial"",""time""
""fullscreenenter"",""0"",""3303""
","
","
","""event"",""trial"",""time""
""fullscreenenter"",""0"",""3303""
","
","null","<div class='center'><p><img src='run_exp/static/images/tutorial/blue_no_win.png' height='500'></p></div>","null","","","","","","","","","","","","","","","","","","","","","","",""
"","html-keyboard-response","26","136894","0.0-26.0","""event"",""trial"",""time""
""fullscreenenter"",""0"",""3303""
","
","
","""event"",""trial"",""time""
""fullscreenenter"",""0"",""3303""
","
","679.4000000357628","<div class='center'><img src='run_exp/static/images/tutorial/blue.png' height='500'></p></div>","49","","","","","","","","","","","","","","","","","","","","","","",""
"","html-keyboard-response","27","138409","0.0-27.0","""event"",""trial"",""time""
""fullscreenenter"",""0"",""3303""
","
","
","""event"",""trial"",""time""
""fullscreenenter"",""0"",""3303""
","
","null","<div class='center'><p><img src='run_exp/static/images/tutorial/blue_win.png' height='500'></p></div>","null","","","","","","","","","","","","","","","","","","","","","","",""
"","html-keyboard-response","28","139145","0.0-28.0","""event"",""trial"",""time""
""fullscreenenter"",""0"",""3303""
","
","
","""event"",""trial"",""time""
""fullscreenenter"",""0"",""3303""
","
","735.3000000119209","<div class='center'><img src='run_exp/static/images/tutorial/blue.png' height='500'></p></div>","49","","","","","","","","","","","","","","","","","","","","","","",""
"","html-keyboard-response","29","140650","0.0-29.0","""event"",""trial"",""time""
""fullscreenenter"",""0"",""3303""
","
","
","""event"",""trial"",""time""
""fullscreenenter"",""0"",""3303""
","
","null","<div class='center'><p><img src='run_exp/static/images/tutorial/blue_win.png' height='500'></p></div>","null","","","","","","","","","","","","","","","","","","","","","","",""
"","instruc6","30","146040","0.0-30.0","""event"",""trial"",""time""
""fullscreenenter"",""0"",""3303""
","
","
","""event"",""trial"",""time""
""fullscreenenter"",""0"",""3303""
","
","null","run_exp/static/audio/clip_6_blue_beard_outcome.m4a","null","","","","","<div class='center'><p> See, he succeeded in robbing the ships most of the time but not every time. </p></div>","","","","","","","","","","","","","","","","","",""
"","html-keyboard-response","31","146628","0.0-31.0","""event"",""trial"",""time""
""fullscreenenter"",""0"",""3303""
","
","
","""event"",""trial"",""time""
""fullscreenenter"",""0"",""3303""
","
","587.1000000238419","<div class='center'><p> See, he succeeded in robbing the ships most of the time but not every time. </p><p><b>[Press the space bar to continue]</b></p></div>","32","","","","","","","","","","","","","","","","","","","","","","",""
"","audio-keyboard-response","32","163413","0.0-32.0","""event"",""trial"",""time""
""fullscreenenter"",""0"",""3303""
","
","
","""event"",""trial"",""time""
""fullscreenenter"",""0"",""3303""
","
","16783.30000001192","run_exp/static/audio/clip_7_pick_pirate.m4a","49","","","","","","","","","","","","","","","","","","","","","","",""
"","audio-keyboard-response","33","168720","0.0-33.0-0.0","""event"",""trial"",""time""
""fullscreenenter"",""0"",""3303""
","
","
","""event"",""trial"",""time""
""fullscreenenter"",""0"",""3303""
","
","5304.5","run_exp/static/audio/clip_8_chosen_pirate_win.m4a","32","","","","","","","","","","","","","","","","","","","","","","",""
"","audio-keyboard-response","34","171569","0.0-33.0-1.0","""event"",""trial"",""time""
""fullscreenenter"",""0"",""3303""
","
","
","""event"",""trial"",""time""
""fullscreenenter"",""0"",""3303""
","
","2847.199999988079","run_exp/static/audio/clip_9_pick_a_pirate_again.m4a","50","","","","","","","","","","","","","","","","","","","","","","",""
"","audio-keyboard-response","35","176740","0.0-34.0-0.0","""event"",""trial"",""time""
""fullscreenenter"",""0"",""3303""
","
","
","""event"",""trial"",""time""
""fullscreenenter"",""0"",""3303""
","
","5168.199999988079","run_exp/static/audio/clip_10_chosen_pirate_loss.m4a","32","","","","","","","","","","","","","","","","","","","","","","",""
"","instruc9","36","182221","0.0-35.0-0.0","""event"",""trial"",""time""
""fullscreenenter"",""0"",""3303""
","
","
","""event"",""trial"",""time""
""fullscreenenter"",""0"",""3303""
","
","null","run_exp/static/audio/clip_11_time_out.m4a","null","","","","","<div class='center'><p>If you don’t make your choice fast enough, you’ll have to wait a few seconds before you can make another one. </p><p><img src='run_exp/static/images/miscellaneous/hurry_up.png' height='500'></p></div>","","","","","","","","","","","","","","","","","",""
"","html-keyboard-response","37","183874","0.0-35.0-1.0","""event"",""trial"",""time""
""fullscreenenter"",""0"",""3303""
","
","
","""event"",""trial"",""time""
""fullscreenenter"",""0"",""3303""
","
","1652","<div class='center'><p>If you don’t make your choice fast enough, you’ll have to wait a few seconds before you can make another one. </p><p><img src='run_exp/static/images/miscellaneous/hurry_up.png' height='500'></p><p><b>[Press the space bar to continue]</b></p></div>","32","","","","","","","","","","","","","","","","","","","","","","",""
"","instruc10","38","222960","0.0-35.0-2.0","""event"",""trial"",""time""
""fullscreenenter"",""0"",""3303""
","
","
","""event"",""trial"",""time""
""fullscreenenter"",""0"",""3303""
","
","null","run_exp/static/audio/clip_12_probe.m4a","null","","","","","<div class='center'><p>Once you've chosen a pirate, you’ll be shown the ship they are robbing. You will never rob the same ship twice. Ships can be told apart from one another by the image on them. These are the goods that they sell. See, this ship has a travel mug on it. </p><p> You’ll have to remember which island you saw each ship on. You will win more gold coins and hence more bonus money if you remember correctly! To help you remember, you can imagine a story. For example, here, you could imagine a mug full of water in the desert. Or, as another example, if on the forest island, your pirate robbed a ship with an apple on it, you could imagine an apple falling from a tree in the forest. </p><p><img src='run_exp/static/images/tutorial/example_probe.png' height='500'></p></div>","","","","","","","","","","","","","","","","","",""
"","html-keyboard-response","39","224520","0.0-35.0-3.0","""event"",""trial"",""time""
""fullscreenenter"",""0"",""3303""
","
","
","""event"",""trial"",""time""
""fullscreenenter"",""0"",""3303""
","
","1559.2000000476837","<div class='center'><p>Once you've chosen a pirate, you’ll be shown the ship they are robbing. You will never rob the same ship twice. Ships can be told apart from one another by the image on them. These are the goods that they sell. See, this ship has a travel mug on it. </p><p> You’ll have to remember which island you saw each ship on. You will win more gold coins and hence more bonus money if you remember correctly! To help you remember, you can imagine a story. For example, here, you could imagine a mug full of water in the desert. Or, as another example, if on the forest island, your pirate robbed a ship with an apple on it, you could imagine an apple falling from a tree in the forest. </p><p><img src='run_exp/static/images/tutorial/example_probe.png' height='500'></p><p><b>[Press the space bar to continue]</b></p></div>","32","","","","","","","","","","","","","","","","","","","","","","",""
"","instruc11","40","240921","0.0-35.0-4.0","""event"",""trial"",""time""
""fullscreenenter"",""0"",""3303""
","
","
","""event"",""trial"",""time""
""fullscreenenter"",""0"",""3303""
","
","null","run_exp/static/audio/clip_13_changepoint.m4a","null","","","","","<div class='center'><p>How successful a pirate is at robbing ships will depend on the island you’re on.</p><p> A pirate may have visited this island many times before and gained a lot of practice robbing ships there.</p><p>So, they’re more likely to be successful than a pirate who has never visited the island before.</p></div>","","","","","","","","","","","","","","","","","",""
"","html-keyboard-response","41","241731","0.0-35.0-5.0","""event"",""trial"",""time""
""fullscreenenter"",""0"",""3303""
","
","
","""event"",""trial"",""time""
""fullscreenenter"",""0"",""3303""
","
","809","<div class='center'><p>How successful a pirate is at robbing ships will depend on the island you’re on.</p><p> A pirate may have visited this island many times before and gained a lot of practice robbing ships there.</p><p>So, they’re more likely to be successful than a pirate who has never visited the island before.</p><p><b>[Press the space bar to continue]</b></p></div>","32","","","","","","","","","","","","","","","","","","","","","","",""
"","instruc12","42","282820","0.0-35.0-6.0","""event"",""trial"",""time""
""fullscreenenter"",""0"",""3303""
","
","
","""event"",""trial"",""time""
""fullscreenenter"",""0"",""3303""
","
","null","run_exp/static/audio/clip_14_drift.m4a","null","","","","","<div class='center'><p>How successful a pirate is at robbing ships can also change over the time spent on the island. </p><p> Ships may hear from islanders about the pirates coming and will improve their protections against the attack. This may make it harder to rob them.</p><p> Ships may also become lazy and weaken the strength of their protections. This may make it easier to rob them.</p><br><p>Things are always changing on the high seas! So, try your best to pay attention!</p><p><img src='run_exp/static/images/tutorial/contingency.png' height='500'></p></div>","","","","","","","","","","","","","","","","","",""
"","html-keyboard-response","43","285946","0.0-35.0-7.0","""event"",""trial"",""time""
""fullscreenenter"",""0"",""3303""
","
","
","""event"",""trial"",""time""
""fullscreenenter"",""0"",""3303""
","
","3124.800000011921","<div class='center'><p>How successful a pirate is at robbing ships can also change over the time spent on the island. </p><p> Ships may hear from islanders about the pirates coming and will improve their protections against the attack. This may make it harder to rob them.</p><p> Ships may also become lazy and weaken the strength of their protections. This may make it easier to rob them.</p><br><p>Things are always changing on the high seas! So, try your best to pay attention!</p><p><img src='run_exp/static/images/tutorial/contingency.png' height='500'></p><p><b>[Press the space bar to continue]</b></p></div>","32","","","","","","","","","","","","","","","","","","","","","","",""
"","instruc13","44","321121","0.0-35.0-8.0","""event"",""trial"",""time""
""fullscreenenter"",""0"",""3303""
","
","
","""event"",""trial"",""time""
""fullscreenenter"",""0"",""3303""
","
","null","run_exp/static/audio/clip_15_summary.m4a","null","","","","","<div class='center'><p>Let's go over the instructions quickly again. You have two important things to do: </p><b><p> 1. Pick the pirate who is the best at robbing ships on the current island. </p></b><b><p> 2. Remember on which island a ship was robbed.</p> </b><p>The amount of bonus money you can win depends on both.</p><p><br><p>Let’s try a practice game. The game will start by showing you the pirates. First, pick a pirate using the <b> 1, 2, 3 </b> keys on your keyboard. When you are shown a ship, try to remember which island you’re on by making up a story.</p><p>This is just a practice game, so you’re not playing for money. </p><p> Good luck! This game will be very difficult but try your best!</p></div>","","","","","","","","","","","","","","","","","",""
"","html-keyboard-response","45","322247","0.0-35.0-9.0","""event"",""trial"",""time""
""fullscreenenter"",""0"",""3303""
","
","
","""event"",""trial"",""time""
""fullscreenenter"",""0"",""3303""
","
","1124.5","<div class='center'><p>Let's go over the instructions quickly again. You have two important things to do: </p><b><p> 1. Pick the pirate who is the best at robbing ships on the current island. </p></b><b><p> 2. Remember on which island a ship was robbed.</p> </b><p>The amount of bonus money you can win depends on both.</p><p><br><p>Let’s try a practice game. The game will start by showing you the pirates. First, pick a pirate using the <b> 1, 2, 3 </b> keys on your keyboard. When you are shown a ship, try to remember which island you’re on by making up a story.</p><p>This is just a practice game, so you’re not playing for money. </p><p> Good luck! This game will be very difficult but try your best!</p><p><b>[Press the space bar to continue]</b></p></div>","32","","","","","","","","","","","","","","","","","","","","","","",""
"","do_welcome","46","326266","0.0-35.0-10.0","""event"",""trial"",""time""
""fullscreenenter"",""0"",""3303""
","
","
","""event"",""trial"",""time""
""fullscreenenter"",""0"",""3303""
","
","null","","","","","","","","null","","","","","","","","","","","","","","","","",""
"","do_trial","47","333764","0.0-35.0-11.0","""event"",""trial"",""time""
""fullscreenenter"",""0"",""3303""
","
","
","""event"",""trial"",""time""
""fullscreenenter"",""0"",""3303""
","
","2976","","","","","","","","49","1,0,0","","","","","","","","","","","","","","","",""
"","html-keyboard-response","48","334776","0.0-36.0-0.0","""event"",""trial"",""time""
""fullscreenenter"",""0"",""3303""
","
","
","""event"",""trial"",""time""
""fullscreenenter"",""0"",""3303""
","
","null","<p></p>","null","","","","","","","","","","","","","","","","","","","","","","",""
"","do_trial","49","341021","0.0-36.0-1.0","""event"",""trial"",""time""
""fullscreenenter"",""0"",""3303""
","
","
","""event"",""trial"",""time""
""fullscreenenter"",""0"",""3303""
","
","1722.3999999761581","","","","","","","","50","1,1,0","","","","","","","","","","","","","","","",""
"","html-keyboard-response","50","342030","0.0-37.0-0.0","""event"",""trial"",""time""
""fullscreenenter"",""0"",""3303""
","
","
","""event"",""trial"",""time""
""fullscreenenter"",""0"",""3303""
","
","null","<p></p>","null","","","","","","","","","","","","","","","","","","","","","","",""
"","do_trial","51","347923","0.0-37.0-1.0","""event"",""trial"",""time""
""fullscreenenter"",""0"",""3303""
","
","
","""event"",""trial"",""time""
""fullscreenenter"",""0"",""3303""
","
","1375.300000011921","","","","","","","","51","1,0,1","","","","","","","","","","","","","","","",""
"","html-keyboard-response","52","348928","0.0-38.0-0.0","""event"",""trial"",""time""
""fullscreenenter"",""0"",""3303""
","
","
","""event"",""trial"",""time""
""fullscreenenter"",""0"",""3303""
","
","null","<p></p>","null","","","","","","","","","","","","","","","","","","","","","","",""
"","do_trial","53","356059","0.0-38.0-1.0","""event"",""trial"",""time""
""fullscreenenter"",""0"",""3303""
","
","
","""event"",""trial"",""time""
""fullscreenenter"",""0"",""3303""
","
","2611.899999976158","","","","","","","","49","0,1,0","","","","","","","","","","","","","","","",""
"","html-keyboard-response","54","357067","0.0-39.0-0.0","""event"",""trial"",""time""
""fullscreenenter"",""0"",""3303""
","
","
","""event"",""trial"",""time""
""fullscreenenter"",""0"",""3303""
","
","null","<p></p>","null","","","","","","","","","","","","","","","","","","","","","","",""
"","do_trial","55","362352","0.0-39.0-1.0","""event"",""trial"",""time""
""fullscreenenter"",""0"",""3303""
","
","
","""event"",""trial"",""time""
""fullscreenenter"",""0"",""3303""
","
","768.6999999880791","","","","","","","","50","1,0,0","","","","","","","","","","","","","","","",""
"","do_bye","56","363870","0.0-40.0-0.0","""event"",""trial"",""time""
""fullscreenenter"",""0"",""3303""
","
","
","""event"",""trial"",""time""
""fullscreenenter"",""0"",""3303""
","
","null","","","","","","","","null","","","","","","","","","","","","","","","","",""
"","do_travel","57","372881","0.0-40.0-1.0","""event"",""trial"",""time""
""fullscreenenter"",""0"",""3303""
","
","
","""event"",""trial"",""time""
""fullscreenenter"",""0"",""3303""
","
","null","","","","","","","","null","","","","","","","","","","","","","","","","",""
"","do_welcome","58","376893","0.0-40.0-2.0","""event"",""trial"",""time""
""fullscreenenter"",""0"",""3303""
","
","
","""event"",""trial"",""time""
""fullscreenenter"",""0"",""3303""
","
","null","","","","","","","","null","","","","","","","","","","","","","","","","",""
"","do_trial","59","382819","0.0-40.0-3.0","""event"",""trial"",""time""
""fullscreenenter"",""0"",""3303""
","
","
","""event"",""trial"",""time""
""fullscreenenter"",""0"",""3303""
","
","1412.5","","","","","","","","49","1,0,0","","","","","","","","","","","","","","","",""
"","html-keyboard-response","60","383825","0.0-41.0-0.0","""event"",""trial"",""time""
""fullscreenenter"",""0"",""3303""
","
","
","""event"",""trial"",""time""
""fullscreenenter"",""0"",""3303""
","
","null","<p></p>","null","","","","","","","","","","","","","","","","","","","","","","",""
"","do_trial","61","389043","0.0-41.0-1.0","""event"",""trial"",""time""
""fullscreenenter"",""0"",""3303""
","
","
","""event"",""trial"",""time""
""fullscreenenter"",""0"",""3303""
","
","699.8000000119209","","","","","","","","50","1,0,1","","","","","","","","","","","","","","","",""
"","html-keyboard-response","62","390051","0.0-42.0-0.0","""event"",""trial"",""time""
""fullscreenenter"",""0"",""3303""
","
","
","""event"",""trial"",""time""
""fullscreenenter"",""0"",""3303""
","
","null","<p></p>","null","","","","","","","","","","","","","","","","","","","","","","",""
"","do_trial","63","395307","0.0-42.0-1.0","""event"",""trial"",""time""
""fullscreenenter"",""0"",""3303""
","
","
","""event"",""trial"",""time""
""fullscreenenter"",""0"",""3303""
","
","749","","","","","","","","51","1,1,0","","","","","","","","","","","","","","","",""
"","html-keyboard-response","64","396321","0.0-43.0-0.0","""event"",""trial"",""time""
""fullscreenenter"",""0"",""3303""
","
","
","""event"",""trial"",""time""
""fullscreenenter"",""0"",""3303""
","
","null","<p></p>","null","","","","","","","","","","","","","","","","","","","","","","",""
"","do_trial","65","401281","0.0-43.0-1.0","""event"",""trial"",""time""
""fullscreenenter"",""0"",""3303""
","
","
","""event"",""trial"",""time""
""fullscreenenter"",""0"",""3303""
","
","440.10000002384186","","","","","","","","49","0,0,1","","","","","","","","","","","","","","","",""
"","html-keyboard-response","66","402293","0.0-44.0-0.0","""event"",""trial"",""time""
""fullscreenenter"",""0"",""3303""
","
","
","""event"",""trial"",""time""
""fullscreenenter"",""0"",""3303""
","
","null","<p></p>","null","","","","","","","","","","","","","","","","","","","","","","",""
"","do_trial","67","407768","0.0-44.0-1.0","""event"",""trial"",""time""
""fullscreenenter"",""0"",""3303""
","
","
","""event"",""trial"",""time""
""fullscreenenter"",""0"",""3303""
","
","955.4000000357628","","","","","","","","50","1,0,1","","","","","","","","","","","","","","","",""
"","html-keyboard-response","68","411863","0.0-45.0-0.0","""event"",""trial"",""time""
""fullscreenenter"",""0"",""3303""
","
","
","""event"",""trial"",""time""
""fullscreenenter"",""0"",""3303""
","
","4092.5","<div class='center'><p><img src='run_exp/static/images/tutorial/prac_best_pirate.png'  height='500'></p></div>","49","","","","","","","","","","","","","","","","","","","","","","",""
"","html-keyboard-response","69","414192","0.0-46.0-0.0","""event"",""trial"",""time""
""fullscreenenter"",""0"",""3303""
","
","
","""event"",""trial"",""time""
""fullscreenenter"",""0"",""3303""
","
","2328.300000011921","<div class='center'><p>That's correct! Red beard was the best.</p><p><b>[Press the space bar to continue]</b></p></div>","32","","","","","","","","","","","","","","","","","","","","","","",""
"","html-keyboard-response","70","417588","0.0-46.0-1.0","""event"",""trial"",""time""
""fullscreenenter"",""0"",""3303""
","
","
","""event"",""trial"",""time""
""fullscreenenter"",""0"",""3303""
","
","3394.399999976158","<div class='center'><p><img src='run_exp/static/images/tutorial/prac_source.png'  height='500'></p></div>","49","","","","","","","","","","","","","","","","","","","","","","",""
"","html-keyboard-response","71","419294","0.0-47.0-0.0","""event"",""trial"",""time""
""fullscreenenter"",""0"",""3303""
","
","
","""event"",""trial"",""time""
""fullscreenenter"",""0"",""3303""
","
","1705.1000000238419","<div class='center'><p>That's incorrect! You saw this ship on the cavern island</p><p><b>[Press the space bar to continue]</b></p></div>","32","","","","","","","","","","","","","","","","","","","","","","",""
"","quiz_beginning","72","430481","0.0-47.0-1.0","""event"",""trial"",""time""
""fullscreenenter"",""0"",""3303""
","
","
","""event"",""trial"",""time""
""fullscreenenter"",""0"",""3303""
","
","null","run_exp/static/audio/clip_16_quiz_intro.m4a","null","","","","","<div class='center'><p>Good job on the practice game! Now, you will be asked some true or false questions to make sure you really understand the rules of the game.</p><p> Press <b>'1'</b> on the keyboard for true and press <b>'2'</b> for false.</p></div>","","","","","","","","","","","","","","","","","",""
"","audio-keyboard-response","73","433600","0.0-47.0-2.0","""event"",""trial"",""time""
""fullscreenenter"",""0"",""3303""
","
","
","""event"",""trial"",""time""
""fullscreenenter"",""0"",""3303""
","
","3118.300000011921","run_exp/static/audio/clip_17_q1.m4a","50","","","","","","","","","","","","","","","","","","","","","","",""
"","q1_err","74","438481","0.0-48.0-0.0","""event"",""trial"",""time""
""fullscreenenter"",""0"",""3303""
","
","
","""event"",""trial"",""time""
""fullscreenenter"",""0"",""3303""
","
","null","run_exp/static/audio/clip_19_wrong_q1.m4a","null","","","","","<div class='center'><p>That’s incorrect. You win bonus money by collecting gold coins.</p></div>","","","","","","","","","","","","","","","","","",""
"","html-keyboard-response","75","439647","0.0-48.0-1.0","""event"",""trial"",""time""
""fullscreenenter"",""0"",""3303""
","
","
","""event"",""trial"",""time""
""fullscreenenter"",""0"",""3303""
","
","1164.7999999523163","<div class='center'><p>That’s incorrect. You win bonus money by collecting gold coins.</p><p><b>[Press the space bar to continue]</b></p></div>","32","","","","","","","","","","","","","","","","","","","","","","",""
"","audio-keyboard-response","76","444552","0.0-48.0-2.0","""event"",""trial"",""time""
""fullscreenenter"",""0"",""3303""
","
","
","""event"",""trial"",""time""
""fullscreenenter"",""0"",""3303""
","
","4904.300000011921","run_exp/static/audio/clip_20_q2.m4a","50","","","","","","","","","","","","","","","","","","","","","","",""
"","correct","77","446960","0.0-49.0-0.0","""event"",""trial"",""time""
""fullscreenenter"",""0"",""3303""
","
","
","""event"",""trial"",""time""
""fullscreenenter"",""0"",""3303""
","
","null","run_exp/static/audio/clip_18_correct.m4a","null","","","","","<div class='center'><p>That's correct!</p></div>","","","","","","","","","","","","","","","","","",""
"","html-keyboard-response","78","447552","0.0-49.0-1.0","""event"",""trial"",""time""
""fullscreenenter"",""0"",""3303""
","
","
","""event"",""trial"",""time""
""fullscreenenter"",""0"",""3303""
","
","590.8000000119209","<div class='center'><p>That's correct!</p><p><b>[Press the space bar to continue]</b></p></div>","32","","","","","","","","","","","","","","","","","","","","","","",""
"","audio-keyboard-response","79","454806","0.0-49.0-2.0","""event"",""trial"",""time""
""fullscreenenter"",""0"",""3303""
","
","
","""event"",""trial"",""time""
""fullscreenenter"",""0"",""3303""
","
","7253","run_exp/static/audio/clip_22_q3.m4a","50","","","","","","","","","","","","","","","","","","","","","","",""
"","correct","80","457200","0.0-50.0-0.0","""event"",""trial"",""time""
""fullscreenenter"",""0"",""3303""
","
","
","""event"",""trial"",""time""
""fullscreenenter"",""0"",""3303""
","
","null","run_exp/static/audio/clip_18_correct.m4a","null","","","","","<div class='center'><p>That's correct!</p></div>","","","","","","","","","","","","","","","","","",""
"","html-keyboard-response","81","457851","0.0-50.0-1.0","""event"",""trial"",""time""
""fullscreenenter"",""0"",""3303""
","
","
","""event"",""trial"",""time""
""fullscreenenter"",""0"",""3303""
","
","649.8000000119209","<div class='center'><p>That's correct!</p><p><b>[Press the space bar to continue]</b></p></div>","32","","","","","","","","","","","","","","","","","","","","","","",""
"","audio-keyboard-response","82","462262","0.0-50.0-2.0","""event"",""trial"",""time""
""fullscreenenter"",""0"",""3303""
","
","
","""event"",""trial"",""time""
""fullscreenenter"",""0"",""3303""
","
","4410.399999976158","run_exp/static/audio/clip_24_q4.m4a","49","","","","","","","","","","","","","","","","","","","","","","",""
"","correct","83","464660","0.0-51.0-0.0","""event"",""trial"",""time""
""fullscreenenter"",""0"",""3303""
","
","
","""event"",""trial"",""time""
""fullscreenenter"",""0"",""3303""
","
","null","run_exp/static/audio/clip_18_correct.m4a","null","","","","","<div class='center'><p>That's correct!</p></div>","","","","","","","","","","","","","","","","","",""
"","html-keyboard-response","84","465100","0.0-51.0-1.0","""event"",""trial"",""time""
""fullscreenenter"",""0"",""3303""
","
","
","""event"",""trial"",""time""
""fullscreenenter"",""0"",""3303""
","
","438.4000000357628","<div class='center'><p>That's correct!</p><p><b>[Press the space bar to continue]</b></p></div>","32","","","","","","","","","","","","","","","","","","","","","","",""
"","q_all_err","85","471281","0.0-52.0-0.0","""event"",""trial"",""time""
""fullscreenenter"",""0"",""3303""
","
","
","""event"",""trial"",""time""
""fullscreenenter"",""0"",""3303""
","
","null","run_exp/static/audio/clip_26_quiz_redo.m4a","null","","","","","<div class='center'><p>Oops, you missed some questions. Now that you’ve heard the correct answers. Try the quiz again! </p></div>","","","","","","","","","","","","","","","","","",""
"","html-keyboard-response","86","471998","0.0-52.0-1.0","""event"",""trial"",""time""
""fullscreenenter"",""0"",""3303""
","
","
","""event"",""trial"",""time""
""fullscreenenter"",""0"",""3303""
","
","716.1999999880791","<div class='center'><p>Oops, you missed some questions. Now that you’ve heard the correct answers. Try the quiz again! </p><p><b>[Press the space bar to continue]</b></p></div>","32","","","","","","","","","","","","","","","","","","","","","","",""
"","audio-keyboard-response","87","473566","0.0-52.0-2.0","""event"",""trial"",""time""
""fullscreenenter"",""0"",""3303""
","
","
","""event"",""trial"",""time""
""fullscreenenter"",""0"",""3303""
","
","1567.199999988079","run_exp/static/audio/clip_17_q1.m4a","49","","","","","","","","","","","","","","","","","","","","","","",""
"","correct","88","475960","0.0-53.0-0.0","""event"",""trial"",""time""
""fullscreenenter"",""0"",""3303""
","
","
","""event"",""trial"",""time""
""fullscreenenter"",""0"",""3303""
","
","null","run_exp/static/audio/clip_18_correct.m4a","null","","","","","<div class='center'><p>That's correct!</p></div>","","","","","","","","","","","","","","","","","",""
"","html-keyboard-response","89","476357","0.0-53.0-1.0","""event"",""trial"",""time""
""fullscreenenter"",""0"",""3303""
","
","
","""event"",""trial"",""time""
""fullscreenenter"",""0"",""3303""
","
","396.19999998807907","<div class='center'><p>That's correct!</p><p><b>[Press the space bar to continue]</b></p></div>","32","","","","","","","","","","","","","","","","","","","","","","",""
"","audio-keyboard-response","90","480886","0.0-53.0-2.0","""event"",""trial"",""time""
""fullscreenenter"",""0"",""3303""
","
","
","""event"",""trial"",""time""
""fullscreenenter"",""0"",""3303""
","
","4527.699999988079","run_exp/static/audio/clip_20_q2.m4a","50","","","","","","","","","","","","","","","","","","","","","","",""
"","correct","91","483281","0.0-54.0-0.0","""event"",""trial"",""time""
""fullscreenenter"",""0"",""3303""
","
","
","""event"",""trial"",""time""
""fullscreenenter"",""0"",""3303""
","
","null","run_exp/static/audio/clip_18_correct.m4a","null","","","","","<div class='center'><p>That's correct!</p></div>","","","","","","","","","","","","","","","","","",""
"","html-keyboard-response","92","483550","0.0-54.0-1.0","""event"",""trial"",""time""
""fullscreenenter"",""0"",""3303""
","
","
","""event"",""trial"",""time""
""fullscreenenter"",""0"",""3303""
","
","268.89999997615814","<div class='center'><p>That's correct!</p><p><b>[Press the space bar to continue]</b></p></div>","32","","","","","","","","","","","","","","","","","","","","","","",""
"","audio-keyboard-response","93","486613","0.0-54.0-2.0","""event"",""trial"",""time""
""fullscreenenter"",""0"",""3303""
","
","
","""event"",""trial"",""time""
""fullscreenenter"",""0"",""3303""
","
","3061.800000011921","run_exp/static/audio/clip_22_q3.m4a","50","","","","","","","","","","","","","","","","","","","","","","",""
"","correct","94","489001","0.0-55.0-0.0","""event"",""trial"",""time""
""fullscreenenter"",""0"",""3303""
","
","
","""event"",""trial"",""time""
""fullscreenenter"",""0"",""3303""
","
","null","run_exp/static/audio/clip_18_correct.m4a","null","","","","","<div class='center'><p>That's correct!</p></div>","","","","","","","","","","","","","","","","","",""
"","html-keyboard-response","95","489377","0.0-55.0-1.0","""event"",""trial"",""time""
""fullscreenenter"",""0"",""3303""
","
","
","""event"",""trial"",""time""
""fullscreenenter"",""0"",""3303""
","
","375.5","<div class='center'><p>That's correct!</p><p><b>[Press the space bar to continue]</b></p></div>","32","","","","","","","","","","","","","","","","","","","","","","",""
"","audio-keyboard-response","96","491226","0.0-55.0-2.0","""event"",""trial"",""time""
""fullscreenenter"",""0"",""3303""
","
","
","""event"",""trial"",""time""
""fullscreenenter"",""0"",""3303""
","
","1848","run_exp/static/audio/clip_24_q4.m4a","49","","","","","","","","","","","","","","","","","","","","","","",""
"","correct","97","493661","0.0-56.0-0.0","""event"",""trial"",""time""
""fullscreenenter"",""0"",""3303""
","
","
","""event"",""trial"",""time""
""fullscreenenter"",""0"",""3303""
","
","null","run_exp/static/audio/clip_18_correct.m4a","null","","","","","<div class='center'><p>That's correct!</p></div>","","","","","","","","","","","","","","","","","",""
"","html-keyboard-response","98","494064","0.0-56.0-1.0","""event"",""trial"",""time""
""fullscreenenter"",""0"",""3303""
","
","
","""event"",""trial"",""time""
""fullscreenenter"",""0"",""3303""
","
","401.9000000357628","<div class='center'><p>That's correct!</p><p><b>[Press the space bar to continue]</b></p></div>","32","","","","","","","","","","","","","","","","","","","","","","",""
"","q_all_corr","99","502541","0.0-57.0-0.0","""event"",""trial"",""time""
""fullscreenenter"",""0"",""3303""
","
","
","""event"",""trial"",""time""
""fullscreenenter"",""0"",""3303""
","
","null","run_exp/static/audio/clip_27_quiz_all_correct.m4a","null","","","","","<div class='center'><p>Good job! You’re now ready to move on to the real game! Remember this game will be difficult but don't get discouraged and try your best!</p></div>","","","","","","","","","","","","","","","","","",""
"","html-keyboard-response","100","503707","0.0-57.0-1.0","""event"",""trial"",""time""
""fullscreenenter"",""0"",""3303""
","
","
","""event"",""trial"",""time""
""fullscreenenter"",""0"",""3303""
","
","1165.0999999642372","<div class='center'><p>Good job! You’re now ready to move on to the real game! Remember this game will be difficult but don't get discouraged and try your best!</p><p><b>[Press the space bar to continue]</b></p></div>","32","","","","","","","","","","","","","","","","","","","","","","",""
"","do_welcome","101","507713","0.0-58.0-0.0","""event"",""trial"",""time""
""fullscreenenter"",""0"",""3303""
","
","
","""event"",""trial"",""time""
""fullscreenenter"",""0"",""3303""
","
","null","","","","","","","","null","","","","","","","","","","","","","","","","",""
"","do_trial","102","513776","0.0-59.0-0.0","""event"",""trial"",""time""
""fullscreenenter"",""0"",""3303""
","
","
","""event"",""trial"",""time""
""fullscreenenter"",""0"",""3303""
","
","null","","","","","","","","null","1,1,0","0","city","0","probe-124","0.6","0.3","0.1","","","","","","","","",""
"","html-keyboard-response","103","514786","0.0-59.0-1.0","""event"",""trial"",""time""
""fullscreenenter"",""0"",""3303""
","
","
","""event"",""trial"",""time""
""fullscreenenter"",""0"",""3303""
","
","null","<p></p>","null","","","","","","","","","","","","","","","","","","","","","","",""
"","do_trial","104","520020","0.0-60.0-0.0","""event"",""trial"",""time""
""fullscreenenter"",""0"",""3303""
","
","
","""event"",""trial"",""time""
""fullscreenenter"",""0"",""3303""
","
","696.6999999880791","","","","","","","","49","0,1,0","0","city","1","probe-72","0.5618460924542771","0.2651674090114295","0.1013768042731953","0","","","","","","","",""
"","html-keyboard-response","105","521028","0.0-60.0-1.0","""event"",""trial"",""time""
""fullscreenenter"",""0"",""3303""
","
","
","""event"",""trial"",""time""
""fullscreenenter"",""0"",""3303""
","
","null","<p></p>","null","","","","","","","","","","","","","","","","","","","","","","",""
"","do_trial","106","526455","0.0-61.0-0.0","""event"",""trial"",""time""
""fullscreenenter"",""0"",""3303""
","
","
","""event"",""trial"",""time""
""fullscreenenter"",""0"",""3303""
","
","894.4000000357628","","","","","","","","50","1,0,1","0","city","2","probe-08","0.7817713340878129","0.322194577436311","0.2189050155510206","0","","","","","","","",""
"","html-keyboard-response","107","527462","0.0-61.0-1.0","""event"",""trial"",""time""
""fullscreenenter"",""0"",""3303""
","
","
","""event"",""trial"",""time""
""fullscreenenter"",""0"",""3303""
","
","null","<p></p>","null","","","","","","","","","","","","","","","","","","","","","","",""
"","do_trial","108","532899","0.0-62.0-0.0","""event"",""trial"",""time""
""fullscreenenter"",""0"",""3303""
","
","
","""event"",""trial"",""time""
""fullscreenenter"",""0"",""3303""
","
","895.5","","","","","","","","51","0,0,1","0","city","3","probe-162","0.7094372668631119","0.3990588145877941","0.23172041137673965","1","","","","","","","",""
"","html-keyboard-response","109","533910","0.0-62.0-1.0","""event"",""trial"",""time""
""fullscreenenter"",""0"",""3303""
","
","
","""event"",""trial"",""time""
""fullscreenenter"",""0"",""3303""
","
","null","<p></p>","null","","","","","","","","","","","","","","","","","","","","","","",""
"","do_trial","110","538995","0.0-63.0-0.0","""event"",""trial"",""time""
""fullscreenenter"",""0"",""3303""
","
","
","""event"",""trial"",""time""
""fullscreenenter"",""0"",""3303""
","
","544.7000000476837","","","","","","","","51","1,0,0","0","city","4","probe-175","0.7868858923333244","0.4630824239802962","0.15914039304395985","0","","","","","","","",""
"","html-keyboard-response","111","540002","0.0-63.0-1.0","""event"",""trial"",""time""
""fullscreenenter"",""0"",""3303""
","
","
","""event"",""trial"",""time""
""fullscreenenter"",""0"",""3303""
","
","null","<p></p>","null","","","","","","","","","","","","","","","","","","","","","","",""
"","do_trial","112","545215","0.0-64.0-0.0","""event"",""trial"",""time""
""fullscreenenter"",""0"",""3303""
","
","
","""event"",""trial"",""time""
""fullscreenenter"",""0"",""3303""
","
","667.7999999523163","","","","","","","","51","0,1,0","0","city","5","probe-71","0.6918113335044183","0.39768947551793865","0.28702103447448374","0","","","","","","","",""
"","html-keyboard-response","113","546223","0.0-64.0-1.0","""event"",""trial"",""time""
""fullscreenenter"",""0"",""3303""
","
","
","""event"",""trial"",""time""
""fullscreenenter"",""0"",""3303""
","
","null","<p></p>","null","","","","","","","","","","","","","","","","","","","","","","",""
"","do_trial","114","551312","0.0-65.0-0.0","""event"",""trial"",""time""
""fullscreenenter"",""0"",""3303""
","
","
","""event"",""trial"",""time""
""fullscreenenter"",""0"",""3303""
","
","551.1000000238419","","","","","","","","49","1,0,1","0","city","6","probe-139","0.6137377634524925","0.3323452534335972","0.2637795175067515","1","","","","","","","",""
"","html-keyboard-response","115","552318","0.0-65.0-1.0","""event"",""trial"",""time""
""fullscreenenter"",""0"",""3303""
","
","
","""event"",""trial"",""time""
""fullscreenenter"",""0"",""3303""
","
","null","<p></p>","null","","","","","","","","","","","","","","","","","","","","","","",""
"","do_trial","116","557439","0.0-66.0-0.0","""event"",""trial"",""time""
""fullscreenenter"",""0"",""3303""
","
","
","""event"",""trial"",""time""
""fullscreenenter"",""0"",""3303""
","
","585.3999999761581","","","","","","","","50","0,0,0","0","city","7","probe-189","0.5425694645489492","0.09195032472068533","0.14865637603811444","0","","","","","","","",""
"","html-keyboard-response","117","558454","0.0-66.0-1.0","""event"",""trial"",""time""
""fullscreenenter"",""0"",""3303""
","
","
","""event"",""trial"",""time""
""fullscreenenter"",""0"",""3303""
","
","null","<p></p>","null","","","","","","","","","","","","","","","","","","","","","","",""
"","do_trial","118","563517","0.0-67.0-0.0","""event"",""trial"",""time""
""fullscreenenter"",""0"",""3303""
","
","
","""event"",""trial"",""time""
""fullscreenenter"",""0"",""3303""
","
","520.2999999523163","","","","","","","","49","0,0,0","0","city","8","probe-49","0.480303951329151","0.08733231493356293","0.13755113480546502","0","","","","","","","",""
"","html-keyboard-response","119","564522","0.0-67.0-1.0","""event"",""trial"",""time""
""fullscreenenter"",""0"",""3303""
","
","
","""event"",""trial"",""time""
""fullscreenenter"",""0"",""3303""
","
","null","<p></p>","null","","","","","","","","","","","","","","","","","","","","","","",""
"","do_trial","120","569678","0.0-68.0-0.0","""event"",""trial"",""time""
""fullscreenenter"",""0"",""3303""
","
","
","""event"",""trial"",""time""
""fullscreenenter"",""0"",""3303""
","
","620.5","","","","","","","","50","0,1,0","0","city","9","probe-150","0.4459043512279966","0.16312081410729487","0.11484801655526475","1","","","","","","","",""
"","html-keyboard-response","121","570689","0.0-68.0-1.0","""event"",""trial"",""time""
""fullscreenenter"",""0"",""3303""
","
","
","""event"",""trial"",""time""
""fullscreenenter"",""0"",""3303""
","
","null","<p></p>","null","","","","","","","","","","","","","","","","","","","","","","",""
"","do_trial","122","576178","0.0-69.0-0.0","""event"",""trial"",""time""
""fullscreenenter"",""0"",""3303""
","
","
","""event"",""trial"",""time""
""fullscreenenter"",""0"",""3303""
","
","955.0999999642372","","","","","","","","51","0,0,0","0","city","10","probe-69","0.35089770234720696","0.18770182692301865","0.18543436727496398","0","","","","","","","",""
"","html-keyboard-response","123","577195","0.0-69.0-1.0","""event"",""trial"",""time""
""fullscreenenter"",""0"",""3303""
","
","
","""event"",""trial"",""time""
""fullscreenenter"",""0"",""3303""
","
","null","<p></p>","null","","","","","","","","","","","","","","","","","","","","","","",""
"","do_trial","124","583350","0.0-70.0-0.0","""event"",""trial"",""time""
""fullscreenenter"",""0"",""3303""
","
","
","""event"",""trial"",""time""
""fullscreenenter"",""0"",""3303""
","
","1622.699999988079","","","","","","","","50","1,1,1","0","city","11","probe-228","0.5370171002495581","0.2900679047064226","0.2353741689153302","1","","","","","","","",""
"","html-keyboard-response","125","584358","0.0-70.0-1.0","""event"",""trial"",""time""
""fullscreenenter"",""0"",""3303""
","
","
","""event"",""trial"",""time""
""fullscreenenter"",""0"",""3303""
","
","null","<p></p>","null","","","","","","","","","","","","","","","","","","","","","","",""
"","do_trial","126","589650","0.0-71.0-0.0","""event"",""trial"",""time""
""fullscreenenter"",""0"",""3303""
","
","
","""event"",""trial"",""time""
""fullscreenenter"",""0"",""3303""
","
","746.0999999642372","","","","","","","","50","1,0,0","0","city","12","probe-207","0.4537415352857341","0.22785069585849857","0.20116620372785327","0","","","","","","","",""
"","html-keyboard-response","127","590659","0.0-71.0-1.0","""event"",""trial"",""time""
""fullscreenenter"",""0"",""3303""
","
","
","""event"",""trial"",""time""
""fullscreenenter"",""0"",""3303""
","
","null","<p></p>","null","","","","","","","","","","","","","","","","","","","","","","",""
"","do_trial","128","595727","0.0-72.0-0.0","""event"",""trial"",""time""
""fullscreenenter"",""0"",""3303""
","
","
","""event"",""trial"",""time""
""fullscreenenter"",""0"",""3303""
","
","530.1999999880791","","","","","","","","49","1,0,0","0","city","13","probe-47","0.5148278527120439","0.39434736741964727","0.18708087489297978","1","","","","","","","",""
"","html-keyboard-response","129","596737","0.0-72.0-1.0","""event"",""trial"",""time""
""fullscreenenter"",""0"",""3303""
","
","
","""event"",""trial"",""time""
""fullscreenenter"",""0"",""3303""
","
","null","<p></p>","null","","","","","","","","","","","","","","","","","","","","","","",""
"","do_trial","130","601867","0.0-73.0-0.0","""event"",""trial"",""time""
""fullscreenenter"",""0"",""3303""
","
","
","""event"",""trial"",""time""
""fullscreenenter"",""0"",""3303""
","
","589.2999999523163","","","","","","","","49","1,0,1","0","city","14","probe-103","0.649774783383958","0.3245250759071996","0.06309364406565024","1","","","","","","","",""
"","html-keyboard-response","131","602874","0.0-73.0-1.0","""event"",""trial"",""time""
""fullscreenenter"",""0"",""3303""
","
","
","""event"",""trial"",""time""
""fullscreenenter"",""0"",""3303""
","
","null","<p></p>","null","","","","","","","","","","","","","","","","","","","","","","",""
"","do_trial","132","607973","0.0-74.0-0.0","""event"",""trial"",""time""
""fullscreenenter"",""0"",""3303""
","
","
","""event"",""trial"",""time""
""fullscreenenter"",""0"",""3303""
","
","557.8000000119209","","","","","","","","49","1,0,0","0","city","15","probe-62","0.5493658328943938","0.36642951601835905","0.06869896467537313","1","","","","","","","",""
"","html-keyboard-response","133","608982","0.0-74.0-1.0","""event"",""trial"",""time""
""fullscreenenter"",""0"",""3303""
","
","
","""event"",""trial"",""time""
""fullscreenenter"",""0"",""3303""
","
","null","<p></p>","null","","","","","","","","","","","","","","","","","","","","","","",""
"","do_trial","134","614204","0.0-75.0-0.0","""event"",""trial"",""time""
""fullscreenenter"",""0"",""3303""
","
","
","""event"",""trial"",""time""
""fullscreenenter"",""0"",""3303""
","
","689.5","","","","","","","","49","0,0,0","0","city","16","probe-74","0.6613123748835189","0.326919591896288","0.11105496804972748","0","","","","","","","",""
"","html-keyboard-response","135","615211","0.0-75.0-1.0","""event"",""trial"",""time""
""fullscreenenter"",""0"",""3303""
","
","
","""event"",""trial"",""time""
""fullscreenenter"",""0"",""3303""
","
","null","<p></p>","null","","","","","","","","","","","","","","","","","","","","","","",""
"","do_trial","136","620068","0.0-76.0-0.0","""event"",""trial"",""time""
""fullscreenenter"",""0"",""3303""
","
","
","""event"",""trial"",""time""
""fullscreenenter"",""0"",""3303""
","
","323.5999999642372","","","","","","","","51","1,0,0","0","city","17","probe-95","0.559431614310151","0.2815751868588182","0.07150124350088603","0","","","","","","","",""
"","html-keyboard-response","137","621077","0.0-76.0-1.0","""event"",""trial"",""time""
""fullscreenenter"",""0"",""3303""
","
","
","""event"",""trial"",""time""
""fullscreenenter"",""0"",""3303""
","
","null","<p></p>","null","","","","","","","","","","","","","","","","","","","","","","",""
"","do_trial","138","626195","0.0-77.0-0.0","""event"",""trial"",""time""
""fullscreenenter"",""0"",""3303""
","
","
","""event"",""trial"",""time""
""fullscreenenter"",""0"",""3303""
","
","574","","","","","","","","49","1,0,0","0","city","18","probe-70","0.6407909933153565","0.2674035044353933","0.12771293144087315","1","","","","","","","",""
"","html-keyboard-response","139","627204","0.0-77.0-1.0","""event"",""trial"",""time""
""fullscreenenter"",""0"",""3303""
","
","
","""event"",""trial"",""time""
""fullscreenenter"",""0"",""3303""
","
","null","<p></p>","null","","","","","","","","","","","","","","","","","","","","","","",""
"","do_trial","140","632285","0.0-78.0-0.0","""event"",""trial"",""time""
""fullscreenenter"",""0"",""3303""
","
","
","""event"",""trial"",""time""
""fullscreenenter"",""0"",""3303""
","
","543","","","","","","","","49","1,0,1","0","city","19","probe-137","0.6161824221142334","0.3397062602312431","0.2094893989406898","1","","","","","","","",""
"","html-keyboard-response","141","633294","0.0-78.0-1.0","""event"",""trial"",""time""
""fullscreenenter"",""0"",""3303""
","
","
","""event"",""trial"",""time""
""fullscreenenter"",""0"",""3303""
","
","null","<p></p>","null","","","","","","","","","","","","","","","","","","","","","","",""
"","do_trial","142","638501","0.0-79.0-0.0","""event"",""trial"",""time""
""fullscreenenter"",""0"",""3303""
","
","
","""event"",""trial"",""time""
""fullscreenenter"",""0"",""3303""
","
","662.5","","","","","","","","49","1,1,0","0","city","20","probe-199","0.6279194210380287","0.4802540324254622","0.16619919915430903","1","","","","","","","",""
"","html-keyboard-response","143","639509","0.0-79.0-1.0","""event"",""trial"",""time""
""fullscreenenter"",""0"",""3303""
","
","
","""event"",""trial"",""time""
""fullscreenenter"",""0"",""3303""
","
","null","<p></p>","null","","","","","","","","","","","","","","","","","","","","","","",""
"","do_trial","144","644357","0.0-80.0-0.0","""event"",""trial"",""time""
""fullscreenenter"",""0"",""3303""
","
","
","""event"",""trial"",""time""
""fullscreenenter"",""0"",""3303""
","
","310.10000002384186","","","","","","","","49","0,0,0","0","city","21","probe-05","0.6878620930760095","0.2896371161224878","0.07828281963704634","0","","","","","","","",""
"","html-keyboard-response","145","645366","0.0-80.0-1.0","""event"",""trial"",""time""
""fullscreenenter"",""0"",""3303""
","
","
","""event"",""trial"",""time""
""fullscreenenter"",""0"",""3303""
","
","null","<p></p>","null","","","","","","","","","","","","","","","","","","","","","","",""
"","do_trial","146","650398","0.0-81.0-0.0","""event"",""trial"",""time""
""fullscreenenter"",""0"",""3303""
","
","
","""event"",""trial"",""time""
""fullscreenenter"",""0"",""3303""
","
","487.10000002384186","","","","","","","","50","0,1,0","0","city","22","probe-11","0.619324537719035","0.4606548268017924","0.14345957314507746","1","","","","","","","",""
"","html-keyboard-response","147","651406","0.0-81.0-1.0","""event"",""trial"",""time""
""fullscreenenter"",""0"",""3303""
","
","
","""event"",""trial"",""time""
""fullscreenenter"",""0"",""3303""
","
","null","<p></p>","null","","","","","","","","","","","","","","","","","","","","","","",""
"","do_trial","148","656647","0.0-82.0-0.0","""event"",""trial"",""time""
""fullscreenenter"",""0"",""3303""
","
","
","""event"",""trial"",""time""
""fullscreenenter"",""0"",""3303""
","
","691.8000000119209","","","","","","","","50","1,0,0","0","city","23","probe-16","0.7303969169745947","0.5745857549089519","0.10777997003439561","0","","","","","","","",""
"","html-keyboard-response","149","657657","0.0-82.0-1.0","""event"",""trial"",""time""
""fullscreenenter"",""0"",""3303""
","
","
","""event"",""trial"",""time""
""fullscreenenter"",""0"",""3303""
","
","null","<p></p>","null","","","","","","","","","","","","","","","","","","","","","","",""
"","do_trial","150","662512","0.0-83.0-0.0","""event"",""trial"",""time""
""fullscreenenter"",""0"",""3303""
","
","
","""event"",""trial"",""time""
""fullscreenenter"",""0"",""3303""
","
","325.5","","","","","","","","50","0,0,1","0","city","24","probe-28","0.5863066023050619","0.3632958525091024","0.18668605956194753","0","","","","","","","",""
"","html-keyboard-response","151","663526","0.0-83.0-1.0","""event"",""trial"",""time""
""fullscreenenter"",""0"",""3303""
","
","
","""event"",""trial"",""time""
""fullscreenenter"",""0"",""3303""
","
","null","<p></p>","null","","","","","","","","","","","","","","","","","","","","","","",""
"","do_trial","152","668461","0.0-84.0-0.0","""event"",""trial"",""time""
""fullscreenenter"",""0"",""3303""
","
","
","""event"",""trial"",""time""
""fullscreenenter"",""0"",""3303""
","
","401.9000000357628","","","","","","","","51","0,0,1","0","city","25","probe-174","0.5712654373588398","0.24477201633371984","0.18588999316476354","1","","","","","","","",""
"","html-keyboard-response","153","669471","0.0-84.0-1.0","""event"",""trial"",""time""
""fullscreenenter"",""0"",""3303""
","
","
","""event"",""trial"",""time""
""fullscreenenter"",""0"",""3303""
","
","null","<p></p>","null","","","","","","","","","","","","","","","","","","","","","","",""
"","do_trial","154","674669","0.0-85.0-0.0","""event"",""trial"",""time""
""fullscreenenter"",""0"",""3303""
","
","
","""event"",""trial"",""time""
""fullscreenenter"",""0"",""3303""
","
","658.1000000238419","","","","","","","","51","1,0,0","0","city","26","probe-79","0.48483327135791954","0.3632343977265539","0.1957897704392958","0","","","","","","","",""
"","html-keyboard-response","155","675679","0.0-85.0-1.0","""event"",""trial"",""time""
""fullscreenenter"",""0"",""3303""
","
","
","""event"",""trial"",""time""
""fullscreenenter"",""0"",""3303""
","
","null","<p></p>","null","","","","","","","","","","","","","","","","","","","","","","",""
"","do_trial","156","680541","0.0-86.0-0.0","""event"",""trial"",""time""
""fullscreenenter"",""0"",""3303""
","
","
","""event"",""trial"",""time""
""fullscreenenter"",""0"",""3303""
","
","323","","","","","","","","51","0,0,0","0","city","27","probe-120","0.673006418152181","0.29935696663563605","0.21250114555952654","0","","","","","","","",""
"","html-keyboard-response","157","681553","0.0-86.0-1.0","""event"",""trial"",""time""
""fullscreenenter"",""0"",""3303""
","
","
","""event"",""trial"",""time""
""fullscreenenter"",""0"",""3303""
","
","null","<p></p>","null","","","","","","","","","","","","","","","","","","","","","","",""
"","do_trial","158","686878","0.0-87.0-0.0","""event"",""trial"",""time""
""fullscreenenter"",""0"",""3303""
","
","
","""event"",""trial"",""time""
""fullscreenenter"",""0"",""3303""
","
","784.1999999880791","","","","","","","","49","0,0,0","0","city","28","probe-96","0.6916140092678233","0.22496681596853857","0.17952042499697957","0","","","","","","","",""
"","html-keyboard-response","159","687886","0.0-87.0-1.0","""event"",""trial"",""time""
""fullscreenenter"",""0"",""3303""
","
","
","""event"",""trial"",""time""
""fullscreenenter"",""0"",""3303""
","
","null","<p></p>","null","","","","","","","","","","","","","","","","","","","","","","",""
"","do_trial","160","692730","0.0-88.0-0.0","""event"",""trial"",""time""
""fullscreenenter"",""0"",""3303""
","
","
","""event"",""trial"",""time""
""fullscreenenter"",""0"",""3303""
","
","302.5","","","","","","","","49","1,0,0","0","city","29","probe-102","0.5476809384738204","0.2528142342820682","0.14012612773750674","1","","","","","","","",""
"","html-keyboard-response","161","693739","0.0-88.0-1.0","""event"",""trial"",""time""
""fullscreenenter"",""0"",""3303""
","
","
","""event"",""trial"",""time""
""fullscreenenter"",""0"",""3303""
","
","null","<p></p>","null","","","","","","","","","","","","","","","","","","","","","","",""
"","do_bye","162","695247","0.0-89.0-0.0","""event"",""trial"",""time""
""fullscreenenter"",""0"",""3303""
","
","
","""event"",""trial"",""time""
""fullscreenenter"",""0"",""3303""
","
","null","","","","","","","","null","","","","","","","","","","","","","","","","",""
"","break","163","700298","0.0-89.0-1.0","""event"",""trial"",""time""
""fullscreenenter"",""0"",""3303""
","
","
","""event"",""trial"",""time""
""fullscreenenter"",""0"",""3303""
","
","5050.5","<div class='center'><p>Time to take a quick break! You have 2 minutes to rest, but you can move on sooner if you'd like.</p><p> Press the <b>space bar</b> to continue.</p></div>","32","","","","","","","","","","","","","","","","","","","","","","",""
"","do_travel","164","709302","0.0-90.0-0.0","""event"",""trial"",""time""
""fullscreenenter"",""0"",""3303""
","
","
","""event"",""trial"",""time""
""fullscreenenter"",""0"",""3303""
","
","null","","","","","","","","null","","","","","","","","","","","","","","","","",""
"","do_welcome","165","713320","0.0-90.0-1.0","""event"",""trial"",""time""
""fullscreenenter"",""0"",""3303""
","
","
","""event"",""trial"",""time""
""fullscreenenter"",""0"",""3303""
","
","null","","","","","","","","null","","","","","","","","","","","","","","","","",""
"","do_trial","166","719566","0.0-91.0-0.0","""event"",""trial"",""time""
""fullscreenenter"",""0"",""3303""
","
","
","""event"",""trial"",""time""
""fullscreenenter"",""0"",""3303""
","
","1707.300000011921","","","","","","","","49","1,0,0","1","mountain","30","probe-187","1","0.23083001468843528","0.05798074020335353","1","","","","","","","",""
"","html-keyboard-response","167","720575","0.0-91.0-1.0","""event"",""trial"",""time""
""fullscreenenter"",""0"",""3303""
","
","
","""event"",""trial"",""time""
""fullscreenenter"",""0"",""3303""
","
","null","<p></p>","null","","","","","","","","","","","","","","","","","","","","","","",""
"","do_trial","168","726305","0.0-92.0-0.0","""event"",""trial"",""time""
""fullscreenenter"",""0"",""3303""
","
","
","""event"",""trial"",""time""
""fullscreenenter"",""0"",""3303""
","
","1192.5","","","","","","","","50","1,0,0","1","mountain","31","probe-183","1","0.2148453815061248","0.0608307478008927","0","","","","","","","",""
"","html-keyboard-response","169","727315","0.0-92.0-1.0","""event"",""trial"",""time""
""fullscreenenter"",""0"",""3303""
","
","
","""event"",""trial"",""time""
""fullscreenenter"",""0"",""3303""
","
","null","<p></p>","null","","","","","","","","","","","","","","","","","","","","","","",""
"","do_trial","170","732783","0.0-93.0-0.0","""event"",""trial"",""time""
""fullscreenenter"",""0"",""3303""
","
","
","""event"",""trial"",""time""
""fullscreenenter"",""0"",""3303""
","
","930.1999999880791","","","","","","","","51","1,1,0","1","mountain","32","probe-81","1","0.17352731223677226","0.15648465718741625","0","","","","","","","",""
"","html-keyboard-response","171","733792","0.0-93.0-1.0","""event"",""trial"",""time""
""fullscreenenter"",""0"",""3303""
","
","
","""event"",""trial"",""time""
""fullscreenenter"",""0"",""3303""
","
","null","<p></p>","null","","","","","","","","","","","","","","","","","","","","","","",""
"","do_trial","172","740161","0.0-94.0-0.0","""event"",""trial"",""time""
""fullscreenenter"",""0"",""3303""
","
","
","""event"",""trial"",""time""
""fullscreenenter"",""0"",""3303""
","
","1834.6000000238419","","","","","","","","49","1,0,0","1","mountain","33","probe-184","0.8408668646944255","0.1706531704789962","0.06551096674223236","1","","","","","","","",""
"","html-keyboard-response","173","741171","0.0-94.0-1.0","""event"",""trial"",""time""
""fullscreenenter"",""0"",""3303""
","
","
","""event"",""trial"",""time""
""fullscreenenter"",""0"",""3303""
","
","null","<p></p>","null","","","","","","","","","","","","","","","","","","","","","","",""
"","do_trial","174","746530","0.0-95.0-0.0","""event"",""trial"",""time""
""fullscreenenter"",""0"",""3303""
","
","
","""event"",""trial"",""time""
""fullscreenenter"",""0"",""3303""
","
","827.3000000119209","","","","","","","","49","1,0,0","1","mountain","34","probe-176","0.6323380250971298","0.26124195818071","0.15947764246080046","1","","","","","","","",""
"","html-keyboard-response","175","747541","0.0-95.0-1.0","""event"",""trial"",""time""
""fullscreenenter"",""0"",""3303""
","
","
","""event"",""trial"",""time""
""fullscreenenter"",""0"",""3303""
","
","null","<p></p>","null","","","","","","","","","","","","","","","","","","","","","","",""
"","do_trial","176","752801","0.0-96.0-0.0","""event"",""trial"",""time""
""fullscreenenter"",""0"",""3303""
","
","
","""event"",""trial"",""time""
""fullscreenenter"",""0"",""3303""
","
","721.6999999880791","","","","","","","","49","1,1,0","1","mountain","35","probe-129","0.6033087435190783","0.1696177988074242","0.059355960178883505","1","","","","","","","",""
"","html-keyboard-response","177","753809","0.0-96.0-1.0","""event"",""trial"",""time""
""fullscreenenter"",""0"",""3303""
","
","
","""event"",""trial"",""time""
""fullscreenenter"",""0"",""3303""
","
","null","<p></p>","null","","","","","","","","","","","","","","","","","","","","","","",""
"","do_trial","178","759017","0.0-97.0-0.0","""event"",""trial"",""time""
""fullscreenenter"",""0"",""3303""
","
","
","""event"",""trial"",""time""
""fullscreenenter"",""0"",""3303""
","
","662.5","","","","","","","","49","1,0,0","1","mountain","36","probe-108","0.507383281981416","0.05072480492205123","0.12623824543249149","1","","","","","","","",""
"","html-keyboard-response","179","760024","0.0-97.0-1.0","""event"",""trial"",""time""
""fullscreenenter"",""0"",""3303""
","
","
","""event"",""trial"",""time""
""fullscreenenter"",""0"",""3303""
","
","null","<p></p>","null","","","","","","","","","","","","","","","","","","","","","","",""
"","do_trial","180","765194","0.0-98.0-0.0","""event"",""trial"",""time""
""fullscreenenter"",""0"",""3303""
","
","
","""event"",""trial"",""time""
""fullscreenenter"",""0"",""3303""
","
","629.0999999642372","","","","","","","","49","0,0,0","1","mountain","37","probe-193","0.5955858033286531","0.05273469541940973","0.10417644849013608","0","","","","","","","",""
"","html-keyboard-response","181","766201","0.0-98.0-1.0","""event"",""trial"",""time""
""fullscreenenter"",""0"",""3303""
","
","
","""event"",""trial"",""time""
""fullscreenenter"",""0"",""3303""
","
","null","<p></p>","null","","","","","","","","","","","","","","","","","","","","","","",""
"","do_trial","182","771011","0.0-99.0-0.0","""event"",""trial"",""time""
""fullscreenenter"",""0"",""3303""
","
","
","""event"",""trial"",""time""
""fullscreenenter"",""0"",""3303""
","
","272.5","","","","","","","","49","0,0,0","1","mountain","38","probe-156","0.6645097237208547","0.1951451880103915","0.05982430567689915","0","","","","","","","",""
"","html-keyboard-response","183","772019","0.0-99.0-1.0","""event"",""trial"",""time""
""fullscreenenter"",""0"",""3303""
","
","
","""event"",""trial"",""time""
""fullscreenenter"",""0"",""3303""
","
","null","<p></p>","null","","","","","","","","","","","","","","","","","","","","","","",""
"","do_trial","184","776804","0.0-100.0-0.0","""event"",""trial"",""time""
""fullscreenenter"",""0"",""3303""
","
","
","""event"",""trial"",""time""
""fullscreenenter"",""0"",""3303""
","
","235.9000000357628","","","","","","","","50","1,0,0","1","mountain","39","probe-111","0.6587157502745328","0.21002615567228233","0.13249514086259037","0","","","","","","","",""
"","html-keyboard-response","185","777809","0.0-100.0-1.0","""event"",""trial"",""time""
""fullscreenenter"",""0"",""3303""
","
","
","""event"",""trial"",""time""
""fullscreenenter"",""0"",""3303""
","
","null","<p></p>","null","","","","","","","","","","","","","","","","","","","","","","",""
"","do_trial","186","783020","0.0-101.0-0.0","""event"",""trial"",""time""
""fullscreenenter"",""0"",""3303""
","
","
","""event"",""trial"",""time""
""fullscreenenter"",""0"",""3303""
","
","675.5","","","","","","","","51","1,0,0","1","mountain","40","probe-144","0.5178877921194355","0.21293774483546","0.24882452638216745","0","","","","","","","",""
"","html-keyboard-response","187","784031","0.0-101.0-1.0","""event"",""trial"",""time""
""fullscreenenter"",""0"",""3303""
","
","
","""event"",""trial"",""time""
""fullscreenenter"",""0"",""3303""
","
","null","<p></p>","null","","","","","","","","","","","","","","","","","","","","","","",""
"","do_trial","188","789653","0.0-102.0-0.0","""event"",""trial"",""time""
""fullscreenenter"",""0"",""3303""
","
","
","""event"",""trial"",""time""
""fullscreenenter"",""0"",""3303""
","
","1084.5","","","","","","","","49","0,0,1","1","mountain","41","probe-213","0.4612552132620455","0.0591369752416497","0.26566314716542516","0","","","","","","","",""
"","html-keyboard-response","189","790662","0.0-102.0-1.0","""event"",""trial"",""time""
""fullscreenenter"",""0"",""3303""
","
","
","""event"",""trial"",""time""
""fullscreenenter"",""0"",""3303""
","
","null","<p></p>","null","","","","","","","","","","","","","","","","","","","","","","",""
"","do_trial","190","795760","0.0-103.0-0.0","""event"",""trial"",""time""
""fullscreenenter"",""0"",""3303""
","
","
","""event"",""trial"",""time""
""fullscreenenter"",""0"",""3303""
","
","558.5999999642372","","","","","","","","49","0,0,0","1","mountain","42","probe-155","0.2820761906227391","0.11107770950425866","0.303899870099248","0","","","","","","","",""
"","html-keyboard-response","191","796771","0.0-103.0-1.0","""event"",""trial"",""time""
""fullscreenenter"",""0"",""3303""
","
","
","""event"",""trial"",""time""
""fullscreenenter"",""0"",""3303""
","
","null","<p></p>","null","","","","","","","","","","","","","","","","","","","","","","",""
"","do_trial","192","801661","0.0-104.0-0.0","""event"",""trial"",""time""
""fullscreenenter"",""0"",""3303""
","
","
","""event"",""trial"",""time""
""fullscreenenter"",""0"",""3303""
","
","342","","","","","","","","50","0,0,1","1","mountain","43","probe-27","0.17223807195642846","0.1793912758376167","0.5692190788665376","0","","","","","","","",""
"","html-keyboard-response","193","802670","0.0-104.0-1.0","""event"",""trial"",""time""
""fullscreenenter"",""0"",""3303""
","
","
","""event"",""trial"",""time""
""fullscreenenter"",""0"",""3303""
","
","null","<p></p>","null","","","","","","","","","","","","","","","","","","","","","","",""
"","do_trial","194","808104","0.0-105.0-0.0","""event"",""trial"",""time""
""fullscreenenter"",""0"",""3303""
","
","
","""event"",""trial"",""time""
""fullscreenenter"",""0"",""3303""
","
","895.3000000119209","","","","","","","","50","0,0,1","1","mountain","44","probe-50","0.1451722723308844","0.21592916749264868","0.5383821426734283","0","","","","","","","",""
"","html-keyboard-response","195","809114","0.0-105.0-1.0","""event"",""trial"",""time""
""fullscreenenter"",""0"",""3303""
","
","
","""event"",""trial"",""time""
""fullscreenenter"",""0"",""3303""
","
","null","<p></p>","null","","","","","","","","","","","","","","","","","","","","","","",""
"","do_trial","196","814027","0.0-106.0-0.0","""event"",""trial"",""time""
""fullscreenenter"",""0"",""3303""
","
","
","""event"",""trial"",""time""
""fullscreenenter"",""0"",""3303""
","
","378.5999999642372","","","","","","","","51","0,0,1","1","mountain","45","probe-73","0.22504289353524087","0.5375376219151751","0.5930192819126149","1","","","","","","","",""
"","html-keyboard-response","197","815035","0.0-106.0-1.0","""event"",""trial"",""time""
""fullscreenenter"",""0"",""3303""
","
","
","""event"",""trial"",""time""
""fullscreenenter"",""0"",""3303""
","
","null","<p></p>","null","","","","","","","","","","","","","","","","","","","","","","",""
"","do_trial","198","819959","0.0-107.0-0.0","""event"",""trial"",""time""
""fullscreenenter"",""0"",""3303""
","
","
","""event"",""trial"",""time""
""fullscreenenter"",""0"",""3303""
","
","385.89999997615814","","","","","","","","51","0,0,1","1","mountain","46","probe-110","0.05118187233371538","0.3667169759099972","0.6142731652342176","1","","","","","","","",""
"","html-keyboard-response","199","820970","0.0-107.0-1.0","""event"",""trial"",""time""
""fullscreenenter"",""0"",""3303""
","
","
","""event"",""trial"",""time""
""fullscreenenter"",""0"",""3303""
","
","null","<p></p>","null","","","","","","","","","","","","","","","","","","","","","","",""
"","do_trial","200","827924","0.0-108.0-0.0","""event"",""trial"",""time""
""fullscreenenter"",""0"",""3303""
","
","
","""event"",""trial"",""time""
""fullscreenenter"",""0"",""3303""
","
","2408","","","","","","","","51","1,1,0","1","mountain","47","probe-68","0.22687702598994533","0.4899518137785445","0.5558412704194644","0","","","","","","","",""
"","html-keyboard-response","201","828930","0.0-108.0-1.0","""event"",""trial"",""time""
""fullscreenenter"",""0"",""3303""
","
","
","""event"",""trial"",""time""
""fullscreenenter"",""0"",""3303""
","
","null","<p></p>","null","","","","","","","","","","","","","","","","","","","","","","",""
"","do_trial","202","833730","0.0-109.0-0.0","""event"",""trial"",""time""
""fullscreenenter"",""0"",""3303""
","
","
","""event"",""trial"",""time""
""fullscreenenter"",""0"",""3303""
","
","267.19999998807907","","","","","","","","51","0,0,0","1","mountain","48","probe-138","0.1873856145063003","0.49464519603647433","0.5362464344157093","0","","","","","","","",""
"","html-keyboard-response","203","834738","0.0-109.0-1.0","""event"",""trial"",""time""
""fullscreenenter"",""0"",""3303""
","
","
","""event"",""trial"",""time""
""fullscreenenter"",""0"",""3303""
","
","null","<p></p>","null","","","","","","","","","","","","","","","","","","","","","","",""
"","do_trial","204","840015","0.0-110.0-0.0","""event"",""trial"",""time""
""fullscreenenter"",""0"",""3303""
","
","
","""event"",""trial"",""time""
""fullscreenenter"",""0"",""3303""
","
","736.6999999880791","","","","","","","","49","0,0,1","1","mountain","49","probe-46","0.25909333222081476","0.4086698803292304","0.678012063653746","0","","","","","","","",""
"","html-keyboard-response","205","841026","0.0-110.0-1.0","""event"",""trial"",""time""
""fullscreenenter"",""0"",""3303""
","
","
","""event"",""trial"",""time""
""fullscreenenter"",""0"",""3303""
","
","null","<p></p>","null","","","","","","","","","","","","","","","","","","","","","","",""
"","do_trial","206","845768","0.0-111.0-0.0","""event"",""trial"",""time""
""fullscreenenter"",""0"",""3303""
","
","
","""event"",""trial"",""time""
""fullscreenenter"",""0"",""3303""
","
","209.39999997615814","","","","","","","","49","0,1,1","1","mountain","50","probe-164","0.3110015801078697","0.44542664342635085","0.6991144253254078","0","","","","","","","",""
"","html-keyboard-response","207","846780","0.0-111.0-1.0","""event"",""trial"",""time""
""fullscreenenter"",""0"",""3303""
","
","
","""event"",""trial"",""time""
""fullscreenenter"",""0"",""3303""
","
","null","<p></p>","null","","","","","","","","","","","","","","","","","","","","","","",""
"","do_trial","208","851562","0.0-112.0-0.0","""event"",""trial"",""time""
""fullscreenenter"",""0"",""3303""
","
","
","""event"",""trial"",""time""
""fullscreenenter"",""0"",""3303""
","
","245.4000000357628","","","","","","","","50","0,1,0","1","mountain","51","probe-105","0.18638889328251895","0.3983902507713542","0.6017883832882993","1","","","","","","","",""
"","html-keyboard-response","209","852570","0.0-112.0-1.0","""event"",""trial"",""time""
""fullscreenenter"",""0"",""3303""
","
","
","""event"",""trial"",""time""
""fullscreenenter"",""0"",""3303""
","
","null","<p></p>","null","","","","","","","","","","","","","","","","","","","","","","",""
"","do_trial","210","857503","0.0-113.0-0.0","""event"",""trial"",""time""
""fullscreenenter"",""0"",""3303""
","
","
","""event"",""trial"",""time""
""fullscreenenter"",""0"",""3303""
","
","396.30000001192093","","","","","","","","50","0,0,1","1","mountain","52","probe-20","0.2647039640947036","0.39866250365076483","0.7157437944318049","0","","","","","","","",""
"","html-keyboard-response","211","858520","0.0-113.0-1.0","""event"",""trial"",""time""
""fullscreenenter"",""0"",""3303""
","
","
","""event"",""trial"",""time""
""fullscreenenter"",""0"",""3303""
","
","null","<p></p>","null","","","","","","","","","","","","","","","","","","","","","","",""
"","do_trial","212","863469","0.0-114.0-0.0","""event"",""trial"",""time""
""fullscreenenter"",""0"",""3303""
","
","
","""event"",""trial"",""time""
""fullscreenenter"",""0"",""3303""
","
","408.5","","","","","","","","50","1,1,0","1","mountain","53","probe-178","0.1798657185076946","0.34500956966163515","0.6745275195650007","1","","","","","","","",""
"","html-keyboard-response","213","864480","0.0-114.0-1.0","""event"",""trial"",""time""
""fullscreenenter"",""0"",""3303""
","
","
","""event"",""trial"",""time""
""fullscreenenter"",""0"",""3303""
","
","null","<p></p>","null","","","","","","","","","","","","","","","","","","","","","","",""
"","do_trial","214","869423","0.0-115.0-0.0","""event"",""trial"",""time""
""fullscreenenter"",""0"",""3303""
","
","
","""event"",""trial"",""time""
""fullscreenenter"",""0"",""3303""
","
","408.19999998807907","","","","","","","","50","0,1,1","1","mountain","54","probe-190","0.23276153205494982","0.2674515071153417","0.6757993121938456","1","","","","","","","",""
"","html-keyboard-response","215","870434","0.0-115.0-1.0","""event"",""trial"",""time""
""fullscreenenter"",""0"",""3303""
","
","
","""event"",""trial"",""time""
""fullscreenenter"",""0"",""3303""
","
","null","<p></p>","null","","","","","","","","","","","","","","","","","","","","","","",""
"","do_trial","216","876623","0.0-116.0-0.0","""event"",""trial"",""time""
""fullscreenenter"",""0"",""3303""
","
","
","""event"",""trial"",""time""
""fullscreenenter"",""0"",""3303""
","
","1650.5","","","","","","","","50","0,0,0","1","mountain","55","probe-04","0.27035006818259616","0.21143293465731375","0.6344262353198417","0","","","","","","","",""
"","html-keyboard-response","217","877637","0.0-116.0-1.0","""event"",""trial"",""time""
""fullscreenenter"",""0"",""3303""
","
","
","""event"",""trial"",""time""
""fullscreenenter"",""0"",""3303""
","
","null","<p></p>","null","","","","","","","","","","","","","","","","","","","","","","",""
"","do_trial","218","883366","0.0-117.0-0.0","""event"",""trial"",""time""
""fullscreenenter"",""0"",""3303""
","
","
","""event"",""trial"",""time""
""fullscreenenter"",""0"",""3303""
","
","1195.6000000238419","","","","","","","","50","0,0,1","1","mountain","56","probe-93","0.29451343873302127","0.23236047161334575","0.6005409235776042","0","","","","","","","",""
"","html-keyboard-response","219","884373","0.0-117.0-1.0","""event"",""trial"",""time""
""fullscreenenter"",""0"",""3303""
","
","
","""event"",""trial"",""time""
""fullscreenenter"",""0"",""3303""
","
","null","<p></p>","null","","","","","","","","","","","","","","","","","","","","","","",""
"","do_trial","220","890010","0.0-118.0-0.0","""event"",""trial"",""time""
""fullscreenenter"",""0"",""3303""
","
","
","""event"",""trial"",""time""
""fullscreenenter"",""0"",""3303""
","
","1100.5","","","","","","","","50","0,0,0","1","mountain","57","probe-13","0.2773344027301703","0.21027526417246387","0.6314600352378849","0","","","","","","","",""
"","html-keyboard-response","221","891021","0.0-118.0-1.0","""event"",""trial"",""time""
""fullscreenenter"",""0"",""3303""
","
","
","""event"",""trial"",""time""
""fullscreenenter"",""0"",""3303""
","
","null","<p></p>","null","","","","","","","","","","","","","","","","","","","","","","",""
"","do_trial","222","895841","0.0-119.0-0.0","""event"",""trial"",""time""
""fullscreenenter"",""0"",""3303""
","
","
","""event"",""trial"",""time""
""fullscreenenter"",""0"",""3303""
","
","288","","","","","","","","51","1,0,1","1","mountain","58","probe-132","0.1709168620691326","0.3138780992555558","0.6689064328840351","1","","","","","","","",""
"","html-keyboard-response","223","896852","0.0-119.0-1.0","""event"",""trial"",""time""
""fullscreenenter"",""0"",""3303""
","
","
","""event"",""trial"",""time""
""fullscreenenter"",""0"",""3303""
","
","null","<p></p>","null","","","","","","","","","","","","","","","","","","","","","","",""
"","do_trial","224","901842","0.0-120.0-0.0","""event"",""trial"",""time""
""fullscreenenter"",""0"",""3303""
","
","
","""event"",""trial"",""time""
""fullscreenenter"",""0"",""3303""
","
","453.5999999642372","","","","","","","","51","0,0,1","1","mountain","59","probe-170","0.07976137099981118","0.18684184027436665","0.5233435013771123","1","","","","","","","",""
"","html-keyboard-response","225","902851","0.0-120.0-1.0","""event"",""trial"",""time""
""fullscreenenter"",""0"",""3303""
","
","
","""event"",""trial"",""time""
""fullscreenenter"",""0"",""3303""
","
","null","<p></p>","null","","","","","","","","","","","","","","","","","","","","","","",""
"","do_trial","226","907798","0.0-121.0-0.0","""event"",""trial"",""time""
""fullscreenenter"",""0"",""3303""
","
","
","""event"",""trial"",""time""
""fullscreenenter"",""0"",""3303""
","
","415.80000001192093","","","","","","","","51","0,0,1","1","mountain","60","probe-61","0.15612410559358875","0.3153908867698458","0.5837923269905021","1","","","","","","","",""
"","html-keyboard-response","227","908802","0.0-121.0-1.0","""event"",""trial"",""time""
""fullscreenenter"",""0"",""3303""
","
","
","""event"",""trial"",""time""
""fullscreenenter"",""0"",""3303""
","
","null","<p></p>","null","","","","","","","","","","","","","","","","","","","","","","",""
"","do_trial","228","915262","0.0-122.0-0.0","""event"",""trial"",""time""
""fullscreenenter"",""0"",""3303""
","
","
","""event"",""trial"",""time""
""fullscreenenter"",""0"",""3303""
","
","1924.199999988079","","","","","","","","51","0,0,0","1","mountain","61","probe-32","0.1836950334850307","0.31021208328996813","0.4798609309055592","0","","","","","","","",""
"","html-keyboard-response","229","916267","0.0-122.0-1.0","""event"",""trial"",""time""
""fullscreenenter"",""0"",""3303""
","
","
","""event"",""trial"",""time""
""fullscreenenter"",""0"",""3303""
","
","null","<p></p>","null","","","","","","","","","","","","","","","","","","","","","","",""
"","do_trial","230","921969","0.0-123.0-0.0","""event"",""trial"",""time""
""fullscreenenter"",""0"",""3303""
","
","
","""event"",""trial"",""time""
""fullscreenenter"",""0"",""3303""
","
","1157.5","","","","","","","","51","1,0,1","1","mountain","62","probe-89","0.22165571412232538","0.3196710508761929","0.5125467502924738","1","","","","","","","",""
"","html-keyboard-response","231","922976","0.0-123.0-1.0","""event"",""trial"",""time""
""fullscreenenter"",""0"",""3303""
","
","
","""event"",""trial"",""time""
""fullscreenenter"",""0"",""3303""
","
","null","<p></p>","null","","","","","","","","","","","","","","","","","","","","","","",""
"","do_trial","232","927568","0.0-124.0-0.0","""event"",""trial"",""time""
""fullscreenenter"",""0"",""3303""
","
","
","""event"",""trial"",""time""
""fullscreenenter"",""0"",""3303""
","
","56.80000001192093","","","","","","","","51","0,0,0","1","mountain","63","probe-192","0.21320827104143258","0.30247603818482416","0.5057358953993173","0","","","","","","","",""
"","html-keyboard-response","233","928581","0.0-124.0-1.0","""event"",""trial"",""time""
""fullscreenenter"",""0"",""3303""
","
","
","""event"",""trial"",""time""
""fullscreenenter"",""0"",""3303""
","
","null","<p></p>","null","","","","","","","","","","","","","","","","","","","","","","",""
"","do_trial","234","934200","0.0-125.0-0.0","""event"",""trial"",""time""
""fullscreenenter"",""0"",""3303""
","
","
","""event"",""trial"",""time""
""fullscreenenter"",""0"",""3303""
","
","1075.1000000238419","","","","","","","","51","0,0,0","1","mountain","64","probe-194","0.10259231295767293","0.43807643710750765","0.23104029060085463","0","","","","","","","",""
"","html-keyboard-response","235","935211","0.0-125.0-1.0","""event"",""trial"",""time""
""fullscreenenter"",""0"",""3303""
","
","
","""event"",""trial"",""time""
""fullscreenenter"",""0"",""3303""
","
","null","<p></p>","null","","","","","","","","","","","","","","","","","","","","","","",""
"","do_trial","236","940229","0.0-126.0-0.0","""event"",""trial"",""time""
""fullscreenenter"",""0"",""3303""
","
","
","""event"",""trial"",""time""
""fullscreenenter"",""0"",""3303""
","
","482","","","","","","","","49","0,0,0","1","mountain","65","probe-63","0.25575672684649176","0.3024853933652513","0.20648037522154453","0","","","","","","","",""
"","html-keyboard-response","237","941237","0.0-126.0-1.0","""event"",""trial"",""time""
""fullscreenenter"",""0"",""3303""
","
","
","""event"",""trial"",""time""
""fullscreenenter"",""0"",""3303""
","
","null","<p></p>","null","","","","","","","","","","","","","","","","","","","","","","",""
"","do_trial","238","946070","0.0-127.0-0.0","""event"",""trial"",""time""
""fullscreenenter"",""0"",""3303""
","
","
","""event"",""trial"",""time""
""fullscreenenter"",""0"",""3303""
","
","293.5","","","","","","","","49","1,0,0","1","mountain","66","probe-220","0.19407685889611467","0.24825682134822025","0.40675604904753426","1","","","","","","","",""
"","html-keyboard-response","239","947080","0.0-127.0-1.0","""event"",""trial"",""time""
""fullscreenenter"",""0"",""3303""
","
","
","""event"",""trial"",""time""
""fullscreenenter"",""0"",""3303""
","
","null","<p></p>","null","","","","","","","","","","","","","","","","","","","","","","",""
"","do_trial","240","953414","0.0-128.0-0.0","""event"",""trial"",""time""
""fullscreenenter"",""0"",""3303""
","
","
","""event"",""trial"",""time""
""fullscreenenter"",""0"",""3303""
","
","1801","","","","","","","","49","0,0,1","1","mountain","67","probe-34","0.054033508856275676","0.28616348745549547","0.49450731601814296","0","","","","","","","",""
"","html-keyboard-response","241","954423","0.0-128.0-1.0","""event"",""trial"",""time""
""fullscreenenter"",""0"",""3303""
","
","
","""event"",""trial"",""time""
""fullscreenenter"",""0"",""3303""
","
","null","<p></p>","null","","","","","","","","","","","","","","","","","","","","","","",""
"","do_trial","242","959231","0.0-129.0-0.0","""event"",""trial"",""time""
""fullscreenenter"",""0"",""3303""
","
","
","""event"",""trial"",""time""
""fullscreenenter"",""0"",""3303""
","
","271.5999999642372","","","","","","","","49","0,0,1","1","mountain","68","probe-205","0.13695320636539612","0.23492060252912642","0.6222469495248059","0","","","","","","","",""
"","html-keyboard-response","243","960238","0.0-129.0-1.0","""event"",""trial"",""time""
""fullscreenenter"",""0"",""3303""
","
","
","""event"",""trial"",""time""
""fullscreenenter"",""0"",""3303""
","
","null","<p></p>","null","","","","","","","","","","","","","","","","","","","","","","",""
"","do_trial","244","964981","0.0-130.0-0.0","""event"",""trial"",""time""
""fullscreenenter"",""0"",""3303""
","
","
","""event"",""trial"",""time""
""fullscreenenter"",""0"",""3303""
","
","197.5","","","","","","","","50","0,1,1","1","mountain","69","probe-53","0.119813106147726","0.33437572600436233","0.46010984559773277","1","","","","","","","",""
"","html-keyboard-response","245","965991","0.0-130.0-1.0","""event"",""trial"",""time""
""fullscreenenter"",""0"",""3303""
","
","
","""event"",""trial"",""time""
""fullscreenenter"",""0"",""3303""
","
","null","<p></p>","null","","","","","","","","","","","","","","","","","","","","","","",""
"","do_bye","246","967501","0.0-131.0-0.0","""event"",""trial"",""time""
""fullscreenenter"",""0"",""3303""
","
","
","""event"",""trial"",""time""
""fullscreenenter"",""0"",""3303""
","
","null","","","","","","","","null","","","","","","","","","","","","","","","","",""
"","break","247","991046","0.0-131.0-1.0","""event"",""trial"",""time""
""fullscreenenter"",""0"",""3303""
","
","
","""event"",""trial"",""time""
""fullscreenenter"",""0"",""3303""
","
","23545.100000023842","<div class='center'><p>Time to take a quick break! You have 2 minutes to rest, but you can move on sooner if you'd like.</p><p> Press the <b>space bar</b> to continue.</p></div>","32","","","","","","","","","","","","","","","","","","","","","","",""
"","do_travel","248","1000058","0.0-132.0-0.0","""event"",""trial"",""time""
""fullscreenenter"",""0"",""3303""
","
","
","""event"",""trial"",""time""
""fullscreenenter"",""0"",""3303""
","
","null","","","","","","","","null","","","","","","","","","","","","","","","","",""
"","do_welcome","249","1004072","0.0-132.0-1.0","""event"",""trial"",""time""
""fullscreenenter"",""0"",""3303""
","
","
","""event"",""trial"",""time""
""fullscreenenter"",""0"",""3303""
","
","null","","","","","","","","null","","","","","","","","","","","","","","","","",""
"","do_trial","250","1010251","0.0-133.0-0.0","""event"",""trial"",""time""
""fullscreenenter"",""0"",""3303""
","
","
","""event"",""trial"",""time""
""fullscreenenter"",""0"",""3303""
","
","1644.300000011921","","","","","","","","49","1,0,1","2","countryside","70","probe-225","0.23929144848895342","0.4923915106644948","1","1","","","","","","","",""
"","html-keyboard-response","251","1011263","0.0-133.0-1.0","""event"",""trial"",""time""
""fullscreenenter"",""0"",""3303""
","
","
","""event"",""trial"",""time""
""fullscreenenter"",""0"",""3303""
","
","null","<p></p>","null","","","","","","","","","","","","","","","","","","","","","","",""
"","do_trial","252","1016290","0.0-134.0-0.0","""event"",""trial"",""time""
""fullscreenenter"",""0"",""3303""
","
","
","""event"",""trial"",""time""
""fullscreenenter"",""0"",""3303""
","
","486.69999998807907","","","","","","","","50","0,0,1","2","countryside","71","probe-143","0.09399492589696216","0.42137933660415255","1","0","","","","","","","",""
"","html-keyboard-response","253","1017295","0.0-134.0-1.0","""event"",""trial"",""time""
""fullscreenenter"",""0"",""3303""
","
","
","""event"",""trial"",""time""
""fullscreenenter"",""0"",""3303""
","
","null","<p></p>","null","","","","","","","","","","","","","","","","","","","","","","",""
"","do_trial","254","1023631","0.0-135.0-0.0","""event"",""trial"",""time""
""fullscreenenter"",""0"",""3303""
","
","
","""event"",""trial"",""time""
""fullscreenenter"",""0"",""3303""
","
","1798.5999999642372","","","","","","","","51","0,1,0","2","countryside","72","probe-01","0.06052377372316896","0.26685664723188324","0.7360156003351238","0","","","","","","","",""
"","html-keyboard-response","255","1024642","0.0-135.0-1.0","""event"",""trial"",""time""
""fullscreenenter"",""0"",""3303""
","
","
","""event"",""trial"",""time""
""fullscreenenter"",""0"",""3303""
","
","null","<p></p>","null","","","","","","","","","","","","","","","","","","","","","","",""
"","do_trial","256","1030298","0.0-136.0-0.0","""event"",""trial"",""time""
""fullscreenenter"",""0"",""3303""
","
","
","""event"",""trial"",""time""
""fullscreenenter"",""0"",""3303""
","
","1113.7000000476837","","","","","","","","49","0,1,0","2","countryside","73","probe-203","0.11838295338022894","0.3282814678561675","0.533401835588772","0","","","","","","","",""
"","html-keyboard-response","257","1031310","0.0-136.0-1.0","""event"",""trial"",""time""
""fullscreenenter"",""0"",""3303""
","
","
","""event"",""trial"",""time""
""fullscreenenter"",""0"",""3303""
","
","null","<p></p>","null","","","","","","","","","","","","","","","","","","","","","","",""
"","do_trial","258","1036171","0.0-137.0-0.0","""event"",""trial"",""time""
""fullscreenenter"",""0"",""3303""
","
","
","""event"",""trial"",""time""
""fullscreenenter"",""0"",""3303""
","
","316.0999999642372","","","","","","","","49","0,0,1","2","countryside","74","probe-38","0.1405185245560231","0.21472192256264833","0.6680678011783562","0","","","","","","","",""
"","html-keyboard-response","259","1037181","0.0-137.0-1.0","""event"",""trial"",""time""
""fullscreenenter"",""0"",""3303""
","
","
","""event"",""trial"",""time""
""fullscreenenter"",""0"",""3303""
","
","null","<p></p>","null","","","","","","","","","","","","","","","","","","","","","","",""
