"success","trial_type","trial_index","time_elapsed","internal_node_id","rt","stimulus","key_press","subject_id","response","choice_outcomes","context_n","context_img_id","trial_n","probe_img_id","pR_red","pR_white","pR_black","outcome","is_valid","image_to_show","probed_trial","probed_context","correct","context_id"
"true","fullscreen","0","7878","0.0-0.0","","","","","","","","","","","","","","","","","","","",""
"","pavlovia","1","7883","0.0-1.0","","","","","","","","","","","","","","","","","","","",""
"","html-keyboard-response","2","32874","0.0-2.0","24990.299999952316","<div class='center'><p>Welcome! This experiment will last ~1 hour. In this experiment, you are the head captain of a pirate ship traveling around the world to different places. You will complete several different tasks during this experiment. Here is an overview of these tasks:</p><br><p>1. Tutorial and quiz</p><p>2. Pick a pirate game in 6 different places</p><p>3. Pick a pirate game and memory game</p><p>4. Final questions and payment</p><br><p>If you complete the entire experiment, you will receive $15 and a possible bonus payment.</p><p><b>[Press the space bar to begin the tutorial]</b></p></div>","32","60fed6044e4842816f1b83da","","","","","","","","","","","","","","","",""
"","html-keyboard-response","3","51323","0.0-3.0","18448.799999952316","<div class='center'><p>You are the head captain of a pirate ship.</p><p> Your pirates rob other ships as they leave the marketplace port.</p> These ships have just sold all their goods at the marketplace, so they have lots and lots of gold on them.</p><p><img src='run_exp/static/images/ship_center.png' height='400'></p><p><b>[Press the space bar to continue]</b></p></div>","32","","","","","","","","","","","","","","","","",""
"","html-keyboard-response","4","68836","0.0-4.0","17510.599999904633","<div class='center'><p>As the head captain, you do not have to rob any ships yourself.</p><p>You get to choose which pirate you want to rob the next ship. </p><p>If they are successful at robbing the ship, then you will get gold coins.</p><p> If they are not successful, then you will get no gold coins.</p><p> The more coins you collect, the more bonus money you will win. So, choose your pirate wisely.</p><p><img src='run_exp/static/images/goal.png' height='400'></p><p><b>[Press the space bar to continue]</b></p><div>","32","","","","","","","","","","","","","","","","",""
"","html-keyboard-response","5","103363","0.0-5.0","34525.299999952316","<div class='center'><p>Even the most skilled pirate will not be able to rob EVERY ship.</p><p> Some ships will have very strong defenses against attacks.</p><p> For example, blue beard, here,  is very good at robbing ships.</p><p> You can press the <b>‘1’</b> button on the keyboard to choose him.</p><p> Try choosing him 10 times to see how often he is successful at robbing ships. </p><p><img src='run_exp/static/images/blue.png' height='500'></p></div>","49","","","","","","","","","","","","","","","","",""
"","html-keyboard-response","6","104875","0.0-6.0","null","<br><br><br><br><p><img src='run_exp/static/images/blue_win.png' height='500'></p>","null","","","","","","","","","","","","","","","","",""
"","html-keyboard-response","7","105803","0.0-7.0","925.8000000715256","<br><br><br><br><p><img src='run_exp/static/images/blue.png' height='500'></p>","49","","","","","","","","","","","","","","","","",""
"","html-keyboard-response","8","107305","0.0-8.0","null","<br><br><br><br><p><img src='run_exp/static/images/blue_win.png' height='500'></p>","null","","","","","","","","","","","","","","","","",""
"","html-keyboard-response","9","108083","0.0-9.0","776.5","<br><br><br><br><p><img src='run_exp/static/images/blue.png' height='500'></p>","49","","","","","","","","","","","","","","","","",""
"","html-keyboard-response","10","109600","0.0-10.0","null","<br><br><br><br><p><img src='run_exp/static/images/blue_win.png' height='500'></p>","null","","","","","","","","","","","","","","","","",""
"","html-keyboard-response","11","109955","0.0-11.0","354","<br><br><br><br><p><img src='run_exp/static/images/blue.png' height='500'></p>","49","","","","","","","","","","","","","","","","",""
"","html-keyboard-response","12","111458","0.0-12.0","null","<br><br><br><br><p><img src='run_exp/static/images/blue_no_win.png' height='500'></p>","null","","","","","","","","","","","","","","","","",""
"","html-keyboard-response","13","111897","0.0-13.0","439","<br><br><br><br><p><img src='run_exp/static/images/blue.png' height='500'></p>","49","","","","","","","","","","","","","","","","",""
"","html-keyboard-response","14","113412","0.0-14.0","null","<br><br><br><br><p><img src='run_exp/static/images/blue_win.png' height='500'></p>","null","","","","","","","","","","","","","","","","",""
"","html-keyboard-response","15","113962","0.0-15.0","549.1999999284744","<br><br><br><br><p><img src='run_exp/static/images/blue.png' height='500'></p>","49","","","","","","","","","","","","","","","","",""
"","html-keyboard-response","16","115471","0.0-16.0","null","<br><br><br><br><p><img src='run_exp/static/images/blue_win.png' height='500'></p>","null","","","","","","","","","","","","","","","","",""
"","html-keyboard-response","17","115769","0.0-17.0","297.59999990463257","<br><br><br><br><p><img src='run_exp/static/images/blue.png' height='500'></p>","49","","","","","","","","","","","","","","","","",""
"","html-keyboard-response","18","117279","0.0-18.0","null","<br><br><br><br><p><img src='run_exp/static/images/blue_win.png' height='500'></p>","null","","","","","","","","","","","","","","","","",""
"","html-keyboard-response","19","117537","0.0-19.0","258.10000002384186","<br><br><br><br><p><img src='run_exp/static/images/blue.png' height='500'></p>","49","","","","","","","","","","","","","","","","",""
"","html-keyboard-response","20","119048","0.0-20.0","null","<br><br><br><br><p><img src='run_exp/static/images/blue_no_win.png' height='500'></p>","null","","","","","","","","","","","","","","","","",""
"","html-keyboard-response","21","119489","0.0-21.0","439.7999999523163","<br><br><br><br><p><img src='run_exp/static/images/blue.png' height='500'></p>","49","","","","","","","","","","","","","","","","",""
"","html-keyboard-response","22","120993","0.0-22.0","null","<br><br><br><br><p><img src='run_exp/static/images/blue_win.png' height='500'></p>","null","","","","","","","","","","","","","","","","",""
"","html-keyboard-response","23","121369","0.0-23.0","375","<br><br><br><br><p><img src='run_exp/static/images/blue.png' height='500'></p>","49","","","","","","","","","","","","","","","","",""
"","html-keyboard-response","24","122885","0.0-24.0","null","<br><br><br><br><p><img src='run_exp/static/images/blue_win.png' height='500'></p>","null","","","","","","","","","","","","","","","","",""
"","html-keyboard-response","25","125178","0.0-25.0","2291.899999976158","<div class='center'><p> See, he was successful at robbing the ships most of the time but not every time. </p><p><b>[Press the space bar to continue]</b></p></div>","32","","","","","","","","","","","","","","","","",""
"","html-keyboard-response","26","163386","0.0-26.0","38206.40000009537","<div class='center'><p>In the game, you will get to choose which of three pirates you want to rob the next ship. <p>Press the <b>‘1’</b> button on your keyboard to pick the pirate with the red beard.</p><p> Press <b>‘2’</b> to pick the pirate with the white beard.</p><p> Press <b>‘3’</b> to pick the pirate with the black beard.</p><p>Try picking a pirate now!</p><p><img src='run_exp/static/images/all_pirates.png' height='500'></p></div>","51","","","","","","","","","","","","","","","","",""
"","html-keyboard-response","27","165642","0.0-27.0-0.0","2253.399999976158","<div class='center'><p>This pirate was successful at robbing the ship!</p><p><img src='run_exp/static/images/black_win.png' height='500'></p><p><b>[Press the space bar to continue]</b></p></div>","32","","","","","","","","","","","","","","","","",""
"","html-keyboard-response","28","166473","0.0-27.0-1.0","830.1999999284744","<div class='center'><p>Now try choosing another</p><p><img src='run_exp/static/images/all_pirates.png' height='500'></p></div>","50","","","","","","","","","","","","","","","","",""
"","html-keyboard-response","29","167449","0.0-28.0-0.0","974.2999999523163","<div class='center'><p>This pirate was not successful at robbing the ship!</p><p><img src='run_exp/static/images/white_no_win.png' height='500'></p><p><b>[Press the space bar to continue]</b></p></div>","32","","","","","","","","","","","","","","","","",""
"","html-keyboard-response","30","170137","0.0-29.0-0.0","2686.899999976158","<div class='center'><p>You’ll stop at these 6 places on your journey.</p><p><img src='run_exp/static/images/all_contexts.png' height='500'></p><p><b>[Press the space bar to continue]</b></p></div>","32","","","","","","","","","","","","","","","","",""
"","html-keyboard-response","31","177447","0.0-29.0-1.0","7318.600000023842","<div class='center'><p>How good a pirate is at robbing ships will depend on the current place.</p><p> Some pirates will have been to the place before, and will have more experience robbing ships there.</p><p>So, they will be more successful at stealing gold and bringing it back to you.</p><p><b>[Press the space bar to continue]</b></p></div>","32","","","","","","","","","","","","","","","","",""
"","html-keyboard-response","32","193744","0.0-29.0-2.0","16296.600000023842","<div class='center'><p>How successful a pirate is at robbing ships can also change in a place.<p> Ships may hear about the pirates coming and will improve their defenses. This may make it more difficult to rob them.</p><p> Ships may also grow lazy and lower their defenses. This may make it easier to rob them.</p><br><p>Things are always changing on the high seas! So, try your best to pay attention!</p><p><img src='run_exp/static/images/contingency.png' height='500'></p><p><b>[Press the space bar to continue]</b></p></div>","32","","","","","","","","","","","","","","","","",""
"","html-keyboard-response","33","245459","0.0-29.0-3.0","51702.89999997616","<div class='center'><p>Once you choose a pirate to rob a ship, you’ll be shown the ship they are robbing.</p><p>The ship will have a picture of the item they sold at the marketplace.</p><p> Try your best to remember the ship and where you saw the ship.</p><p> You’ll have to remember this for later, and remembering this correctly will help you win more bonus money!</p><p>You can remember the ship by remembering the item they sold at the marketplace</p><p>A helpful strategy is to try to come up with a story of the chosen pirate and ship’s item interacting with the scene.</p><p> For example, a ship might have sold travel mugs and you could imagine red beard walking through the city with a travel mug. </p><p>Or imagine an apple falling from a tree into white beard's hands in the forest.</p><p><img src='run_exp/static/images/example_probe.png' height='500'></p><p><b>[Press the space bar to continue]</b></p></div>","32","","","","","","","","","","","","","","","","",""
"","html-keyboard-response","34","251314","0.0-29.0-4.0","5853.899999976158","<div class='center'><p>If you don’t make your choice fast enough, you’ll have to wait a few seconds before you can make another one. </p><p>You can’t win more gold. You just have to sit and wait.</p><p><img src='run_exp/static/images/hurry_up.png' height='500'></p><p><b>[Press the space bar to continue]</b></p></div>","32","","","","","","","","","","","","","","","","",""
"","html-keyboard-response","35","287345","0.0-29.0-5.0","36030","<div class='center'><p>Again, you have two important things to do: </p><b><p> 1. Pick the pirate who you think will be most successful at robbing the next ship.</p></b><b><p> 2. Remember where a pirate robbed a ship.</p> </b><p>Both are important in determining how much bonus money you’ll win.</p><br><p>Let’s try a practice game. The game will start by showing you the pirates. First pick a pirate using the <b> 1, 2, 3 </b> buttons on your keyboard. When you are shown a ship, try to remember the place you’re in by making up a story.</p><p> You only have 3 seconds to pick a pirate, so please make a choice quickly! If you are too slow, you’ll have to wait a bit during the time out.</p><p> Don’t feel rushed, but please do try to make a choice every time.</p><p>How good a pirate is at robbing a ship will change depending on the place they are in and how good the defenses are of the ship.</p> <p>This is just a practice game, so you’re not playing for money. </p><p>You’ll receive a bag which may or may not contain gold coins.</p><p> In the real game, though, you’ll be able to see whether or not you received the gold coins.</p><p> Good luck, remember press <b>'1'</b> to choose red beard, <b>'2'</b> to choose white beard, and <b>'3'</b> to choose black beard</p><p><b>[Press the space bar to begin the practice game]</b></p></div>","32","","","","","","","","","","","","","","","","",""
"","do_trial_prac","36","293915","0.0-29.0-6.0","2043.5","","","","50","","","","","","","","","","","","","","",""
"","do_trial_prac","37","299931","0.0-29.0-7.0","null","","","","null","","","","","","","","","","","","","","",""
"","do_trial_prac","38","305256","0.0-29.0-8.0","799.8999999761581","","","","49","","","","","","","","","","","","","","",""
"","do_trial_prac","39","311187","0.0-29.0-9.0","1420.3999999761581","","","","51","","","","","","","","","","","","","","",""
"","do_trial_prac","40","316645","0.0-29.0-10.0","947.7999999523163","","","","50","","","","","","","","","","","","","","",""
"","html-keyboard-response","41","320489","0.0-29.0-11.0","3842.9000000953674","<div class='center'><p>Great job on the practice game!</p><p> Now, you will be asked you some true or false questions to make sure you really understand the rules of the game.</p><p> Press <b>'1'</b> on the keyboard for true and press <b>'2'</b> for false.</p><p><b>[Press the space bar to begin the quiz]</b></p></div>","32","","","","","","","","","","","","","","","","",""
"","html-keyboard-response","42","329049","0.0-29.0-12.0","8558.399999976158","<div class='center'><p>You win bonus money by making choices as fast as possible.</p><p>Press 1 for true and press  2 for false.</p></div>","49","","","","","","","","","","","","","","","","",""
"","html-keyboard-response","43","331729","0.0-30.0-0.0","2678","<br><br><br><br><p>That’s incorrect! You win bonus money by collecting as many gold coins as possible!</p><p><b>[press the space bar to continue with the quiz]</b></p>","32","","","","","","","","","","","","","","","","",""
"","html-keyboard-response","44","341298","0.0-30.0-1.0","9567.800000071526","<div class='center'><p>You press the <b>‘3’</b> button on the keyboard to choose the red bearded pirate? </p><p>Press 1 for true and press  2 for false.</p></div>","50","","","","","","","","","","","","","","","","",""
"","html-keyboard-response","45","342482","0.0-31.0-0.0","1182.0999999046326","<br><br><br><br><p>That's correct!</p> <p><b>[press the space bar to continue with the quiz]</b></p>","32","","","","","","","","","","","","","","","","",""
"","html-keyboard-response","46","347577","0.0-31.0-1.0","5094.600000023842","<div class='center'><p>A pirate will always be equally successful at robbing ships in each place</p><p>Press 1 for true and press  2 for false.</p></div>","50","","","","","","","","","","","","","","","","",""
"","html-keyboard-response","47","348689","0.0-32.0-0.0","1110.2999999523163","<br><br><br><br><p>That's correct!</p> <p><b>[press the space bar to continue with the quiz]</b></p>","32","","","","","","","","","","","","","","","","",""
"","html-keyboard-response","48","350265","0.0-32.0-1.0","1574.7000000476837","<div class='center'><p>You should remember the place where a pirate robbed a ship.</p><p>Press 1 for true and press  2 for false.</p></div>","49","","","","","","","","","","","","","","","","",""
"","html-keyboard-response","49","351024","0.0-33.0-0.0","757.7999999523163","<br><br><br><br><p>That's correct!</p> <p><b>[press the space bar to continue with the quiz]</b></p>","32","","","","","","","","","","","","","","","","",""
"","html-keyboard-response","50","352890","0.0-34.0-0.0","1864.8999999761581","<br><br><br><br><p>Oops, you missed some questions. Now that you’ve heard the correct answers. Try the quiz again! If you fail the quiz too many times, you won’t be able to do the experiment. </p> <p><br>[press the space bar to repeat the quiz]</br></p>","32","","","","","","","","","","","","","","","","",""
"","html-keyboard-response","51","355168","0.0-34.0-1.0","2277.5","<div class='center'><p>You win bonus money by making choices as fast as possible.</p><p>Press 1 for true and press  2 for false.</p></div>","50","","","","","","","","","","","","","","","","",""
"","html-keyboard-response","52","355978","0.0-35.0-0.0","808.8000000715256","<br><br><br><br><p>That's correct!</p> <p><b>[press the space bar to continue with the quiz]</b></p>","32","","","","","","","","","","","","","","","","",""
"","html-keyboard-response","53","357481","0.0-35.0-1.0","1502.6999999284744","<div class='center'><p>You press the <b>‘3’</b> button on the keyboard to choose the red bearded pirate? </p><p>Press 1 for true and press  2 for false.</p></div>","50","","","","","","","","","","","","","","","","",""
"","html-keyboard-response","54","357936","0.0-36.0-0.0","453.6999999284744","<br><br><br><br><p>That's correct!</p> <p><b>[press the space bar to continue with the quiz]</b></p>","32","","","","","","","","","","","","","","","","",""
"","html-keyboard-response","55","359889","0.0-36.0-1.0","1952.6999999284744","<div class='center'><p>A pirate will always be equally successful at robbing ships in each place</p><p>Press 1 for true and press  2 for false.</p></div>","50","","","","","","","","","","","","","","","","",""
"","html-keyboard-response","56","360432","0.0-37.0-0.0","542","<br><br><br><br><p>That's correct!</p> <p><b>[press the space bar to continue with the quiz]</b></p>","32","","","","","","","","","","","","","","","","",""
"","html-keyboard-response","57","361785","0.0-37.0-1.0","1352.6000000238419","<div class='center'><p>You should remember the place where a pirate robbed a ship.</p><p>Press 1 for true and press  2 for false.</p></div>","49","","","","","","","","","","","","","","","","",""
"","html-keyboard-response","58","362323","0.0-38.0-0.0","528.5","<br><br><br><br><p>That's correct!</p> <p><b>[press the space bar to continue with the quiz]</b></p>","32","","","","","","","","","","","","","","","","",""
"","html-keyboard-response","59","363523","0.0-39.0-0.0","1198.3999999761581","<br><br><br><br><p>Good job! You’re now ready to move on to the real game!</p> <p><br>[press the space bar to begin!]</br></p>","32","","","","","","","","","","","","","","","","",""
"","do_welcome","60","365035","0.0-40.0-0.0","null","","","","null","","","","","","","","","","","","","","",""
"","do_trial","61","371091","0.0-41.0-0.0","null","","","","null","1,0,1","0","city","0","probe-15","1","0.4","0.1","","","","","","",""
"","do_trial","62","377966","0.0-42.0-0.0","1335.3999999761581","","","","50","1,0,0","0","city","1","probe-67","1","0.42082657240477694","0.17633559539081067","0","","","","","",""
"","do_trial","63","384315","0.0-43.0-0.0","804.3999999761581","","","","49","1,1,0","0","city","2","probe-107","1","0.6218922974407868","0.1466421248822605","1","","","","","",""
"","do_trial","64","390756","0.0-44.0-0.0","894.1999999284744","","","","51","1,0,0","0","city","3","probe-223","1","0.6427650065087415","0.09324283338884817","0","","","","","",""
"","do_trial","65","397111","0.0-45.0-0.0","811.7000000476837","","","","49","0,1,0","0","city","4","probe-141","0.8838755859826227","0.584143449998871","0.10139618676958399","0","","","","","",""
"","do_trial","66","403906","0.0-46.0-0.0","1248.1999999284744","","","","49","1,0,0","0","city","5","probe-17","0.8602522252233645","0.6012624627496331","0.07123834672186341","1","","","","","",""
"","do_trial","67","411196","0.0-47.0-0.0","1741.6000000238419","","","","50","1,1,0","0","city","6","probe-211","0.8319507071923115","0.6345753700314309","0.11299434841972271","1","","","","","",""
"","do_trial","68","417244","0.0-48.0-0.0","null","","","","null","1,1,0","0","city","7","probe-01","0.7866658773579539","0.5073342101181597","0.11728098607235816","","","","","","",""
"","do_trial","69","423301","0.0-49.0-0.0","null","","","","null","1,0,0","0","city","8","probe-04","0.7416359638311112","0.5025092437367542","0.19262561322196597","","","","","","",""
"","do_trial","70","431651","0.0-50.0-0.0","2811.7999999523163","","","","49","1,1,0","0","city","9","probe-126","0.6874498197457354","0.6007679254714261","0.08325979277202648","1","","","","","",""
"","do_trial","71","437905","0.0-51.0-0.0","710","","","","49","0,1,0","0","city","10","probe-89","0.47954586748874223","0.5601126701294061","0.06932863565144537","0","","","","","",""
"","do_trial","72","444051","0.0-52.0-0.0","598.6999999284744","","","","51","1,1,0","0","city","11","probe-219","0.5562247920532326","0.6579215874464922","0.11843132412616564","0","","","","","",""
"","do_trial","73","450136","0.0-53.0-0.0","540.6000000238419","","","","50","1,0,0","0","city","12","probe-44","0.6011700188454051","0.7424978759736673","0.10702465390525617","0","","","","","",""
"","do_trial","74","456159","0.0-54.0-0.0","489.09999990463257","","","","49","1,0,0","0","city","13","probe-238","0.6423717977187273","0.7202056516717593","0.1629300199886718","1","","","","","",""
"","do_trial","75","462119","0.0-55.0-0.0","417.2000000476837","","","","49","1,1,0","0","city","14","probe-105","0.6303488262164882","0.8682793758546098","0.11053969395147525","1","","","","","",""
"","do_trial","76","468186","0.0-56.0-0.0","522.0999999046326","","","","49","1,1,0","0","city","15","probe-139","0.6350996390680461","0.8770597284244243","0.1308478893402219","1","","","","","",""
"","do_trial","77","474679","0.0-57.0-0.0","950.1000000238419","","","","49","1,1,0","0","city","16","probe-34","0.5470616594088934","0.8733353082734672","0.0767884804621293","1","","","","","",""
"","do_trial","78","481000","0.0-58.0-0.0","785","","","","49","1,1,1","0","city","17","probe-104","0.39766107075396423","0.8487793871748328","0.11883646885483135","1","","","","","",""
"","do_trial","79","487123","0.0-59.0-0.0","576.7000000476837","","","","49","1,0,0","0","city","18","probe-39","0.4642247787423456","0.8518183289074165","0.17541908298120784","1","","","","","",""
"","do_trial","80","493432","0.0-60.0-0.0","765.2999999523163","","","","49","0,1,0","0","city","19","probe-171","0.4718820735959421","0.8888168954068099","0.2247013210105175","0","","","","","",""
"","do_trial","81","499403","0.0-61.0-0.0","433.60000002384186","","","","49","0,1,1","0","city","20","probe-160","0.3535693357078899","0.9492604769469898","0.19884363012646286","0","","","","","",""
"","do_trial","82","506114","0.0-62.0-0.0","1171.7999999523163","","","","49","0,1,0","0","city","21","probe-151","0.2504500691572888","0.8890775480010276","0.07839481088765687","0","","","","","",""
"","do_trial","83","512155","0.0-63.0-0.0","495","","","","49","1,1,0","0","city","22","probe-170","0.4680120986045755","0.876510724878545","0.2641675785772169","1","","","","","",""
"","do_trial","84","518360","0.0-64.0-0.0","662.1000000238419","","","","49","0,1,0","0","city","23","probe-114","0.5068608396779337","0.8169529036982506","0.23946279018796163","0","","","","","",""
"","do_trial","85","524403","0.0-65.0-0.0","494.1999999284744","","","","51","0,1,0","0","city","24","probe-47","0.3460136121044934","0.8805752129861858","0.2908405337059901","0","","","","","",""
"","do_trial","86","530318","0.0-66.0-0.0","378.10000002384186","","","","49","0,1,0","0","city","25","probe-70","0.4132793952681753","0.7859291830554114","0.33235194885528324","0","","","","","",""
"","do_trial","87","537785","0.0-67.0-0.0","1930.3000000715256","","","","49","1,0,0","0","city","26","probe-41","0.45328203474105017","0.7376731673269913","0.15355125435003314","1","","","","","",""
"","do_trial","88","544479","0.0-68.0-0.0","1161","","","","49","1,1,0","0","city","27","probe-226","0.45121687839988056","0.8463261493462026","0.10401946406149301","1","","","","","",""
"","do_trial","89","550465","0.0-69.0-0.0","446.89999997615814","","","","49","0,0,0","0","city","28","probe-195","0.3892049490850618","0.9228217359428637","0.054935283033050925","0","","","","","",""
"","do_trial","90","556803","0.0-70.0-0.0","797","","","","49","0,0,0","0","city","29","probe-118","0.4370434353899821","0.9090700474558063","0.07310577216035342","0","","","","","",""
"","do_trial","91","562694","0.0-71.0-0.0","348","","","","49","0,1,1","0","city","30","probe-66","0.32428304940676866","0.8473738969711672","0.1428639229553592","0","","","","","",""
"","do_trial","92","568649","0.0-72.0-0.0","419.7999999523163","","","","49","0,1,0","0","city","31","probe-29","0.3323847988983017","0.8779759499225231","0.07284015814692009","0","","","","","",""
"","do_trial","93","574795","0.0-73.0-0.0","607.1999999284744","","","","49","1,0,0","0","city","32","probe-101","0.41639167869830496","0.8746648824015896","0.13561755937539263","1","","","","","",""
"","do_trial","94","580916","0.0-74.0-0.0","572","","","","49","0,1,0","0","city","33","probe-167","0.38606907255698547","0.948232388623759","0.08627885497050689","0","","","","","",""
"","do_trial","95","586942","0.0-75.0-0.0","496","","","","49","1,1,0","0","city","34","probe-97","0.3028279898781222","0.9087349124641173","0.08641418168062946","1","","","","","",""
"","do_trial","96","593106","0.0-76.0-0.0","628","","","","49","0,1,0","0","city","35","probe-166","0.2713370572183609","0.9305233854328838","0.06264116763904241","0","","","","","",""
"","do_trial","97","599165","0.0-77.0-0.0","517.2999999523163","","","","49","1,1,0","0","city","36","probe-221","0.2319117328465227","0.723278121498542","0.12074037163854662","1","","","","","",""
"","do_trial","98","605471","0.0-78.0-0.0","768.1999999284744","","","","49","0,0,0","0","city","37","probe-236","0.33846942668668983","0.5948832560465898","0.2772411798200886","0","","","","","",""
"","do_trial","99","612630","0.0-79.0-0.0","1616.8999999761581","","","","49","0,1,0","0","city","38","probe-08","0.4599924104061974","0.6467343081609164","0.16828110349805753","0","","","","","",""
"","do_trial","100","618933","0.0-80.0-0.0","761.6000000238419","","","","50","0,1,1","0","city","39","probe-91","0.426508723510237","0.7094626503404199","0.23199717958699914","1","","","","","",""
"","do_bye","101","620448","0.0-81.0-0.0","null","","","","null","","","","","","","","","","","","","","",""
"","do_travel","102","626459","0.0-82.0-0.0","null","","","","null","","","","","","","","","","","","","","",""
"","do_welcome","103","627971","0.0-82.0-1.0","null","","","","null","","","","","","","","","","","","","","",""
"","do_trial","104","635013","0.0-83.0-0.0","1498.7000000476837","","","","50","0,1,0","1","coast","40","probe-125","0.283866953552915","1","0.24112006927574967","1","","","","","",""
"","do_trial","105","641068","0.0-84.0-0.0","514","","","","50","0,1,0","1","coast","41","probe-181","0.19237528719264624","1","0.11146682900138963","1","","","","","",""
"","do_trial","106","647283","0.0-85.0-0.0","658.7000000476837","","","","50","0,1,0","1","coast","42","probe-31","0.27439421404027725","1","0.06317801706930555","1","","","","","",""
"","do_trial","107","654188","0.0-86.0-0.0","1363.7000000476837","","","","50","0,1,0","1","coast","43","probe-136","0.32105778621212866","1","0.0691906308876342","1","","","","","",""
"","do_trial","108","660232","0.0-87.0-0.0","493.39999997615814","","","","50","1,1,0","1","coast","44","probe-50","0.4588906883752209","0.8751661452934516","0.057334316479803776","1","","","","","",""
"","do_trial","109","666387","0.0-88.0-0.0","609.8000000715256","","","","50","0,1,0","1","coast","45","probe-35","0.49610451134743444","0.7342914937557933","0.1476915145409906","1","","","","","",""
"","do_trial","110","672426","0.0-89.0-0.0","500.7000000476837","","","","50","1,0,0","1","coast","46","probe-116","0.5955899797905831","0.7763144557090218","0.18048346434791565","0","","","","","",""
"","do_trial","111","678734","0.0-90.0-0.0","753.5","","","","50","0,1,0","1","coast","47","probe-73","0.432915143028894","0.7031071215664231","0.09822631534849645","1","","","","","",""
"","do_trial","112","684719","0.0-91.0-0.0","441.7999999523163","","","","50","1,1,1","1","coast","48","probe-96","0.464483138028268","0.68404919617398","0.16102247099412495","1","","","","","",""
"","do_trial","113","691083","0.0-92.0-0.0","815.6000000238419","","","","50","0,1,0","1","coast","49","probe-148","0.30083971637163465","0.8256337776394627","0.11006339410439216","1","","","","","",""
"","do_trial","114","697377","0.0-93.0-0.0","745.6999999284744","","","","50","0,1,0","1","coast","50","probe-172","0.11707772341117266","0.6250573829129537","0.415549748426498","1","","","","","",""
"","do_trial","115","703464","0.0-94.0-0.0","542.7000000476837","","","","50","0,1,0","1","coast","51","probe-122","0.1624494536894644","0.45824533790295824","0.6231106817283933","1","","","","","",""
"","do_trial","116","709526","0.0-95.0-0.0","522.3000000715256","","","","50","0,0,0","1","coast","52","probe-84","0.08858681237680639","0.5784852907168097","0.6751317243326825","0","","","","","",""
"","do_trial","117","715510","0.0-96.0-0.0","439.39999997615814","","","","50","0,0,1","1","coast","53","probe-117","0.12256990814467779","0.7108671488013285","0.7096916878116138","0","","","","","",""
"","do_trial","118","721333","0.0-97.0-0.0","289.2000000476837","","","","50","0,1,1","1","coast","54","probe-157","0.12686192514442501","0.5925147992824692","0.7644155229957609","1","","","","","",""
"","do_trial","119","727312","0.0-98.0-0.0","441.5","","","","50","0,0,0","1","coast","55","probe-42","0.1295543999755932","0.5160525328593997","0.7643958844055687","0","","","","","",""
"","do_trial","120","733263","0.0-99.0-0.0","404.39999997615814","","","","50","1,1,0","1","coast","56","probe-216","0.12451606176916107","0.3446055633219227","0.6761609919724926","1","","","","","",""
"","do_trial","121","739302","0.0-100.0-0.0","493.89999997615814","","","","50","0,0,1","1","coast","57","probe-237","0.12864713187836627","0.4072499684450019","0.8274411211545727","0","","","","","",""
"","do_trial","122","745367","0.0-101.0-0.0","517.5","","","","50","0,0,1","1","coast","58","probe-158","0.05783246544036365","0.44028685418649915","0.839141104846659","0","","","","","",""
"","do_trial","123","751274","0.0-102.0-0.0","357.7999999523163","","","","49","0,0,1","1","coast","59","probe-78","0.11537128295519924","0.3614377965516611","0.7502455841703614","0","","","","","",""
"","do_trial","124","757211","0.0-103.0-0.0","392.8000000715256","","","","51","0,1,0","1","coast","60","probe-65","0.0720642737567973","0.36600908685971467","0.6923444143660494","0","","","","","",""
"","do_trial","125","763018","0.0-104.0-0.0","271.39999997615814","","","","50","0,0,1","1","coast","61","probe-159","0.2546809020988404","0.28120643556228586","0.7233052902367111","0","","","","","",""
"","do_trial","126","768913","0.0-105.0-0.0","354.40000009536743","","","","50","0,1,1","1","coast","62","probe-147","0.21680013202802495","0.4038140513559011","0.7829573724894037","1","","","","","",""
"","do_trial","127","775223","0.0-106.0-0.0","769.3000000715256","","","","50","1,0,1","1","coast","63","probe-197","0.24527789294607466","0.3417763932597082","0.6422585186141052","0","","","","","",""
"","do_trial","128","781131","0.0-107.0-0.0","354.2000000476837","","","","50","0,1,1","1","coast","64","probe-71","0.15149193372678116","0.4265359893146967","0.5746598586936194","1","","","","","",""
"","do_trial","129","787255","0.0-108.0-0.0","583.8999999761581","","","","50","0,0,1","1","coast","65","probe-64","0.1462061432431762","0.4207552224300896","0.7305807973338277","0","","","","","",""
"","do_trial","130","793321","0.0-109.0-0.0","524.7000000476837","","","","50","0,1,1","1","coast","66","probe-140","0.1286593517768309","0.3416962166782389","0.7682843739183564","1","","","","","",""
"","do_trial","131","799346","0.0-110.0-0.0","475","","","","50","0,0,0","1","coast","67","probe-199","0.2202574149567311","0.2453067262976805","0.6938230446819437","0","","","","","",""
"","do_trial","132","806350","0.0-111.0-0.0","1452","","","","50","0,0,0","1","coast","68","probe-198","0.2455740660061122","0.36199040323332304","0.6159099919393922","0","","","","","",""
"","do_trial","133","812395","0.0-112.0-0.0","493.7999999523163","","","","50","0,1,1","1","coast","69","probe-26","0.07991953113930468","0.3187782599608311","0.6205262253365791","1","","","","","",""
"","do_trial","134","818314","0.0-113.0-0.0","361.60000002384186","","","","50","0,0,1","1","coast","70","probe-58","0.10599139890469231","0.32900943807364613","0.667649052607609","0","","","","","",""
"","do_trial","135","824222","0.0-114.0-0.0","354.60000002384186","","","","50","0,0,0","1","coast","71","probe-109","0.10752340638874204","0.42641738456100897","0.6562508547405242","0","","","","","",""
"","do_trial","136","830001","0.0-115.0-0.0","237.5","","","","50","0,0,0","1","coast","72","probe-38","0.12381365098957851","0.42234972845957536","0.7786023485159386","0","","","","","",""
"","do_trial","137","835923","0.0-116.0-0.0","384.8000000715256","","","","50","0,0,0","1","coast","73","probe-193","0.06176354691622365","0.496232770703915","0.67640010616726","0","","","","","",""
"","do_trial","138","842077","0.0-117.0-0.0","619.1999999284744","","","","50","0,1,1","1","coast","74","probe-13","0.06505655524075722","0.5780433940914769","0.7430410148137457","1","","","","","",""
"","do_trial","139","848123","0.0-118.0-0.0","null","","","","null","0,0,1","1","coast","75","probe-182","0.06613309435040972","0.42340428511834005","0.8386036799103103","","","","","","",""
"","do_trial","140","854158","0.0-119.0-0.0","494.2999999523163","","","","50","1,0,1","1","coast","76","probe-204","0.10010537948674371","0.41400603935482344","0.8226420019743111","0","","","","","",""
"","do_trial","141","860182","0.0-120.0-0.0","479.2000000476837","","","","50","0,1,1","1","coast","77","probe-20","0.05900301562839385","0.5299122720458302","0.7502937372462323","1","","","","","",""
"","do_trial","142","866193","0.0-121.0-0.0","460.5","","","","50","0,1,1","1","coast","78","probe-18","0.0844531693930717","0.45477282357038945","0.8379017295977357","1","","","","","",""
"","do_trial","143","872255","0.0-122.0-0.0","513.8000000715256","","","","50","0,1,0","1","coast","79","probe-95","0.06584697204106979","0.4383160876016444","0.9199289684121104","1","","","","","",""
"","do_bye","144","873776","0.0-123.0-0.0","null","","","","null","","","","","","","","","","","","","","",""
"","do_travel","145","879782","0.0-124.0-0.0","null","","","","null","","","","","","","","","","","","","","",""
"","do_welcome","146","881288","0.0-124.0-1.0","null","","","","null","","","","","","","","","","","","","","",""
"","do_trial","147","889203","0.0-125.0-0.0","2371.100000023842","","","","49","1,0,1","2","countryside","80","probe-62","0.15836371564308507","0.39477663697588233","1","1","","","","","",""
"","do_trial","148","895495","0.0-126.0-0.0","751.5999999046326","","","","49","0,1,1","2","countryside","81","probe-36","0.15407173346567044","0.43605421642217695","1","0","","","","","",""
"","do_trial","149","901650","0.0-127.0-0.0","586.3999999761581","","","","49","0,1,1","2","countryside","82","probe-52","0.09978750938925095","0.3963116104608686","1","0","","","","","",""
"","do_trial","150","907689","0.0-128.0-0.0","496.10000002384186","","","","49","0,1,1","2","countryside","83","probe-14","0.11892994691582769","0.46367077120637007","1","0","","","","","",""
"","do_trial","151","914543","0.0-129.0-0.0","1313.4000000953674","","","","49","0,0,1","2","countryside","84","probe-208","0.1957535669515269","0.4679834126670923","0.9091239303041259","0","","","","","",""
"","do_trial","152","921301","0.0-130.0-0.0","1220.7000000476837","","","","49","0,0,1","2","countryside","85","probe-143","0.0560439950335733","0.3766151155730031","0.9494709399060893","0","","","","","",""
"","do_trial","153","927077","0.0-131.0-0.0","216.40000009536743","","","","51","0,0,1","2","countryside","86","probe-218","0.06338528010070314","0.3552284890797418","0.8714901822919686","1","","","","","",""
"","do_trial","154","933232","0.0-132.0-0.0","608.8000000715256","","","","51","0,1,1","2","countryside","87","probe-23","0.15850766387812684","0.38923365148504985","0.792838536016711","1","","","","","",""
"","do_trial","155","941132","0.0-133.0-0.0","2350.1999999284744","","","","51","0,1,1","2","countryside","88","probe-83","0.22946690147459387","0.39452996493341","0.8550105662315588","1","","","","","",""
"","do_trial","156","947488","0.0-134.0-0.0","816.5","","","","51","0,1,1","2","countryside","89","probe-54","0.1443934544314896","0.5115681747122608","0.7418167264454075","1","","","","","",""
"","do_trial","157","953410","0.0-135.0-0.0","377.5","","","","51","1,1,1","2","countryside","90","probe-115","0.4438614603305131","0.5378812373660193","0.39494700840047503","1","","","","","",""
"","do_trial","158","959566","0.0-136.0-0.0","617.8000000715256","","","","51","1,1,1","2","countryside","91","probe-191","0.47517826018924747","0.4586130542150474","0.35554820989863223","1","","","","","",""
"","do_trial","159","965853","0.0-137.0-0.0","735.3999999761581","","","","51","0,1,1","2","countryside","92","probe-49","0.5827502338384963","0.5256876597312261","0.13495846544202703","1","","","","","",""
"","do_trial","160","972756","0.0-138.0-0.0","1360.7999999523163","","","","51","0,0,0","2","countryside","93","probe-225","0.595128427944294","0.4055265957847605","0.1273993370684636","0","","","","","",""
"","do_trial","161","978840","0.0-139.0-0.0","543.1000000238419","","","","51","0,1,0","2","countryside","94","probe-188","0.6742031509381643","0.4459846986888952","0.1180404000036324","0","","","","","",""
"","do_trial","162","984901","0.0-140.0-0.0","506.7999999523163","","","","51","1,0,0","2","countryside","95","probe-28","0.673099516950755","0.38615019939787276","0.13795659082105552","0","","","","","",""
"","do_trial","163","990940","0.0-141.0-0.0","504.60000002384186","","","","51","1,0,0","2","countryside","96","probe-207","0.6971993670506228","0.2668297255528012","0.09259070571448114","0","","","","","",""
"","do_trial","164","996993","0.0-142.0-0.0","null","","","","null","1,0,0","2","countryside","97","probe-77","0.8112845430393333","0.254282057008531","0.07560806567407777","","","","","","",""
"","do_trial","165","1003017","0.0-143.0-0.0","477","","","","51","1,0,0","2","countryside","98","probe-220","0.7523974710044904","0.3235519018922134","0.15882785658910467","0","","","","","",""
"","do_trial","166","1008894","0.0-144.0-0.0","322.1999999284744","","","","51","1,0,0","2","countryside","99","probe-210","0.7290483125784502","0.37132356919475584","0.10267515279669404","0","","","","","",""
"","do_trial","167","1015048","0.0-145.0-0.0","613.6000000238419","","","","51","1,0,0","2","countryside","100","probe-222","0.9163256327797025","0.3622190173349874","0.1717568716753363","0","","","","","",""
"","do_trial","168","1021101","0.0-146.0-0.0","505.40000009536743","","","","51","1,0,0","2","countryside","101","probe-202","0.9352520117336003","0.3460836187490222","0.08582602789657769","0","","","","","",""
"","do_trial","169","1027163","0.0-147.0-0.0","520.2000000476837","","","","51","1,0,0","2","countryside","102","probe-19","0.8659162257154916","0.4808941856942393","0.06631323114007702","0","","","","","",""
"","do_trial","170","1033343","0.0-148.0-0.0","632.5","","","","51","0,0,0","2","countryside","103","probe-43","0.8957158417283373","0.5056248622268402","0.051328866493120934","0","","","","","",""
"","do_trial","171","1039412","0.0-149.0-0.0","532","","","","51","1,0,0","2","countryside","104","probe-72","0.8619691008243359","0.48260633972238537","0.09410375916714944","0","","","","","",""
"","do_trial","172","1045552","0.0-150.0-0.0","592.8999999761581","","","","51","1,1,0","2","countryside","105","probe-27","0.8697294868948454","0.5220339030580171","0.05795339602105205","0","","","","","",""
"","do_trial","173","1051708","0.0-151.0-0.0","610.1000000238419","","","","51","1,0,0","2","countryside","106","probe-134","0.8093171687978412","0.39629165118192095","0.09078692393832004","0","","","","","",""
"","do_trial","174","1057827","0.0-152.0-0.0","575.6000000238419","","","","51","0,0,0","2","countryside","107","probe-201","0.6789938331211132","0.5032819807988586","0.07480123446276717","0","","","","","",""
"","do_trial","175","1063938","0.0-153.0-0.0","562.8999999761581","","","","51","1,0,0","2","countryside","108","probe-53","0.7400481280700534","0.44846277724966166","0.16698584493002477","0","","","","","",""
"","do_trial","176","1070395","0.0-154.0-0.0","922.7999999523163","","","","51","1,0,0","2","countryside","109","probe-94","0.8330462450879561","0.331851604752747","0.06396075731674392","0","","","","","",""
"","do_trial","177","1076657","0.0-155.0-0.0","722.7999999523163","","","","51","0,0,0","2","countryside","110","probe-16","0.7616026986620438","0.31436944709624093","0.16219804058819492","0","","","","","",""
"","do_trial","178","1082668","0.0-156.0-0.0","478","","","","51","0,1,0","2","countryside","111","probe-79","0.7338572256236968","0.20763005151205305","0.31085540524878574","0","","","","","",""
"","do_trial","179","1088816","0.0-157.0-0.0","608.7999999523163","","","","51","1,0,1","2","countryside","112","probe-169","0.8766175960130036","0.21066458191992837","0.10661693851451023","1","","","","","",""
"","do_trial","180","1094837","0.0-158.0-0.0","488.6999999284744","","","","51","0,0,0","2","countryside","113","probe-75","0.6956169257032826","0.17652011976341725","0.05637417681941903","0","","","","","",""
"","do_trial","181","1101012","0.0-159.0-0.0","640.5","","","","51","1,0,0","2","countryside","114","probe-123","0.7105132449904433","0.15401594460949006","0.20942540994909067","0","","","","","",""
"","do_trial","182","1107551","0.0-160.0-0.0","1000.3000000715256","","","","51","1,0,0","2","countryside","115","probe-196","0.8425612426177429","0.2827951293394474","0.23672418080142532","0","","","","","",""
"","do_trial","183","1113538","0.0-161.0-0.0","442.5","","","","51","0,0,1","2","countryside","116","probe-48","0.8439416072912413","0.47113940364350876","0.30146102013637127","1","","","","","",""
"","do_trial","184","1120062","0.0-162.0-0.0","983.6000000238419","","","","51","0,0,0","2","countryside","117","probe-112","0.7424441494443775","0.4308959261403112","0.323241612248912","0","","","","","",""
"","do_trial","185","1126038","0.0-163.0-0.0","429.89999997615814","","","","51","1,0,1","2","countryside","118","probe-192","0.837328461128415","0.5558778256243219","0.24085863784610603","1","","","","","",""
"","do_trial","186","1132045","0.0-164.0-0.0","460.10000002384186","","","","51","0,0,0","2","countryside","119","probe-90","0.9143696848375633","0.6289335136688032","0.12470197000320866","0","","","","","",""
"","do_bye","187","1133557","0.0-165.0-0.0","null","","","","null","","","","","","","","","","","","","","",""
"","do_travel","188","1139573","0.0-166.0-0.0","null","","","","null","","","","","","","","","","","","","","",""
"","do_welcome","189","1141085","0.0-166.0-1.0","null","","","","null","","","","","","","","","","","","","","",""
"","do_trial","190","1147458","0.0-167.0-0.0","830.5","","","","51","1,1,0","3","mountain","120","probe-88","1","0.5825644180026042","0.12305765782414177","0","","","","","",""
"","do_trial","191","1153449","0.0-168.0-0.0","444.40000009536743","","","","50","1,1,0","3","mountain","121","probe-80","1","0.5747733531184194","0.13247267995543519","1","","","","","",""
"","do_trial","192","1159557","0.0-169.0-0.0","553.5","","","","50","1,0,0","3","mountain","122","probe-85","1","0.587868514474889","0.1812199294767335","0","","","","","",""
"","do_trial","193","1165596","0.0-170.0-0.0","504.1999999284744","","","","49","1,0,0","3","mountain","123","probe-163","1","0.5184953612765276","0.13291731690976166","1","","","","","",""
"","do_trial","194","1171635","0.0-171.0-0.0","496","","","","50","1,1,0","3","mountain","124","probe-51","0.9443383688926934","0.3784971674807357","0.13498284188449006","1","","","","","",""
"","do_trial","195","1177679","0.0-172.0-0.0","null","","","","null","1,1,0","3","mountain","125","probe-108","0.7201712843578284","0.4266021533982859","0.1965896632577669","","","","","","",""
"","do_trial","196","1183673","0.0-173.0-0.0","446.3000000715256","","","","49","0,1,0","3","mountain","126","probe-127","0.7122332488356413","0.5165811291685577","0.19937300634133595","0","","","","","",""
"","do_trial","197","1189797","0.0-174.0-0.0","586.2999999523163","","","","49","1,1,1","3","mountain","127","probe-86","0.7233346770848125","0.3942873317503702","0.12203648050502439","1","","","","","",""
"","do_trial","198","1196605","0.0-175.0-0.0","1271.1000000238419","","","","49","0,0,0","3","mountain","128","probe-183","0.6793829438886191","0.30196077641849767","0.1350173413786226","0","","","","","",""
"","do_trial","199","1202159","0.0-176.0-0.0","0","","","","49","1,0,0","3","mountain","129","probe-93","0.737042410290589","0.23383945291534214","0.11339501095099656","1","","","","","",""
"","do_trial","200","1208299","0.0-177.0-0.0","596.4000000953674","","","","49","0,0,0","3","mountain","130","probe-57","0.42302586669515885","0.2772461583962047","0.44994457168739066","0","","","","","",""
"","do_trial","201","1214190","0.0-178.0-0.0","351.60000002384186","","","","49","0,1,0","3","mountain","131","probe-184","0.2103785514429597","0.3257106817153044","0.6392314470247005","0","","","","","",""
"","do_trial","202","1220231","0.0-179.0-0.0","494.39999997615814","","","","51","0,0,0","3","mountain","132","probe-111","0.1904175620387697","0.29959514759192085","0.7309291095832735","0","","","","","",""
"","do_trial","203","1226013","0.0-180.0-0.0","234","","","","51","0,0,0","3","mountain","133","probe-235","0.09754581000833235","0.4848835172986932","0.7275196327947998","0","","","","","",""
"","do_trial","204","1231859","0.0-181.0-0.0","295.2000000476837","","","","49","0,0,1","3","mountain","134","probe-187","0.2034201126316612","0.4534053589952322","0.8754689354610161","0","","","","","",""
"","do_trial","205","1237861","0.0-182.0-0.0","464","","","","49","0,1,0","3","mountain","135","probe-173","0.08725258316156977","0.4608803511143932","0.8331153699184214","0","","","","","",""
"","do_trial","206","1243537","0.0-183.0-0.0","136.80000007152557","","","","49","0,0,1","3","mountain","136","probe-179","0.13641059040782277","0.4914209834895943","0.8810526272851235","0","","","","","",""
"","do_trial","207","1249343","0.0-184.0-0.0","260.6999999284744","","","","50","0,1,1","3","mountain","137","probe-129","0.05014301997515477","0.4055592984782302","0.7712864526775505","1","","","","","",""
"","do_trial","208","1255212","0.0-185.0-0.0","326.39999997615814","","","","50","0,0,1","3","mountain","138","probe-131","0.07643995188088763","0.49788505569559766","0.6987743859025253","0","","","","","",""
"","do_trial","209","1260837","0.0-186.0-0.0","84.30000007152557","","","","50","0,0,1","3","mountain","139","probe-161","0.08239910129315126","0.5090474211891255","0.7425233612687876","0","","","","","",""
"","do_trial","210","1266874","0.0-187.0-0.0","501.60000002384186","","","","49","0,0,0","3","mountain","140","probe-60","0.0633628489934624","0.4684600803337722","0.7192744000719976","0","","","","","",""
"","do_trial","211","1272832","0.0-188.0-0.0","406.8000000715256","","","","49","0,1,0","3","mountain","141","probe-145","0.09838582069175039","0.48797348212667724","0.6985685481047423","0","","","","","",""
"","do_trial","212","1279273","0.0-189.0-0.0","899.1000000238419","","","","49","0,1,1","3","mountain","142","probe-120","0.21495414398661422","0.48910337830879697","0.8761746425595978","0","","","","","",""
"","do_trial","213","1285469","0.0-190.0-0.0","650.6000000238419","","","","50","0,1,1","3","mountain","143","probe-194","0.14938516365905277","0.4881185017324512","0.8836130479002577","1","","","","","",""
"","do_trial","214","1291408","0.0-191.0-0.0","388.90000009536743","","","","50","0,0,1","3","mountain","144","probe-176","0.05671126284620831","0.25034822589404565","0.880160083406385","0","","","","","",""
"","do_trial","215","1297316","0.0-192.0-0.0","369.2999999523163","","","","49","0,1,1","3","mountain","145","probe-142","0.16242256577233286","0.3662986436767598","0.8936757119299081","0","","","","","",""
"","do_trial","216","1303187","0.0-193.0-0.0","328.5","","","","49","0,0,1","3","mountain","146","probe-92","0.0697685415712773","0.4636706340338668","0.7318665956514637","0","","","","","",""
"","do_trial","217","1308972","0.0-194.0-0.0","240.30000007152557","","","","49","0,0,1","3","mountain","147","probe-150","0.11122759172135302","0.39773710624477815","0.8051505007635754","0","","","","","",""
"","do_trial","218","1314980","0.0-195.0-0.0","463.2000000476837","","","","49","0,1,0","3","mountain","148","probe-87","0.21448665264881708","0.44701711969668184","0.7558111849964143","0","","","","","",""
"","do_trial","219","1321035","0.0-196.0-0.0","484.09999990463257","","","","49","0,0,1","3","mountain","149","probe-63","0.20673278082864727","0.6041826534588588","0.9276454234007274","0","","","","","",""
"","do_trial","220","1327024","0.0-197.0-0.0","425.7999999523163","","","","50","0,1,1","3","mountain","150","probe-56","0.2006420862913491","0.4924010127636619","0.7957007109414224","1","","","","","",""
"","do_trial","221","1333048","0.0-198.0-0.0","482.5","","","","50","0,0,1","3","mountain","151","probe-213","0.1122529496604248","0.6029882011912951","0.8147863720630432","0","","","","","",""
"","do_trial","222","1339004","0.0-199.0-0.0","410.39999997615814","","","","51","0,1,1","3","mountain","152","probe-168","0.18449175852752694","0.5946005845526838","0.7480039720984627","1","","","","","",""
"","do_trial","223","1344997","0.0-200.0-0.0","453.89999997615814","","","","51","0,1,1","3","mountain","153","probe-24","0.16960816243416102","0.5394735978862644","0.7816368699887533","1","","","","","",""
"","do_trial","224","1350852","0.0-201.0-0.0","320.39999997615814","","","","51","0,1,1","3","mountain","154","probe-174","0.15437220261244772","0.5038151273459902","0.851152368769883","1","","","","","",""
"","do_trial","225","1356887","0.0-202.0-0.0","494.10000002384186","","","","51","0,0,1","3","mountain","155","probe-203","0.16881665109084465","0.4206159925908874","0.8500401947383294","1","","","","","",""
"","do_trial","226","1362661","0.0-203.0-0.0","238.40000009536743","","","","51","0,0,1","3","mountain","156","probe-03","0.17540489887796804","0.42132175323242865","0.7717937733015465","1","","","","","",""
"","do_trial","227","1368523","0.0-204.0-0.0","318.1999999284744","","","","51","0,1,1","3","mountain","157","probe-09","0.14240324650933298","0.32869686466393944","0.8128105887213658","1","","","","","",""
"","do_trial","228","1374484","0.0-205.0-0.0","407.60000002384186","","","","51","1,0,0","3","mountain","158","probe-137","0.16633212730468303","0.32067228380284724","0.7665860342894069","0","","","","","",""
"","do_trial","229","1380223","0.0-206.0-0.0","195.89999997615814","","","","51","0,0,1","3","mountain","159","probe-214","0.15674439400786402","0.3329371687344753","0.730755784307296","1","","","","","",""
"","do_bye","230","1381729","0.0-207.0-0.0","null","","","","null","","","","","","","","","","","","","","",""
"","do_travel","231","1387735","0.0-208.0-0.0","null","","","","null","","","","","","","","","","","","","","",""
"","do_welcome","232","1389242","0.0-208.0-1.0","null","","","","null","","","","","","","","","","","","","","",""
"","do_trial","233","1395328","0.0-209.0-0.0","null","","","","null","0,0,1","4","forest","160","probe-189","0.08398088290900393","0.3985178746899197","1","","","","","","",""
"","do_trial","234","1401208","0.0-210.0-0.0","329.7000000476837","","","","50","0,0,1","4","forest","161","probe-224","0.22833782393400484","0.43738988105684234","1","0","","","","","",""
"","do_trial","235","1407093","0.0-211.0-0.0","343.7999999523163","","","","51","0,0,1","4","forest","162","probe-25","0.14472978636294848","0.5356600065832875","1","1","","","","","",""
"","do_trial","236","1413169","0.0-212.0-0.0","532.8999999761581","","","","51","0,0,1","4","forest","163","probe-228","0.09971815478000283","0.46916335290335304","1","1","","","","","",""
"","do_trial","237","1419207","0.0-213.0-0.0","489.2999999523163","","","","51","0,1,1","4","forest","164","probe-99","0.17157835327477228","0.4438009197186164","0.9211468583883163","1","","","","","",""
"","do_trial","238","1425251","0.0-214.0-0.0","499","","","","51","1,1,1","4","forest","165","probe-217","0.18796850242528704","0.3114824078997134","0.7716490093344569","1","","","","","",""
"","do_trial","239","1431307","0.0-215.0-0.0","null","","","","null","1,1,1","4","forest","166","probe-69","0.13174928152841925","0.4358550007980619","0.9325690276767137","","","","","","",""
"","do_trial","240","1437581","0.0-216.0-0.0","730.1000000238419","","","","51","0,0,1","4","forest","167","probe-205","0.06259464539574854","0.35375221032976906","0.7901246090466911","1","","","","","",""
"","do_trial","241","1443572","0.0-217.0-0.0","451.5","","","","51","0,1,1","4","forest","168","probe-46","0.13771571078775816","0.3154206203248673","0.9398233199048943","1","","","","","",""
"","do_trial","242","1451619","0.0-218.0-0.0","2484.100000023842","","","","51","0,1,1","4","forest","169","probe-206","0.0746294597076092","0.41712254744611804","0.8953508890663207","1","","","","","",""
"","do_trial","243","1457859","0.0-219.0-0.0","695.8999999761581","","","","51","0,1,1","4","forest","170","probe-81","0.39722090999723747","0.21919400373666237","0.8175149907110629","1","","","","","",""
"","do_trial","244","1464525","0.0-220.0-0.0","1117.0999999046326","","","","51","0,0,1","4","forest","171","probe-230","0.507134580440229","0.31329677716471993","0.7704483693104125","1","","","","","",""
"","do_trial","245","1470708","0.0-221.0-0.0","645.2000000476837","","","","51","0,0,1","4","forest","172","probe-07","0.569753470963446","0.2782625494357547","0.582531531822918","1","","","","","",""
"","do_trial","246","1477001","0.0-222.0-0.0","742.2000000476837","","","","51","1,0,0","4","forest","173","probe-152","0.6947878113495412","0.17273493050455194","0.6863191845302216","0","","","","","",""
"","do_trial","247","1483256","0.0-223.0-0.0","680.9000000953674","","","","51","1,0,1","4","forest","174","probe-227","0.7567481028862433","0.12638797175736977","0.6766595219132809","1","","","","","",""
"","do_trial","248","1489428","0.0-224.0-0.0","625.2999999523163","","","","51","1,0,1","4","forest","175","probe-185","0.6676884507246911","0.10166073957270726","0.49518358379310423","1","","","","","",""
"","do_trial","249","1495839","0.0-225.0-0.0","867.7000000476837","","","","51","1,0,1","4","forest","176","probe-59","0.6476728538339485","0.11442827492916853","0.3558853471333058","1","","","","","",""
"","do_trial","250","1501909","0.0-226.0-0.0","520.5","","","","50","1,0,1","4","forest","177","probe-209","0.7598144414517037","0.06481214367508471","0.41016026312102755","0","","","","","",""
"","do_trial","251","1508156","0.0-227.0-0.0","700.1000000238419","","","","51","1,0,1","4","forest","178","probe-138","0.779976165478944","0.06885085283051509","0.3728368927164232","1","","","","","",""
"","do_trial","252","1515162","0.0-228.0-0.0","1460","","","","51","1,1,1","4","forest","179","probe-106","0.8599915480330836","0.2359696946714443","0.5333317455268624","1","","","","","",""
"","do_trial","253","1521137","0.0-229.0-0.0","431.3000000715256","","","","51","1,1,1","4","forest","180","probe-177","0.7445947135250462","0.169286116904617","0.5107302727389827","1","","","","","",""
"","do_trial","254","1527746","0.0-230.0-0.0","1073.1999999284744","","","","51","1,0,1","4","forest","181","probe-119","0.6567114282486103","0.14515783198403545","0.5021363903573615","1","","","","","",""
"","do_trial","255","1533805","0.0-231.0-0.0","null","","","","null","1,1,0","4","forest","182","probe-68","0.8749515159192737","0.1849923052656426","0.44978428566071127","","","","","","",""
"","do_trial","256","1540026","0.0-232.0-0.0","676.7999999523163","","","","51","0,0,1","4","forest","183","probe-212","0.8888215916179474","0.12867827680768948","0.3955558023517727","1","","","","","",""
"","do_trial","257","1547903","0.0-233.0-0.0","2327.899999976158","","","","51","1,0,0","4","forest","184","probe-100","0.7759811899648454","0.2831656136389972","0.41613179696996727","0","","","","","",""
"","do_trial","258","1553936","0.0-234.0-0.0","490.89999997615814","","","","51","0,1,0","4","forest","185","probe-133","0.8209614303012733","0.12805512347607634","0.5258877171988985","0","","","","","",""
"","do_trial","259","1559843","0.0-235.0-0.0","361.7000000476837","","","","51","1,0,1","4","forest","186","probe-165","0.8130337029419213","0.12040939522911435","0.4990188987560085","1","","","","","",""
"","do_trial","260","1566564","0.0-236.0-0.0","1183.8999999761581","","","","51","0,0,0","4","forest","187","probe-229","0.9120384303162717","0.058994843410771325","0.39618822340569204","0","","","","","",""
"","do_trial","261","1572657","0.0-237.0-0.0","554.1999999284744","","","","51","1,0,0","4","forest","188","probe-215","0.945668731205874","0.07303709752176503","0.4372660469545937","0","","","","","",""
"","do_trial","262","1578882","0.0-238.0-0.0","691.7999999523163","","","","51","1,0,0","4","forest","189","probe-121","0.8506370069839215","0.09145358158838753","0.3150571271690805","0","","","","","",""
"","do_trial","263","1585309","0.0-239.0-0.0","886","","","","51","1,1,0","4","forest","190","probe-233","0.8620714420991474","0.060343920264423395","0.2644841598401385","0","","","","","",""
"","do_trial","264","1591428","0.0-240.0-0.0","583.3999999761581","","","","51","0,0,0","4","forest","191","probe-74","0.8658618819378547","0.08593238659405816","0.35405775491439545","0","","","","","",""
"","do_trial","265","1598662","0.0-241.0-0.0","1685.1000000238419","","","","51","1,1,0","4","forest","192","probe-02","0.7528646759258539","0.08050751077734333","0.28918777257579215","0","","","","","",""
"","do_trial","266","1605443","0.0-242.0-0.0","1244.5","","","","51","1,0,0","4","forest","193","probe-132","0.7839881523922605","0.11864604677118852","0.34235736338032446","0","","","","","",""
"","do_trial","267","1611435","0.0-243.0-0.0","437.89999997615814","","","","51","1,1,0","4","forest","194","probe-10","0.7314040266562017","0.19341078703834338","0.3185101565283266","0","","","","","",""
"","do_trial","268","1618209","0.0-244.0-0.0","1237.8999999761581","","","","51","1,0,0","4","forest","195","probe-232","0.5653553798672479","0.1276901338934692","0.2696845128215683","0","","","","","",""
"","do_trial","269","1624405","0.0-245.0-0.0","650","","","","51","1,0,1","4","forest","196","probe-175","0.8637482635198518","0.11132249971795834","0.20001186019115655","1","","","","","",""
"","do_trial","270","1629950","0.0-246.0-0.0","0","","","","51","1,0,0","4","forest","197","probe-146","0.8808922038309899","0.16102802827772345","0.2847373669673837","0","","","","","",""
"","do_trial","271","1636190","0.0-247.0-0.0","672.6999999284744","","","","51","0,0,1","4","forest","198","probe-33","0.721688705108427","0.0854430459854235","0.279527770057216","1","","","","","",""
"","do_trial","272","1642531","0.0-248.0-0.0","795.5","","","","51","1,0,0","4","forest","199","probe-200","0.7999980561672486","0.17778304099002437","0.3326806922788036","0","","","","","",""
"","do_bye","273","1644059","0.0-249.0-0.0","null","","","","null","","","","","","","","","","","","","","",""
"","do_travel","274","1650083","0.0-250.0-0.0","null","","","","null","","","","","","","","","","","","","","",""
"","do_welcome","275","1651592","0.0-250.0-1.0","null","","","","null","","","","","","","","","","","","","","",""
"","do_trial","276","1658549","0.0-251.0-0.0","1409.5","","","","51","1,1,1","5","highway","200","probe-76","1","0.1982269391378476","0.36236930007001955","1","","","","","",""
"","do_trial","277","1664370","0.0-252.0-0.0","279.10000002384186","","","","51","1,1,1","5","highway","201","probe-156","1","0.28931614055698274","0.4731988288888907","1","","","","","",""
"","do_trial","278","1670293","0.0-253.0-0.0","376.59999990463257","","","","51","1,1,1","5","highway","202","probe-32","1","0.1086871050413528","0.4166135309299102","1","","","","","",""
"","do_trial","279","1676185","0.0-254.0-0.0","339.8000000715256","","","","51","1,0,0","5","highway","203","probe-178","1","0.18244418902695198","0.390853801302478","0","","","","","",""
"","do_trial","280","1682645","0.0-255.0-0.0","912.5","","","","51","0,0,0","5","highway","204","probe-22","0.9454891107266616","0.21037139040452743","0.4517227211236993","0","","","","","",""
"","do_trial","281","1688279","0.0-256.0-0.0","98.79999995231628","","","","51","1,0,0","5","highway","205","probe-61","0.8385405479560442","0.05759277980173204","0.48842850207889515","0","","","","","",""
"","do_trial","282","1694132","0.0-257.0-0.0","303.89999997615814","","","","51","1,0,1","5","highway","206","probe-102","0.92128660389936","0.0891060405393619","0.3238739902736825","1","","","","","",""
"","do_trial","283","1700208","0.0-258.0-0.0","540.2000000476837","","","","51","0,0,0","5","highway","207","probe-124","0.831199577470118","0.11915603640988459","0.23849038401447614","0","","","","","",""
"","do_trial","284","1705927","0.0-259.0-0.0","178.69999992847443","","","","49","1,0,0","5","highway","208","probe-240","0.7229116881102207","0.056780849637736476","0.35919568020836085","1","","","","","",""
"","do_trial","285","1711750","0.0-260.0-0.0","292.2000000476837","","","","49","1,0,1","5","highway","209","probe-162","0.7221048643542136","0.11855484378339785","0.3925944426187868","1","","","","","",""
"","do_trial","286","1717919","0.0-261.0-0.0","634.3999999761581","","","","51","0,0,1","5","highway","210","probe-128","0.5678903177156289","0.0506789017941471","0.6275345574201592","1","","","","","",""
"","do_trial","287","1723826","0.0-262.0-0.0","367.7999999523163","","","","51","0,0,1","5","highway","211","probe-06","0.45956592575611943","0.10768529877229968","0.6869435455678486","1","","","","","",""
"","do_trial","288","1729631","0.0-263.0-0.0","270.6999999284744","","","","51","0,1,1","5","highway","212","probe-149","0.47423180675488624","0.25801871555309697","0.6492703400281784","1","","","","","",""
"","do_trial","289","1735622","0.0-264.0-0.0","447.7000000476837","","","","51","0,0,1","5","highway","213","probe-05","0.4452011904436893","0.2929743623514556","0.7521234019060922","1","","","","","",""
"","do_trial","290","1741513","0.0-265.0-0.0","354.59999990463257","","","","51","0,0,0","5","highway","214","probe-234","0.5294592091953735","0.13673988465917927","0.7834853680192092","0","","","","","",""
"","do_trial","291","1747065","0.0-266.0-0.0","4.400000095367432","","","","51","1,0,1","5","highway","215","probe-180","0.5012089088279391","0.1353847177421606","0.792682529847182","1","","","","","",""
"","do_trial","292","1753527","0.0-267.0-0.0","910.9000000953674","","","","51","1,0,0","5","highway","216","probe-21","0.5093598696278834","0.1954331650596428","0.8250865422773757","0","","","","","",""
"","do_trial","293","1759481","0.0-268.0-0.0","416.59999990463257","","","","51","1,1,0","5","highway","217","probe-153","0.5329252396056391","0.1941378800964283","0.7891290589419313","0","","","","","",""
"","do_trial","294","1765370","0.0-269.0-0.0","351.39999997615814","","","","49","1,0,0","5","highway","218","probe-103","0.4792407836417377","0.13795322188260759","0.7761123959657517","1","","","","","",""
"","do_trial","295","1771273","0.0-270.0-0.0","365.10000002384186","","","","49","0,1,1","5","highway","219","probe-37","0.4255792624875671","0.1540053308432076","0.7817356075612825","0","","","","","",""
"","do_trial","296","1777234","0.0-271.0-0.0","420.7000000476837","","","","49","0,0,1","5","highway","220","probe-154","0.5058713320382275","0.18886273593418934","0.7806901764373373","0","","","","","",""
"","do_trial","297","1783222","0.0-272.0-0.0","425.10000002384186","","","","49","1,1,1","5","highway","221","probe-113","0.5466526191733039","0.11623460203551914","0.8654910434724703","1","","","","","",""
"","do_trial","298","1789269","0.0-273.0-0.0","511.10000002384186","","","","49","0,0,0","5","highway","222","probe-155","0.45579520084027997","0.10401781331401255","0.832464271581169","0","","","","","",""
"","do_trial","299","1795113","0.0-274.0-0.0","302.8000000715256","","","","51","0,0,1","5","highway","223","probe-55","0.42131066190679295","0.061411135525173965","0.7692094282266456","1","","","","","",""
"","do_trial","300","1800991","0.0-275.0-0.0","330.7999999523163","","","","51","0,0,1","5","highway","224","probe-12","0.3991563420450014","0.07284945211873424","0.6664505395221612","1","","","","","",""
"","do_trial","301","1806914","0.0-276.0-0.0","374.39999997615814","","","","51","0,1,1","5","highway","225","probe-82","0.33742409025465775","0.20241919690404736","0.7477870182219769","1","","","","","",""
"","do_trial","302","1812951","0.0-277.0-0.0","490.39999997615814","","","","51","0,0,1","5","highway","226","probe-135","0.2516900201973952","0.15997137252906254","0.8471352966171365","1","","","","","",""
"","do_trial","303","1819098","0.0-278.0-0.0","606.2000000476837","","","","51","1,0,1","5","highway","227","probe-45","0.31812583488723695","0.12482351252627993","0.7371182980105538","1","","","","","",""
"","do_trial","304","1825122","0.0-279.0-0.0","477.6999999284744","","","","51","1,1,1","5","highway","228","probe-186","0.4538120937431793","0.0811354583181914","0.7221001205782589","1","","","","","",""
"","do_trial","305","1831324","0.0-280.0-0.0","670","","","","51","1,0,0","5","highway","229","probe-110","0.4730560376844244","0.05424928197957295","0.7414424765728878","0","","","","","",""
"","do_trial","306","1837415","0.0-281.0-0.0","550.3999999761581","","","","51","1,0,1","5","highway","230","probe-144","0.4750674558699402","0.054201798310951246","0.7356599250051133","1","","","","","",""
"","do_trial","307","1843934","0.0-282.0-0.0","978.2999999523163","","","","51","1,0,1","5","highway","231","probe-239","0.6292151002518517","0.10386395361282151","0.844067248174767","1","","","","","",""
"","do_trial","308","1850620","0.0-283.0-0.0","1149.3000000715256","","","","51","1,0,1","5","highway","232","probe-98","0.5475591980835965","0.0689449167951339","0.8631989820295047","1","","","","","",""
"","do_trial","309","1856242","0.0-284.0-0.0","62.200000047683716","","","","51","1,0,1","5","highway","233","probe-40","0.36475943920847687","0.08954887978021037","0.9474269519217111","1","","","","","",""
"","do_trial","310","1862883","0.0-285.0-0.0","1095.1000000238419","","","","51","0,0,1","5","highway","234","probe-164","0.4156332388139957","0.09452082883619356","0.9406067913024847","1","","","","","",""
"","do_trial","311","1870975","0.0-286.0-0.0","2545.8000000715256","","","","51","1,0,1","5","highway","235","probe-231","0.26507489603649653","0.29484448865324037","0.9220289913646329","1","","","","","",""
"","do_trial","312","1877036","0.0-287.0-0.0","null","","","","null","0,0,1","5","highway","236","probe-11","0.31848739443401014","0.2339515030826136","0.9119799560274774","","","","","","",""
"","do_trial","313","1883026","0.0-288.0-0.0","443.39999997615814","","","","51","1,0,1","5","highway","237","probe-190","0.3447947130148547","0.18936331360627315","0.8962713012487705","1","","","","","",""
"","do_trial","314","1889118","0.0-289.0-0.0","553.1999999284744","","","","51","0,1,1","5","highway","238","probe-30","0.2893713405739375","0.08754082549523841","0.9157977279287995","1","","","","","",""
"","do_trial","315","1895621","0.0-290.0-0.0","954.4000000953674","","","","51","0,0,1","5","highway","239","probe-130","0.31292718724755075","0.12652215546240067","0.9025021263079194","1","","","","","",""
"","do_bye","316","1897150","0.0-291.0-0.0","null","","","","null","","","","","","","","","","","","","","",""
"","html-keyboard-response","317","2017160","0.0-291.0-1.0","null","<div class='center'><p>You may take a break now!</p><p> Stretch for a little bit. Get a glass of water.</p><p> You have two minutes to rest. Then, the game will automatically move on.</p><p>If you’d like to get started on the second half of the experiment sooner, then press the <b>space bar</b></p></div>","null","","","","","","","","","","","","","","","","",""
"","html-keyboard-response","318","2042359","0.0-291.0-2.0","25198.300000071526","<div class='center'><p>You’ve arrived at the final destination of your journey! Unfortunately, it’s very foggy out, so you won’t be able to see it in the distance like in previous places you've visited.</p><p>You’ll still be deciding which pirates you want to rob ships. However, because of the fog you also won’t be able to see the ship in the distance. </p><p><b>[Press the space bar to continue]</b></p></div>","32","","","","","","","","","","","","","","","","",""
"","html-keyboard-response","319","2071023","0.0-291.0-3.0","28662.100000023842","<div class='center'><p> Sometimes you’ll be asked if you’ve seen a ship before (see the example below). You will use the 5, 6, 7, 8 buttons on your keyboard to respond. </p><p> If you definitely did not see the ship, pick the the big red thumbs down by pressing <b>5</b>.</p><p> If you don’t think you saw it but aren’t sure, then pick the small red thumbs down by pressing <b>6</b>.</p><p> If you think you might have seen it, then pick the small green thumbs up by pressing <b>7</b>.</p><p> If you definitely did see this ship before, then pick the big thumb green thumbs up by pressing <b>8</b>.</p><p> If you recall correctly, then you’ll get a gold coin!</p><p><b>[Press the space bar to begin the next phase of the experiment]</b></p><p><img src='run_exp/static/images/example_recog_trial.png' height='500'></p></div>","32","","","","","","","","","","","","","","","","",""
"","do_welcome","320","2072531","0.0-291.0-4.0","null","","","","null","","","","","","","","","","","","","","",""
"","do_trial","321","2078592","0.0-292.0-0.0","null","","","","null","1,0,1","6","blank","240","null","0.292548399637598","0.11702900919656761","1","","","","","","",""
"","do_recog","322","2083562","0.0-293.0-0.0","3453.2999999523163","","","","56","","","","241","probe-22","","","","","1","[object Object]","204","5","1",""
"","do_trial","323","2089600","0.0-294.0-0.0","null","","","","null","0,0,1","6","blank","242","null","0.28521890813759465","0.17159745465076603","0.9339111712582946","","","","","","",""
"","do_trial","324","2094033","0.0-295.0-0.0","890.3999999761581","","","","51","1,0,1","6","blank","243","null","0.3710184671744442","0.2116811690205435","0.8326804980137927","1","","","","","",""
"","do_trial","325","2098449","0.0-296.0-0.0","870.7999999523163","","","","50","0,0,0","6","blank","244","null","0.32799320316942276","0.17084511476439865","0.8604895595281672","0","","","","","",""
"","do_recog","326","2102231","0.0-297.0-0.0","2269.7000000476837","","","","55","","","","245","probe-244","","","","","0","[object Object]","null","null","0",""
"","do_trial","327","2108073","0.0-298.0-0.0","2301.7000000476837","","","","49","0,0,1","6","blank","246","null","0.24008716123635307","0.050578764253137724","0.7316026764435948","0","","","","","",""
"","do_trial","328","2112457","0.0-299.0-0.0","843.7999999523163","","","","50","0,0,1","6","blank","247","null","0.2935907846252874","0.15848946212807496","0.6038517299137405","0","","","","","",""
"","do_trial","329","2116440","0.0-300.0-0.0","431.39999997615814","","","","51","1,0,1","6","blank","248","null","0.25003258423214436","0.11457059135525911","0.7526243907744079","1","","","","","",""
"","do_trial","330","2120536","0.0-301.0-0.0","551.7999999523163","","","","51","1,1,1","6","blank","249","null","0.3076981764526248","0.12263973401271869","0.8276558688181374","1","","","","","",""
"","do_trial","331","2124476","0.0-302.0-0.0","401.60000002384186","","","","51","0,0,1","6","blank","250","null","0.3866068641674938","0.13877057043820032","0.9101162374937962","1","","","","","",""
"","do_trial","332","2128432","0.0-303.0-0.0","417.39999997615814","","","","51","1,1,1","6","blank","251","null","0.33359882074310526","0.1678456532900939","0.8237521656918423","1","","","","","",""
"","do_recog","333","2131399","0.0-304.0-0.0","1453.8000000715256","","","","56","","","","252","probe-32","","","","","1","[object Object]","202","5","1",""
"","do_trial","334","2135658","0.0-305.0-0.0","723.6000000238419","","","","51","0,0,0","6","blank","253","null","0.27229495827152744","0.4615111785320902","0.40192585230097316","0","","","","","",""
"","do_recog","335","2139319","0.0-306.0-0.0","2142.100000023842","","","","54","","","","254","probe-206","","","","","1","[object Object]","169","4","0",""
"","do_trial","336","2145559","0.0-307.0-0.0","2697.7999999523163","","","","51","0,0,1","6","blank","255","null","0.22029615859618937","0.592452354847879","0.39423989355469263","1","","","","","",""
"","do_recog","337","2148222","0.0-308.0-0.0","1151.5999999046326","","","","56","","","","256","probe-83","","","","","1","[object Object]","88","2","1",""
"","do_trial","338","2153759","0.0-309.0-0.0","1969","","","","51","1,0,0","6","blank","257","null","0.38037451686488655","0.6579638857767505","0.31287615685919157","0","","","","","",""
"","do_recog","339","2157118","0.0-310.0-0.0","1847.5","","","","55","","","","258","probe-54","","","","","1","[object Object]","89","2","1",""
"","do_trial","340","2161621","0.0-311.0-0.0","957.6999999284744","","","","51","1,1,0","6","blank","259","null","0.45961870018450723","0.8998202631462128","0.18418163633864018","0","","","","","",""
"","do_recog","341","2164468","0.0-312.0-0.0","1320.6999999284744","","","","55","","","","260","probe-116","","","","","1","[object Object]","46","1","1",""
"","do_trial","342","2168884","0.0-313.0-0.0","871.7000000476837","","","","51","1,1,0","6","blank","261","null","0.3748869923751911","0.8841646945410291","0.18839636789012473","0","","","","","",""
"","do_recog","343","2171758","0.0-314.0-0.0","1360","","","","54","","","","262","probe-51","","","","","1","[object Object]","124","3","0",""
"","do_trial","344","2176160","0.0-315.0-0.0","846.2000000476837","","","","51","0,1,0","6","blank","263","null","0.39548344499901916","0.9167527305668448","0.12204889845671606","0","","","","","",""
"","do_recog","345","2179593","0.0-316.0-0.0","1905.1000000238419","","","","55","","","","264","probe-242","","","","","0","[object Object]","null","null","0",""
"","do_trial","346","2183744","0.0-317.0-0.0","600.5","","","","51","1,1,0","6","blank","265","null","0.3273269873426476","0.9411727473128637","0.1702401897336379","0","","","","","",""
"","do_trial","347","2187856","0.0-318.0-0.0","568.1999999284744","","","","51","1,1,0","6","blank","266","null","0.35535975455695074","0.8554291639238573","0.07866304744645711","0","","","","","",""
"","do_recog","348","2190615","0.0-319.0-0.0","1237.3999999761581","","","","56","","","","267","probe-148","","","","","1","[object Object]","49","1","1",""
"","do_trial","349","2196120","0.0-320.0-0.0","1972","","","","51","1,1,0","6","blank","268","null","0.44037520526831975","0.764774234347273","0.10124466775714913","0","","","","","",""
"","do_recog","350","2199064","0.0-321.0-0.0","1421.6999999284744","","","","55","","","","269","probe-102","","","","","1","[object Object]","206","5","1",""
"","do_trial","351","2203496","0.0-322.0-0.0","889.8999999761581","","","","50","0,1,0","6","blank","270","null","0.3228921011142063","0.9179386829023635","0.07810623193656907","1","","","","","",""
"","do_recog","352","2206176","0.0-323.0-0.0","1170.7000000476837","","","","56","","","","271","probe-50","","","","","1","[object Object]","44","1","1",""
"","do_trial","353","2210122","0.0-324.0-0.0","377.1999999284744","","","","50","0,1,0","6","blank","272","null","0.3574717574775881","0.9055917831567828","0.14716134120803268","1","","","","","",""
"","do_recog","354","2213155","0.0-325.0-0.0","1507.8000000715256","","","","56","","","","273","probe-23","","","","","1","[object Object]","87","2","1",""
"","do_trial","355","2217065","0.0-326.0-0.0","367.1999999284744","","","","50","1,1,0","6","blank","274","null","0.3766259931870385","0.9003135768076753","0.1870297854000485","1","","","","","",""
"","do_recog","356","2219451","0.0-327.0-0.0","876.6000000238419","","","","56","","","","275","probe-31","","","","","1","[object Object]","42","1","1",""
"","do_trial","357","2223388","0.0-328.0-0.0","388.5","","","","50","0,1,0","6","blank","276","null","0.318306223726961","0.8653057870515828","0.15441883092289513","1","","","","","",""
"","do_recog","358","2225928","0.0-329.0-0.0","1032.3999999761581","","","","56","","","","277","probe-224","","","","","1","[object Object]","161","4","1",""
"","do_trial","359","2230013","0.0-330.0-0.0","545.7999999523163","","","","50","0,1,0","6","blank","278","null","0.2769033873067356","0.7066611994167503","0.05487289636770098","1","","","","","",""
"","do_recog","360","2232462","0.0-331.0-0.0","935.6000000238419","","","","56","","","","279","probe-25","","","","","1","[object Object]","162","4","1",""
"","do_trial","361","2236453","0.0-332.0-0.0","452.5","","","","50","1,1,0","6","blank","280","null","0.35007546530059297","0.6842518625050521","0.16237684824866036","1","","","","","",""
"","do_recog","362","2238777","0.0-333.0-0.0","807.6999999284744","","","","56","","","","281","probe-80","","","","","1","[object Object]","121","3","1",""
"","do_trial","363","2242692","0.0-334.0-0.0","377","","","","50","1,1,0","6","blank","282","null","0.31869298463990414","0.724477518893626","0.1438606263267866","1","","","","","",""
"","do_recog","364","2244891","0.0-335.0-0.0","687.7000000476837","","","","56","","","","283","probe-52","","","","","1","[object Object]","82","2","1",""
"","do_trial","365","2249463","0.0-336.0-0.0","1029.7999999523163","","","","50","1,1,0","6","blank","284","null","0.23348234134647633","0.710057153113092","0.062474585828815266","1","","","","","",""
"","do_recog","366","2252196","0.0-337.0-0.0","1208.8999999761581","","","","56","","","","285","probe-163","","","","","1","[object Object]","123","3","1",""
"","do_trial","367","2256141","0.0-338.0-0.0","397.6999999284744","","","","50","1,1,0","6","blank","286","null","0.3628848551881596","0.6891429474527518","0.21882236986353928","1","","","","","",""
"","do_trial","368","2260326","0.0-339.0-0.0","638.4000000953674","","","","50","1,1,1","6","blank","287","null","0.3772844855954967","0.7665495873267255","0.31396935502505396","1","","","","","",""
"","do_trial","369","2264544","0.0-340.0-0.0","668.2000000476837","","","","50","0,1,1","6","blank","288","null","0.3548031845430593","0.8794896301623406","0.11149111594526306","1","","","","","",""
"","do_trial","370","2268490","0.0-341.0-0.0","409.09999990463257","","","","50","0,1,0","6","blank","289","null","0.43682693296583497","1","0.23101508223701467","1","","","","","",""
"","do_recog","371","2271433","0.0-342.0-0.0","1425.1999999284744","","","","56","","","","290","probe-76","","","","","1","[object Object]","200","5","1",""
"","do_trial","372","2275385","0.0-343.0-0.0","404.60000002384186","","","","50","0,0,1","6","blank","291","null","0.42577671534281636","0.8339442083821688","0.1095902809340884","0","","","","","",""
"","do_trial","373","2279348","0.0-344.0-0.0","422","","","","50","1,1,0","6","blank","292","null","0.4351825172665762","0.7186498276479926","0.17323344346675587","1","","","","","",""
"","do_recog","374","2282242","0.0-345.0-0.0","1384.6000000238419","","","","54","","","","293","probe-93","","","","","1","[object Object]","129","3","0",""
"","do_trial","375","2286326","0.0-346.0-0.0","535.5","","","","50","0,1,0","6","blank","294","null","0.4563412458999242","0.7240224754967082","0.1615094122312582","1","","","","","",""
"","do_recog","376","2289137","0.0-347.0-0.0","1285.8000000715256","","","","56","","","","295","probe-208","","","","","1","[object Object]","84","2","1",""
"","do_trial","377","2293134","0.0-348.0-0.0","457.89999997615814","","","","50","0,0,0","6","blank","296","null","0.5701956700871351","0.6733680019977707","0.23096523916532888","0","","","","","",""
"","do_recog","378","2296241","0.0-349.0-0.0","1589.5","","","","53","","","","297","probe-245","","","","","0","[object Object]","null","null","1",""
"","do_trial","379","2300225","0.0-350.0-0.0","447","","","","50","1,1,0","6","blank","298","null","0.380007316817621","0.6648147886827915","0.19685618153232437","1","","","","","",""
"","do_trial","380","2304324","0.0-351.0-0.0","530.2000000476837","","","","50","0,0,0","6","blank","299","null","0.4517345065837299","0.7180994187633016","0.22880065599782057","0","","","","","",""
"","do_trial","381","2308238","0.0-352.0-0.0","372.10000002384186","","","","50","0,0,0","6","blank","300","null","0.36470437231975084","0.6453686992727102","0.10674312796896435","0","","","","","",""
"","do_trial","382","2312199","0.0-353.0-0.0","426.40000009536743","","","","51","0,1,0","6","blank","301","null","0.28464508744093203","0.7450984660996673","0.20521250274857114","0","","","","","",""
"","do_trial","383","2316099","0.0-354.0-0.0","352.7000000476837","","","","50","1,0,0","6","blank","302","null","0.31560805720880747","0.5776571783654546","0.11277691854783366","0","","","","","",""
"","do_trial","384","2319967","0.0-355.0-0.0","303.3000000715256","","","","49","1,0,1","6","blank","303","null","0.3643000232463814","0.5979353550192468","0.10889159218042785","1","","","","","",""
"","do_recog","385","2322609","0.0-356.0-0.0","1125.5","","","","56","","","","304","probe-73","","","","","1","[object Object]","47","1","1",""
"","do_trial","386","2326594","0.0-357.0-0.0","448.5","","","","49","0,0,0","6","blank","305","null","0.5518470834758883","0.5270009483941119","0.0547043200724267","0","","","","","",""
"","do_recog","387","2329051","0.0-358.0-0.0","934.3999999761581","","","","56","","","","306","probe-127","","","","","1","[object Object]","126","3","1",""
"","do_trial","388","2333606","0.0-359.0-0.0","1013.3999999761581","","","","49","0,1,0","6","blank","307","null","0.7468449878507825","0.5378474428697367","0.15716332555264587","0","","","","","",""
"","do_recog","389","2335846","0.0-360.0-0.0","732.8999999761581","","","","56","","","","308","probe-88","","","","","1","[object Object]","120","3","1",""
"","do_trial","390","2339744","0.0-361.0-0.0","354.89999997615814","","","","50","0,1,0","6","blank","309","null","0.7386981979113589","0.5582560840250596","0.06612726294924304","1","","","","","",""
"","do_trial","391","2344145","0.0-362.0-0.0","848.8999999761581","","","","50","1,1,0","6","blank","310","null","0.7836053904290035","0.593841623259453","0.16592925015143498","1","","","","","",""
"","do_trial","392","2349946","0.0-363.0-0.0","2264.2999999523163","","","","50","0,1,0","6","blank","311","null","0.7666833057109469","0.42794949350536826","0.08415473520494544","1","","","","","",""
"","do_trial","393","2353645","0.0-364.0-0.0","157","","","","50","1,0,0","6","blank","312","null","0.8043058322982405","0.3796726866624417","0.12217434188218315","0","","","","","",""
"","do_trial","394","2358381","0.0-365.0-0.0","1187.5","","","","50","0,0,0","6","blank","313","null","0.6861957005729127","0.4186677498746882","0.056339526523308106","0","","","","","",""
"","do_recog","395","2362177","0.0-366.0-0.0","2281.600000023842","","","","56","","","","314","probe-85","","","","","1","[object Object]","122","3","1",""
"","do_trial","396","2368237","0.0-367.0-0.0","null","","","","null","1,0,0","6","blank","315","null","0.7112428313122997","0.4510636876660216","0.08099947688898049","","","","","","",""
"","do_recog","397","2370345","0.0-368.0-0.0","598.5","","","","56","","","","316","probe-218","","","","","1","[object Object]","86","2","1",""
"","do_trial","398","2376399","0.0-369.0-0.0","null","","","","null","0,1,0","6","blank","317","null","0.7485008156560015","0.46894949843227013","0.1500055969713835","","","","","","",""
"","do_recog","399","2382421","0.0-370.0-0.0","null","","","","null","","","","318","probe-99","","","","","1","[object Object]","164","4","0",""
"","do_trial","400","2388492","0.0-371.0-0.0","null","","","","null","1,1,0","6","blank","319","null","0.807588965305909","0.4893730164969831","0.1955617876112258","","","","","","",""
"","do_recog","401","2394514","0.0-372.0-0.0","null","","","","null","","","","320","probe-183","","","","","1","[object Object]","128","3","0",""
"","do_trial","402","2400561","0.0-373.0-0.0","null","","","","null","1,1,0","6","blank","321","null","0.7116074934428296","0.4577326402297262","0.12359931704539454","","","","","","",""
"","do_recog","403","2403711","0.0-374.0-0.0","1641.6999999284744","","","","56","","","","322","probe-96","","","","","1","[object Object]","48","1","1",""
"","do_trial","404","2409443","0.0-375.0-0.0","2196.5","","","","50","1,1,0","6","blank","323","null","0.7767967240184506","0.43473760417895807","0.06853136856191393","1","","","","","",""
"","do_trial","405","2413441","0.0-376.0-0.0","454.10000002384186","","","","50","1,0,0","6","blank","324","null","0.8461278233809713","0.5058465395975092","0.07395289352015269","0","","","","","",""
"","do_trial","406","2417387","0.0-377.0-0.0","398.39999997615814","","","","50","0,1,0","6","blank","325","null","0.6795166216991886","0.4898786382441497","0.12892554096355022","1","","","","","",""
"","do_trial","407","2421350","0.0-378.0-0.0","422.59999990463257","","","","50","1,0,1","6","blank","326","null","0.6259090873200096","0.49443696652234975","0.09394225826890999","0","","","","","",""
"","do_recog","408","2423928","0.0-379.0-0.0","1068","","","","56","","","","327","probe-124","","","","","1","[object Object]","207","5","1",""
"","do_trial","409","2428243","0.0-380.0-0.0","771.3000000715256","","","","50","1,1,0","6","blank","328","null","0.6996239201869451","0.5034281974399002","0.11496611605033046","1","","","","","",""
"","do_trial","410","2432111","0.0-381.0-0.0","330","","","","50","1,0,0","6","blank","329","null","0.6808970552837402","0.4420205742038332","0.0877518009814613","0","","","","","",""
"","do_trial","411","2435987","0.0-382.0-0.0","337.7999999523163","","","","50","1,0,0","6","blank","330","null","0.7932732917559784","0.5072938574776567","0.08556249939435748","0","","","","","",""
"","do_recog","412","2438349","0.0-383.0-0.0","847","","","","56","","","","331","probe-136","","","","","1","[object Object]","43","1","1",""
"","do_trial","413","2442272","0.0-384.0-0.0","365.6999999284744","","","","50","0,1,0","6","blank","332","null","0.8406355561072083","0.48875202239715143","0.12918394229283034","1","","","","","",""
"","do_recog","414","2445322","0.0-385.0-0.0","1537.8999999761581","","","","55","","","","333","probe-143","","","","","1","[object Object]","85","2","1",""
"","do_trial","415","2449501","0.0-386.0-0.0","635.6999999284744","","","","50","1,1,0","6","blank","334","null","1","0.360167072110075","0.08516610282715434","1","","","","","",""
"","do_trial","416","2453568","0.0-387.0-0.0","527","","","","50","1,1,0","6","blank","335","null","0.8527439334716591","0.46796208620330126","0.13921456788983477","1","","","","","",""
"","do_trial","417","2457499","0.0-388.0-0.0","393.10000002384186","","","","50","1,0,0","6","blank","336","null","0.8715241136755602","0.4324595299126278","0.0668047790502176","0","","","","","",""
"","do_trial","418","2461383","0.0-389.0-0.0","336.40000009536743","","","","50","1,1,1","6","blank","337","null","0.869157694724083","0.2286234534695776","0.10141978262684344","1","","","","","",""
"","do_trial","419","2465314","0.0-390.0-0.0","383.39999997615814","","","","50","1,0,1","6","blank","338","null","0.793626328858039","0.44021059179344607","0.06437633689710262","0","","","","","",""
"","do_recog","420","2467839","0.0-391.0-0.0","1007.6000000238419","","","","56","","","","339","probe-258","","","","","0","[object Object]","null","null","0",""
"","do_trial","421","2471854","0.0-392.0-0.0","471.5","","","","50","0,0,0","6","blank","340","null","0.8810388337853169","0.40392175118468243","0.13693922285038976","0","","","","","",""
"","do_recog","422","2474195","0.0-393.0-0.0","819.5999999046326","","","","56","","","","341","probe-228","","","","","1","[object Object]","163","4","1",""
"","do_trial","423","2478402","0.0-394.0-0.0","657","","","","50","1,1,0","6","blank","342","null","0.8422088860081769","0.40192965305384964","0.1562579315528322","1","","","","","",""
"","do_trial","424","2482295","0.0-395.0-0.0","352.3000000715256","","","","50","1,1,0","6","blank","343","null","0.7618907952718152","0.40736909822038514","0.2522524922606911","1","","","","","",""
"","do_trial","425","2486196","0.0-396.0-0.0","359.8000000715256","","","","50","1,0,0","6","blank","344","null","0.8197305059010254","0.32827827597197795","0.1448739415362064","0","","","","","",""
"","do_recog","426","2488905","0.0-397.0-0.0","1199.8000000715256","","","","55","","","","345","probe-156","","","","","1","[object Object]","201","5","1",""
"","do_trial","427","2492837","0.0-398.0-0.0","397.89999997615814","","","","50","1,1,0","6","blank","346","null","0.8371167399022107","0.24536201979558356","0.14049961961872112","1","","","","","",""
"","do_trial","428","2496768","0.0-399.0-0.0","393.2999999523163","","","","50","1,1,0","6","blank","347","null","0.6008331699816067","0.40985185316585027","0.1769497722919885","1","","","","","",""
"","do_trial","429","2500868","0.0-400.0-0.0","565.8999999761581","","","","50","0,1,1","6","blank","348","null","0.439219410572094","0.5577791126525912","0.27860967099062084","1","","","","","",""
"","do_trial","430","2504899","0.0-401.0-0.0","486.5","","","","50","0,1,1","6","blank","349","null","0.2296879806721986","0.7340033409976304","0.427815849584552","1","","","","","",""
"","do_trial","431","2508782","0.0-402.0-0.0","332","","","","50","0,1,0","6","blank","350","null","0.21880500812605497","0.624626438202839","0.42804909839911426","1","","","","","",""
"","do_recog","432","2511292","0.0-403.0-0.0","986.7999999523163","","","","56","","","","351","probe-86","","","","","1","[object Object]","127","3","1",""
"","do_trial","433","2515253","0.0-404.0-0.0","419.7999999523163","","","","50","0,0,1","6","blank","352","null","0.1669836695455661","0.6046609446618918","0.3877224172672609","0","","","","","",""
"","do_recog","434","2517979","0.0-405.0-0.0","1211.5999999046326","","","","56","","","","353","probe-61","","","","","1","[object Object]","205","5","1",""
"","do_trial","435","2523599","0.0-406.0-0.0","2083.399999976158","","","","50","0,1,1","6","blank","354","null","0.16026617845416705","0.7641570847433222","0.32711036011220346","1","","","","","",""
"","do_recog","436","2526162","0.0-407.0-0.0","1051.7000000476837","","","","56","","","","355","probe-14","","","","","1","[object Object]","83","2","1",""
"","do_trial","437","2532168","0.0-408.0-0.0","2453.600000023842","","","","50","0,1,0","6","blank","356","null","0.06116678058238589","0.8098509913631458","0.44852287660327805","1","","","","","",""
"","do_trial","438","2536181","0.0-409.0-0.0","470.2000000476837","","","","50","0,1,1","6","blank","357","null","0.08102977974645427","0.8207613278763097","0.2761004545037757","1","","","","","",""
"","do_trial","439","2540166","0.0-410.0-0.0","419.2000000476837","","","","50","0,1,0","6","blank","358","null","0.05593821379982694","0.8026230557336556","0.3125727200769609","1","","","","","",""
"","do_trial","440","2544121","0.0-411.0-0.0","408.10000002384186","","","","50","0,0,1","6","blank","359","null","0.10735000889833135","0.8879255012355161","0.35210908675144","0","","","","","",""
"","do_trial","441","2547981","0.0-412.0-0.0","326.2000000476837","","","","50","0,1,0","6","blank","360","null","0.1789915834745616","0.8262083865579101","0.3564177437117085","1","","","","","",""
"","do_recog","442","2550409","0.0-413.0-0.0","918.2000000476837","","","","56","","","","361","probe-240","","","","","1","[object Object]","208","5","1",""
"","do_trial","443","2554503","0.0-414.0-0.0","545.1000000238419","","","","50","0,1,0","6","blank","362","null","0.1031148299766004","0.7569781555099537","0.3856121207050772","1","","","","","",""
"","do_recog","444","2557316","0.0-415.0-0.0","1297.8999999761581","","","","56","","","","363","probe-125","","","","","1","[object Object]","40","1","1",""
"","do_trial","445","2561484","0.0-416.0-0.0","627.5","","","","50","0,0,0","6","blank","364","null","0.0637435036905547","0.6251075197892914","0.4150005312999138","0","","","","","",""
"","do_recog","446","2564040","0.0-417.0-0.0","1044.3000000715256","","","","56","","","","365","probe-217","","","","","1","[object Object]","165","4","1",""
"","do_trial","447","2568208","0.0-418.0-0.0","620.8999999761581","","","","50","0,0,1","6","blank","366","null","0.05824462001094952","0.5601599553345473","0.5162986397903228","0","","","","","",""
"","do_recog","448","2570398","0.0-419.0-0.0","682.5","","","","56","","","","367","probe-36","","","","","1","[object Object]","81","2","1",""
"","do_trial","449","2574698","0.0-420.0-0.0","752.3000000715256","","","","50","0,0,0","6","blank","368","null","0.05515105014036811","0.6257588884066864","0.5336979310946184","0","","","","","",""
"","do_trial","450","2578595","0.0-421.0-0.0","356.60000002384186","","","","50","0,0,0","6","blank","369","null","0.10031339749738923","0.7783816252669948","0.5761220404398439","0","","","","","",""
"","do_recog","451","2581337","0.0-422.0-0.0","1228.7999999523163","","","","56","","","","370","probe-256","","","","","0","[object Object]","null","null","0",""
"","do_trial","452","2585490","0.0-423.0-0.0","611.7999999523163","","","","50","0,1,0","6","blank","371","null","0.08131006384290808","0.839550124025865","0.4863789675977086","1","","","","","",""
"","do_recog","453","2587784","0.0-424.0-0.0","782.5999999046326","","","","56","","","","372","probe-62","","","","","1","[object Object]","80","2","1",""
"","do_trial","454","2592200","0.0-425.0-0.0","878.1999999284744","","","","50","0,1,1","6","blank","373","null","0.0927463568701784","0.9162184752654081","0.5469262742639589","1","","","","","",""
"","do_trial","455","2596380","0.0-426.0-0.0","638","","","","50","0,1,1","6","blank","374","null","0.0537083119391243","0.9038054285150228","0.6111949200092862","1","","","","","",""
"","do_trial","456","2600459","0.0-427.0-0.0","536.8000000715256","","","","50","1,1,1","6","blank","375","null","0.10958812043513186","0.8404548169874927","0.5398026060922401","1","","","","","",""
"","do_recog","457","2602789","0.0-428.0-0.0","805.3999999761581","","","","56","","","","376","probe-205","","","","","1","[object Object]","167","4","1",""
"","do_trial","458","2607054","0.0-429.0-0.0","713.8999999761581","","","","50","1,1,1","6","blank","377","null","0.09233374927456942","1","0.6665599676170869","1","","","","","",""
"","do_trial","459","2610982","0.0-430.0-0.0","390.5","","","","50","0,1,0","6","blank","378","null","0.10762564071227279","0.832253531181321","0.5439349814520265","1","","","","","",""
"","do_trial","460","2615012","0.0-431.0-0.0","487.39999997615814","","","","50","0,1,0","6","blank","379","null","0.16921009761822522","0.8018376269590158","0.6072704401396073","1","","","","","",""
"","do_trial","461","2618949","0.0-432.0-0.0","402.59999990463257","","","","50","0,1,0","6","blank","380","null","0.11137550445838695","0.743959809347728","0.4145734155656681","1","","","","","",""
"","do_trial","462","2622942","0.0-433.0-0.0","455.10000002384186","","","","50","0,1,1","6","blank","381","null","0.19965253427129806","0.7645563642199535","0.3986010395372999","1","","","","","",""
"","do_trial","463","2626910","0.0-434.0-0.0","422.60000002384186","","","","50","0,1,1","6","blank","382","null","0.13435695473091097","0.7828232618982708","0.2616754347660532","1","","","","","",""
"","do_recog","464","2629488","0.0-435.0-0.0","1065.1999999284744","","","","56","","","","383","probe-162","","","","","1","[object Object]","209","5","1",""
"","do_trial","465","2633804","0.0-436.0-0.0","764.5","","","","50","0,1,0","6","blank","384","null","0.10133885149948124","0.7554605229758353","0.16414966917614401","1","","","","","",""
"","do_trial","466","2638099","0.0-437.0-0.0","759.2000000476837","","","","50","0,1,0","6","blank","385","null","0.15019015980816547","0.7777433413141803","0.2676385144146711","1","","","","","",""
"","do_trial","467","2641982","0.0-438.0-0.0","336.7000000476837","","","","50","0,1,0","6","blank","386","null","0.07091665079577564","0.91755438231493","0.2311152738351754","1","","","","","",""
"","do_trial","468","2645896","0.0-439.0-0.0","373.10000002384186","","","","50","0,1,1","6","blank","387","null","0.12994851168476212","0.867204472329024","0.3439593665071338","1","","","","","",""
"","do_recog","469","2648459","0.0-440.0-0.0","1057.7000000476837","","","","56","","","","388","probe-178","","","","","1","[object Object]","203","5","1",""
"","do_trial","470","2653053","0.0-441.0-0.0","1058.7000000476837","","","","50","0,1,1","6","blank","389","null","0.2949445693095193","0.6695810654849649","0.20895246998530673","1","","","","","",""
"","do_recog","471","2655886","0.0-442.0-0.0","1316.1000000238419","","","","56","","","","390","probe-35","","","","","1","[object Object]","45","1","1",""
"","do_trial","472","2659948","0.0-443.0-0.0","519.3999999761581","","","","50","1,1,0","6","blank","391","null","0.6636702897620249","0.547883440827443","0.067164038526714","1","","","","","",""
"","do_recog","473","2662612","0.0-444.0-0.0","1146.2999999523163","","","","56","","","","392","probe-181","","","","","1","[object Object]","41","1","1",""
"","do_trial","474","2666906","0.0-445.0-0.0","745.8000000715256","","","","50","1,0,0","6","blank","393","null","0.7779807301285755","0.3324691662947318","0.07385928317453275","0","","","","","",""
"","do_recog","475","2669599","0.0-446.0-0.0","1180.5","","","","56","","","","394","probe-46","","","","","1","[object Object]","168","4","1",""
"","do_trial","476","2674988","0.0-447.0-0.0","1843.8999999761581","","","","50","0,1,0","6","blank","395","null","0.6204774912043065","0.4393639719566448","0.1327562429206372","1","","","","","",""
"","do_recog","477","2677598","0.0-448.0-0.0","1096.7000000476837","","","","56","","","","396","probe-253","","","","","0","[object Object]","null","null","0",""
