"success","trial_type","trial_index","time_elapsed","internal_node_id","rt","stimulus","key_press","subject_id","response","choice_outcomes","context_n","context_img_id","trial_n","probe_img_id","pR_red","pR_white","pR_black","outcome","is_valid","image_to_show","probed_trial","probed_context","correct","context_id"
"true","fullscreen","0","8436","0.0-0.0","","","","","","","","","","","","","","","","","","","",""
"","pavlovia","1","8441","0.0-1.0","","","","","","","","","","","","","","","","","","","",""
"","html-keyboard-response","2","36785","0.0-2.0","28341.60000014305","<div class='center'><p>Welcome! This experiment will last ~1 hour. In this experiment, you are the head captain of a pirate ship traveling around the world to different places. You will complete several different tasks during this experiment. Here is an overview of these tasks:</p><br><p>1. Tutorial and quiz</p><p>2. Pick a pirate game in 6 different places</p><p>3. Pick a pirate game and memory game</p><p>4. Final questions and payment</p><br><p>If you complete the entire experiment, you will receive $15 and a possible bonus payment.</p><p><b>[Press the space bar to begin the tutorial]</b></p></div>","32","61103243f944aa6bcb4f7a3a","","","","","","","","","","","","","","","",""
"","html-keyboard-response","3","49383","0.0-3.0","12597.299999952316","<div class='center'><p>You are the head captain of a pirate ship.</p><p> Your pirates rob other ships as they leave the marketplace port.</p> These ships have just sold all their goods at the marketplace, so they have lots and lots of gold on them.</p><p><img src='run_exp/static/images/ship_center.png' height='400'></p><p><b>[Press the space bar to continue]</b></p></div>","32","","","","","","","","","","","","","","","","",""
"","html-keyboard-response","4","73087","0.0-4.0","23709.400000095367","<div class='center'><p>As the head captain, you do not have to rob any ships yourself.</p><p>You get to choose which pirate you want to rob the next ship. </p><p>If they are successful at robbing the ship, then you will get gold coins.</p><p> If they are not successful, then you will get no gold coins.</p><p> The more coins you collect, the more bonus money you will win. So, choose your pirate wisely.</p><p><img src='run_exp/static/images/goal.png' height='400'></p><p><b>[Press the space bar to continue]</b></p><div>","32","","","","","","","","","","","","","","","","",""
"","html-keyboard-response","5","94348","0.0-5.0","21258.900000095367","<div class='center'><p>Even the most skilled pirate will not be able to rob EVERY ship.</p><p> Some ships will have very strong defenses against attacks.</p><p> For example, blue beard, here,  is very good at robbing ships.</p><p> You can press the <b>‘1’</b> button on the keyboard to choose him.</p><p> Try choosing him 10 times to see how often he is successful at robbing ships. </p><p><img src='run_exp/static/images/blue.png' height='500'></p></div>","49","","","","","","","","","","","","","","","","",""
"","html-keyboard-response","6","95860","0.0-6.0","null","<br><br><br><br><p><img src='run_exp/static/images/blue_win.png' height='500'></p>","null","","","","","","","","","","","","","","","","",""
"","html-keyboard-response","7","99557","0.0-7.0","3694.899999856949","<br><br><br><br><p><img src='run_exp/static/images/blue.png' height='500'></p>","49","","","","","","","","","","","","","","","","",""
"","html-keyboard-response","8","101064","0.0-8.0","null","<br><br><br><br><p><img src='run_exp/static/images/blue_win.png' height='500'></p>","null","","","","","","","","","","","","","","","","",""
"","html-keyboard-response","9","101827","0.0-9.0","761.2000000476837","<br><br><br><br><p><img src='run_exp/static/images/blue.png' height='500'></p>","49","","","","","","","","","","","","","","","","",""
"","html-keyboard-response","10","103342","0.0-10.0","null","<br><br><br><br><p><img src='run_exp/static/images/blue_win.png' height='500'></p>","null","","","","","","","","","","","","","","","","",""
"","html-keyboard-response","11","103967","0.0-11.0","623.5999999046326","<br><br><br><br><p><img src='run_exp/static/images/blue.png' height='500'></p>","49","","","","","","","","","","","","","","","","",""
"","html-keyboard-response","12","105479","0.0-12.0","null","<br><br><br><br><p><img src='run_exp/static/images/blue_no_win.png' height='500'></p>","null","","","","","","","","","","","","","","","","",""
"","html-keyboard-response","13","106128","0.0-13.0","647.7000000476837","<br><br><br><br><p><img src='run_exp/static/images/blue.png' height='500'></p>","49","","","","","","","","","","","","","","","","",""
"","html-keyboard-response","14","107636","0.0-14.0","null","<br><br><br><br><p><img src='run_exp/static/images/blue_win.png' height='500'></p>","null","","","","","","","","","","","","","","","","",""
"","html-keyboard-response","15","108137","0.0-15.0","499.2000000476837","<br><br><br><br><p><img src='run_exp/static/images/blue.png' height='500'></p>","49","","","","","","","","","","","","","","","","",""
"","html-keyboard-response","16","109643","0.0-16.0","null","<br><br><br><br><p><img src='run_exp/static/images/blue_win.png' height='500'></p>","null","","","","","","","","","","","","","","","","",""
"","html-keyboard-response","17","110037","0.0-17.0","393","<br><br><br><br><p><img src='run_exp/static/images/blue.png' height='500'></p>","49","","","","","","","","","","","","","","","","",""
"","html-keyboard-response","18","111551","0.0-18.0","null","<br><br><br><br><p><img src='run_exp/static/images/blue_win.png' height='500'></p>","null","","","","","","","","","","","","","","","","",""
"","html-keyboard-response","19","112017","0.0-19.0","464.7000000476837","<br><br><br><br><p><img src='run_exp/static/images/blue.png' height='500'></p>","49","","","","","","","","","","","","","","","","",""
"","html-keyboard-response","20","113532","0.0-20.0","null","<br><br><br><br><p><img src='run_exp/static/images/blue_no_win.png' height='500'></p>","null","","","","","","","","","","","","","","","","",""
"","html-keyboard-response","21","113816","0.0-21.0","283.2000000476837","<br><br><br><br><p><img src='run_exp/static/images/blue.png' height='500'></p>","49","","","","","","","","","","","","","","","","",""
"","html-keyboard-response","22","115327","0.0-22.0","null","<br><br><br><br><p><img src='run_exp/static/images/blue_win.png' height='500'></p>","null","","","","","","","","","","","","","","","","",""
"","html-keyboard-response","23","116067","0.0-23.0","739","<br><br><br><br><p><img src='run_exp/static/images/blue.png' height='500'></p>","49","","","","","","","","","","","","","","","","",""
"","html-keyboard-response","24","117571","0.0-24.0","null","<br><br><br><br><p><img src='run_exp/static/images/blue_win.png' height='500'></p>","null","","","","","","","","","","","","","","","","",""
"","html-keyboard-response","25","121218","0.0-25.0","3646","<div class='center'><p> See, he was successful at robbing the ships most of the time but not every time. </p><p><b>[Press the space bar to continue]</b></p></div>","32","","","","","","","","","","","","","","","","",""
"","html-keyboard-response","26","141446","0.0-26.0","20218.60000014305","<div class='center'><p>In the game, you will get to choose which of three pirates you want to rob the next ship. <p>Press the <b>‘1’</b> button on your keyboard to pick the pirate with the red beard.</p><p> Press <b>‘2’</b> to pick the pirate with the white beard.</p><p> Press <b>‘3’</b> to pick the pirate with the black beard.</p><p>Try picking a pirate now!</p><p><img src='run_exp/static/images/all_pirates.png' height='500'></p></div>","50","","","","","","","","","","","","","","","","",""
"","html-keyboard-response","27","143656","0.0-27.0-0.0","2207.4000000953674","<div class='center'><p>This pirate was successful at robbing the ship!</p><p><img src='run_exp/static/images/white_win.png' height='500'></p><p><b>[Press the space bar to continue]</b></p></div>","32","","","","","","","","","","","","","","","","",""
"","html-keyboard-response","28","148076","0.0-27.0-1.0","4419.299999952316","<div class='center'><p>Now try choosing another</p><p><img src='run_exp/static/images/all_pirates.png' height='500'></p></div>","51","","","","","","","","","","","","","","","","",""
"","html-keyboard-response","29","150406","0.0-28.0-0.0","2328.399999856949","<div class='center'><p>This pirate was not successful at robbing the ship!</p><p><img src='run_exp/static/images/black_no_win.png' height='500'></p><p><b>[Press the space bar to continue]</b></p></div>","32","","","","","","","","","","","","","","","","",""
"","html-keyboard-response","30","156186","0.0-29.0-0.0","5779.600000143051","<div class='center'><p>You’ll stop at these 6 places on your journey.</p><p><img src='run_exp/static/images/all_contexts.png' height='500'></p><p><b>[Press the space bar to continue]</b></p></div>","32","","","","","","","","","","","","","","","","",""
"","html-keyboard-response","31","168986","0.0-29.0-1.0","12799.899999856949","<div class='center'><p>How good a pirate is at robbing ships will depend on the current place.</p><p> Some pirates will have been to the place before, and will have more experience robbing ships there.</p><p>So, they will be more successful at stealing gold and bringing it back to you.</p><p><b>[Press the space bar to continue]</b></p></div>","32","","","","","","","","","","","","","","","","",""
"","html-keyboard-response","32","190587","0.0-29.0-2.0","21599.799999952316","<div class='center'><p>How successful a pirate is at robbing ships can also change in a place.<p> Ships may hear about the pirates coming and will improve their defenses. This may make it more difficult to rob them.</p><p> Ships may also grow lazy and lower their defenses. This may make it easier to rob them.</p><br><p>Things are always changing on the high seas! So, try your best to pay attention!</p><p><img src='run_exp/static/images/contingency.png' height='500'></p><p><b>[Press the space bar to continue]</b></p></div>","32","","","","","","","","","","","","","","","","",""
"","html-keyboard-response","33","254077","0.0-29.0-3.0","63489.699999809265","<div class='center'><p>Once you choose a pirate to rob a ship, you’ll be shown the ship they are robbing.</p><p>The ship will have a picture of the item they sold at the marketplace.</p><p> Try your best to remember the ship and where you saw the ship.</p><p> You’ll have to remember this for later, and remembering this correctly will help you win more bonus money!</p><p>You can remember the ship by remembering the item they sold at the marketplace</p><p>A helpful strategy is to try to come up with a story of the chosen pirate and ship’s item interacting with the scene.</p><p> For example, a ship might have sold travel mugs and you could imagine red beard walking through the city with a travel mug. </p><p>Or imagine an apple falling from a tree into white beard's hands in the forest.</p><p><img src='run_exp/static/images/example_probe.png' height='500'></p><p><b>[Press the space bar to continue]</b></p></div>","32","","","","","","","","","","","","","","","","",""
"","html-keyboard-response","34","263963","0.0-29.0-4.0","9885.800000190735","<div class='center'><p>If you don’t make your choice fast enough, you’ll have to wait a few seconds before you can make another one. </p><p>You can’t win more gold. You just have to sit and wait.</p><p><img src='run_exp/static/images/hurry_up.png' height='500'></p><p><b>[Press the space bar to continue]</b></p></div>","32","","","","","","","","","","","","","","","","",""
"","html-keyboard-response","35","328361","0.0-29.0-5.0","64396.199999809265","<div class='center'><p>Again, you have two important things to do: </p><b><p> 1. Pick the pirate who you think will be most successful at robbing the next ship.</p></b><b><p> 2. Remember where a pirate robbed a ship.</p> </b><p>Both are important in determining how much bonus money you’ll win.</p><br><p>Let’s try a practice game. The game will start by showing you the pirates. First pick a pirate using the <b> 1, 2, 3 </b> buttons on your keyboard. When you are shown a ship, try to remember the place you’re in by making up a story.</p><p> You only have 3 seconds to pick a pirate, so please make a choice quickly! If you are too slow, you’ll have to wait a bit during the time out.</p><p> Don’t feel rushed, but please do try to make a choice every time.</p><p>How good a pirate is at robbing a ship will change depending on the place they are in and how good the defenses are of the ship.</p> <p>This is just a practice game, so you’re not playing for money. </p><p>You’ll receive a bag which may or may not contain gold coins.</p><p> In the real game, though, you’ll be able to see whether or not you received the gold coins.</p><p> Good luck, remember press <b>'1'</b> to choose red beard, <b>'2'</b> to choose white beard, and <b>'3'</b> to choose black beard</p><p><b>[Press the space bar to begin the practice game]</b></p></div>","32","","","","","","","","","","","","","","","","",""
"","do_trial_prac","36","334821","0.0-29.0-6.0","1935.7000000476837","","","","51","","","","","","","","","","","","","","",""
"","do_trial_prac","37","342067","0.0-29.0-7.0","2728.899999856949","","","","50","","","","","","","","","","","","","","",""
"","do_trial_prac","38","347707","0.0-29.0-8.0","1133.2000000476837","","","","49","","","","","","","","","","","","","","",""
"","do_trial_prac","39","354162","0.0-29.0-9.0","1942.4000000953674","","","","50","","","","","","","","","","","","","","",""
"","do_trial_prac","40","359997","0.0-29.0-10.0","1327.7000000476837","","","","50","","","","","","","","","","","","","","",""
"","html-keyboard-response","41","368066","0.0-29.0-11.0","8067.299999952316","<div class='center'><p>Great job on the practice game!</p><p> Now, you will be asked you some true or false questions to make sure you really understand the rules of the game.</p><p> Press <b>'1'</b> on the keyboard for true and press <b>'2'</b> for false.</p><p><b>[Press the space bar to begin the quiz]</b></p></div>","32","","","","","","","","","","","","","","","","",""
"","html-keyboard-response","42","371445","0.0-29.0-12.0","3378.7000000476837","<div class='center'><p>You win bonus money by making choices as fast as possible.</p><p>Press 1 for true and press  2 for false.</p></div>","50","","","","","","","","","","","","","","","","",""
"","html-keyboard-response","43","372845","0.0-30.0-0.0","1398.9000000953674","<br><br><br><br><p>That's correct!</p> <p><b>[press the space bar to continue with the quiz]</b></p>","32","","","","","","","","","","","","","","","","",""
"","html-keyboard-response","44","380666","0.0-30.0-1.0","7819.900000095367","<div class='center'><p>You press the <b>‘3’</b> button on the keyboard to choose the red bearded pirate? </p><p>Press 1 for true and press  2 for false.</p></div>","50","","","","","","","","","","","","","","","","",""
"","html-keyboard-response","45","381985","0.0-31.0-0.0","1318.2000000476837","<br><br><br><br><p>That's correct!</p> <p><b>[press the space bar to continue with the quiz]</b></p>","32","","","","","","","","","","","","","","","","",""
"","html-keyboard-response","46","385735","0.0-31.0-1.0","3749.4000000953674","<div class='center'><p>A pirate will always be equally successful at robbing ships in each place</p><p>Press 1 for true and press  2 for false.</p></div>","50","","","","","","","","","","","","","","","","",""
"","html-keyboard-response","47","386945","0.0-32.0-0.0","1208.7999999523163","<br><br><br><br><p>That's correct!</p> <p><b>[press the space bar to continue with the quiz]</b></p>","32","","","","","","","","","","","","","","","","",""
"","html-keyboard-response","48","389656","0.0-32.0-1.0","2719.7000000476837","<div class='center'><p>You should remember the place where a pirate robbed a ship.</p><p>Press 1 for true and press  2 for false.</p></div>","49","","","","","","","","","","","","","","","","",""
"","html-keyboard-response","49","390477","0.0-33.0-0.0","806.4000000953674","<br><br><br><br><p>That's correct!</p> <p><b>[press the space bar to continue with the quiz]</b></p>","32","","","","","","","","","","","","","","","","",""
"","html-keyboard-response","50","392537","0.0-34.0-0.0","2059","<br><br><br><br><p>Good job! You’re now ready to move on to the real game!</p> <p><br>[press the space bar to begin!]</br></p>","32","","","","","","","","","","","","","","","","",""
"","do_welcome","51","394054","0.0-35.0-0.0","null","","","","null","","","","","","","","","","","","","","",""
"","do_trial","52","401447","0.0-36.0-0.0","1805.2999999523163","","","","49","1,1,0","0","city","0","probe-38","1","0.4","0.1","1","","","","","",""
"","do_trial","53","409052","0.0-37.0-0.0","2026.7999999523163","","","","50","1,0,0","0","city","1","probe-34","1","0.37467661081772763","0.09055569062261358","0","","","","","",""
"","do_trial","54","415758","0.0-38.0-0.0","1119.5999999046326","","","","49","1,0,0","0","city","2","probe-67","1","0.38715600393685895","0.05708962076794738","1","","","","","",""
"","do_trial","55","423521","0.0-39.0-0.0","2176.600000143051","","","","51","1,0,0","0","city","3","probe-214","1","0.3178797030239469","0.13953915164569108","0","","","","","",""
"","do_trial","56","429969","0.0-40.0-0.0","873.5","","","","49","1,0,0","0","city","4","probe-217","0.9419721628893036","0.37568092158805777","0.0662162252394403","1","","","","","",""
"","do_trial","57","436394","0.0-41.0-0.0","847.0999999046326","","","","49","1,0,0","0","city","5","probe-72","0.8884229406546432","0.4238731466478912","0.11809291580992838","1","","","","","",""
"","do_trial","58","442912","0.0-42.0-0.0","939.7999999523163","","","","49","1,1,0","0","city","6","probe-190","0.8047454987361835","0.40010170092210096","0.08400934408425068","1","","","","","",""
"","do_trial","59","450032","0.0-43.0-0.0","1524.6999998092651","","","","49","1,0,0","0","city","7","probe-117","0.8481850044588682","0.4910562122261945","0.08313048082340284","1","","","","","",""
"","do_trial","60","457157","0.0-44.0-0.0","1547.7000000476837","","","","49","1,0,0","0","city","8","probe-173","0.6618062256277837","0.4353672563025521","0.12297481973573357","1","","","","","",""
"","do_trial","61","463642","0.0-45.0-0.0","902.5","","","","49","1,0,0","0","city","9","probe-60","0.8336422730221063","0.34019863115158844","0.05350212983957556","1","","","","","",""
"","do_trial","62","470383","0.0-46.0-0.0","1156","","","","49","0,0,0","0","city","10","probe-69","0.3341711343173695","0.2991681989227843","0.34690489455096535","0","","","","","",""
"","do_trial","63","477300","0.0-47.0-0.0","1338","","","","49","0,0,0","0","city","11","probe-09","0.28875318606333045","0.3365877156074602","0.2832635804490902","0","","","","","",""
"","do_trial","64","483877","0.0-48.0-0.0","997.7999999523163","","","","50","0,1,0","0","city","12","probe-51","0.3190237189162902","0.5226548784995144","0.5545656429152518","1","","","","","",""
"","do_trial","65","491368","0.0-49.0-0.0","1911","","","","50","0,0,1","0","city","13","probe-99","0.22355392481914407","0.5487889494775593","0.5876085880346432","0","","","","","",""
"","do_trial","66","497538","0.0-50.0-0.0","590.7000000476837","","","","51","0,0,0","0","city","14","probe-132","0.14230882907197248","0.4902742722721208","0.6649433034616803","0","","","","","",""
"","do_trial","67","503420","0.0-51.0-0.0","300.59999990463257","","","","49","0,1,1","0","city","15","probe-160","0.15411571046130784","0.4621573577799095","0.5363210673572193","0","","","","","",""
"","do_trial","68","509565","0.0-52.0-0.0","559.2999999523163","","","","50","0,1,1","0","city","16","probe-106","0.05485239625185839","0.35618517447203407","0.6693699785183506","1","","","","","",""
"","do_trial","69","515691","0.0-53.0-0.0","575.1000001430511","","","","50","0,1,1","0","city","17","probe-187","0.12934148012570165","0.6047363744490578","0.6479009166920454","1","","","","","",""
"","do_trial","70","521846","0.0-54.0-0.0","566.4000000953674","","","","50","0,0,1","0","city","18","probe-04","0.13642200346033817","0.430423936442655","0.7347767721409088","0","","","","","",""
"","do_trial","71","528166","0.0-55.0-0.0","732.8000001907349","","","","49","0,0,1","0","city","19","probe-120","0.3071675960398342","0.40497621378964727","0.6800338597979197","0","","","","","",""
"","do_trial","72","534382","0.0-56.0-0.0","630.7000000476837","","","","50","0,1,1","0","city","20","probe-56","0.2514906799767748","0.3337180725835785","0.5944457108700377","1","","","","","",""
"","do_trial","73","541104","0.0-57.0-0.0","1147.8000001907349","","","","50","1,0,0","0","city","21","probe-192","0.2363907328193578","0.3698498069145362","0.6310036316017859","0","","","","","",""
"","do_trial","74","546983","0.0-58.0-0.0","292.39999985694885","","","","51","0,0,1","0","city","22","probe-232","0.2158950858994423","0.24090560748935658","0.6217861869932672","1","","","","","",""
"","do_trial","75","553310","0.0-59.0-0.0","744.6999998092651","","","","51","0,0,1","0","city","23","probe-30","0.27049468234687146","0.2507150474011049","0.7717107638323906","1","","","","","",""
"","do_trial","76","559647","0.0-60.0-0.0","757.9000000953674","","","","51","0,0,1","0","city","24","probe-168","0.18484261537407895","0.4055541739259442","0.7183339988302142","1","","","","","",""
"","do_trial","77","566159","0.0-61.0-0.0","920.5999999046326","","","","51","0,0,1","0","city","25","probe-142","0.12610487551888755","0.3272800501959145","0.7323550787418093","1","","","","","",""
"","do_trial","78","572837","0.0-62.0-0.0","1097.2999999523163","","","","51","0,1,0","0","city","26","probe-216","0.2196898721556176","0.4592232931421195","0.7403842413963726","0","","","","","",""
"","do_trial","79","579566","0.0-63.0-0.0","1152","","","","49","0,1,1","0","city","27","probe-115","0.07461892587853061","0.5279133659925868","0.81152126038802","0","","","","","",""
"","do_trial","80","585751","0.0-64.0-0.0","592.5999999046326","","","","51","0,1,1","0","city","28","probe-223","0.12931018850327197","0.43563235523939525","0.8248020444560112","1","","","","","",""
"","do_trial","81","591985","0.0-65.0-0.0","659.3999998569489","","","","51","0,0,1","0","city","29","probe-93","0.11622328100025543","0.4852320491635239","0.8342910142361702","1","","","","","",""
"","do_trial","82","599253","0.0-66.0-0.0","1693.6000001430511","","","","51","0,1,1","0","city","30","probe-195","0.24332195811160287","0.4262145305126994","0.7811097322741284","1","","","","","",""
"","do_trial","83","606028","0.0-67.0-0.0","1196.7999999523163","","","","51","1,1,1","0","city","31","probe-20","0.18177644359320674","0.3814716898980812","0.8039803866254633","1","","","","","",""
"","do_trial","84","612765","0.0-68.0-0.0","1160.7000000476837","","","","51","1,0,1","0","city","32","probe-193","0.11940269826123075","0.3966752636918569","0.8630693151400276","1","","","","","",""
"","do_trial","85","619833","0.0-69.0-0.0","1486.3000001907349","","","","51","0,1,1","0","city","33","probe-164","0.1986701524417768","0.49913095213230807","0.9472887054259337","1","","","","","",""
"","do_trial","86","626809","0.0-70.0-0.0","1395.8999998569489","","","","51","0,0,1","0","city","34","probe-54","0.07842709194056426","0.2068678137211212","0.9130781287531509","1","","","","","",""
"","do_trial","87","634194","0.0-71.0-0.0","1810.6999998092651","","","","51","1,0,1","0","city","35","probe-146","0.19288874490517877","0.36751919087704066","0.7390171202562852","1","","","","","",""
"","do_trial","88","640346","0.0-72.0-0.0","567.0999999046326","","","","51","0,1,1","0","city","36","probe-236","0.26158415537198776","0.4440411510967844","0.763442918215271","1","","","","","",""
"","do_trial","89","646624","0.0-73.0-0.0","703.0999999046326","","","","51","0,1,1","0","city","37","probe-158","0.23951020778027307","0.5235162239599772","0.7652176957366059","1","","","","","",""
"","do_trial","90","653025","0.0-74.0-0.0","825.7999999523163","","","","51","1,1,1","0","city","38","probe-201","0.35634515700062913","0.41636879116830655","0.9436280595318438","1","","","","","",""
"","do_trial","91","659473","0.0-75.0-0.0","866.7000000476837","","","","51","0,0,1","0","city","39","probe-66","0.26584885979048606","0.5724989359036232","0.8254394418254241","1","","","","","",""
"","do_bye","92","660994","0.0-76.0-0.0","null","","","","null","","","","","","","","","","","","","","",""
"","do_travel","93","667009","0.0-77.0-0.0","null","","","","null","","","","","","","","","","","","","","",""
"","do_welcome","94","668528","0.0-77.0-1.0","null","","","","null","","","","","","","","","","","","","","",""
"","do_trial","95","675526","0.0-78.0-0.0","1423","","","","50","0,0,1","1","mountain","40","probe-57","0.22956893015238403","0.6351212777500388","1","0","","","","","",""
"","do_trial","96","681602","0.0-79.0-0.0","495.89999985694885","","","","49","0,1,1","1","mountain","41","probe-212","0.2621791605107592","0.5639191831567587","1","0","","","","","",""
"","do_trial","97","687689","0.0-80.0-0.0","499.90000009536743","","","","51","0,1,1","1","mountain","42","probe-45","0.1375517195662371","0.4422386903914848","1","1","","","","","",""
"","do_trial","98","693766","0.0-81.0-0.0","492.40000009536743","","","","51","0,0,1","1","mountain","43","probe-76","0.07571935686399936","0.39924436415292336","1","1","","","","","",""
"","do_trial","99","700122","0.0-82.0-0.0","776.2999999523163","","","","51","0,0,1","1","mountain","44","probe-154","0.12657227986815253","0.4606480756261858","0.8834786905207237","1","","","","","",""
"","do_trial","100","707871","0.0-83.0-0.0","2168.2000000476837","","","","51","0,1,1","1","mountain","45","probe-08","0.09995310169024084","0.2549905994604136","0.7519034060263732","1","","","","","",""
"","do_trial","101","714413","0.0-84.0-0.0","960.7999999523163","","","","51","0,1,1","1","mountain","46","probe-228","0.11424203044445433","0.1982047233419429","0.736898096741536","1","","","","","",""
"","do_trial","102","720646","0.0-85.0-0.0","643.1999998092651","","","","51","0,0,1","1","mountain","47","probe-110","0.16640023749121888","0.31779309193656213","0.6850435491800693","1","","","","","",""
"","do_trial","103","726959","0.0-86.0-0.0","706.4000000953674","","","","51","0,0,1","1","mountain","48","probe-231","0.06481792777925785","0.29637809364960505","0.7895266633471156","1","","","","","",""
"","do_trial","104","733249","0.0-87.0-0.0","712.3000001907349","","","","51","0,1,1","1","mountain","49","probe-233","0.05644545631177314","0.4846809686033144","0.7959096318008028","1","","","","","",""
"","do_trial","105","739609","0.0-88.0-0.0","784.7000000476837","","","","51","1,0,0","1","mountain","50","probe-44","0.3117179418796172","0.5199164644616747","0.43492456629160264","0","","","","","",""
"","do_trial","106","746368","0.0-89.0-0.0","1184.4000000953674","","","","50","0,0,0","1","mountain","51","probe-170","0.511396315796001","0.5924203072554516","0.20584957805361698","0","","","","","",""
"","do_trial","107","752206","0.0-90.0-0.0","264.60000014305115","","","","49","1,0,0","1","mountain","52","probe-82","0.6946490457230103","0.5581377854560888","0.09610145478086438","1","","","","","",""
"","do_trial","108","758156","0.0-91.0-0.0","376.39999985694885","","","","49","1,0,1","1","mountain","53","probe-227","0.6004764327139367","0.5490425374506164","0.20869147070075098","1","","","","","",""
"","do_trial","109","764401","0.0-92.0-0.0","666.6000001430511","","","","49","1,1,0","1","mountain","54","probe-202","0.6907405767568588","0.5907468150491237","0.2720806591224077","1","","","","","",""
"","do_trial","110","770337","0.0-93.0-0.0","358.7000000476837","","","","49","1,1,0","1","mountain","55","probe-10","0.8920775174796228","0.6137591982899389","0.27323778059926546","1","","","","","",""
"","do_trial","111","776469","0.0-94.0-0.0","557.5","","","","49","1,1,0","1","mountain","56","probe-188","0.8961572545953342","0.4269309046885333","0.23749719946195455","1","","","","","",""
"","do_trial","112","782740","0.0-95.0-0.0","683.5999999046326","","","","49","1,0,0","1","mountain","57","probe-63","0.8146891155016753","0.43416180464391796","0.07878918263791333","1","","","","","",""
"","do_trial","113","788909","0.0-96.0-0.0","583.0999999046326","","","","49","1,1,0","1","mountain","58","probe-98","0.8765656957860475","0.4785285052891338","0.07767403901826815","1","","","","","",""
"","do_trial","114","795108","0.0-97.0-0.0","612.7000000476837","","","","49","1,1,0","1","mountain","59","probe-62","0.7563563690557104","0.4233383232945721","0.17332757181853456","1","","","","","",""
"","do_trial","115","801470","0.0-98.0-0.0","772.9000000953674","","","","49","1,1,0","1","mountain","60","probe-01","0.7031555451685335","0.43688799134555334","0.07389154702690043","1","","","","","",""
"","do_trial","116","807548","0.0-99.0-0.0","491.59999990463257","","","","49","1,0,0","1","mountain","61","probe-161","0.8221101792397212","0.4230049366664291","0.06819655942935915","1","","","","","",""
"","do_trial","117","813581","0.0-100.0-0.0","454.2000000476837","","","","49","1,0,0","1","mountain","62","probe-15","0.7623614732054902","0.3649499768233187","0.12358921063486658","1","","","","","",""
"","do_trial","118","819835","0.0-101.0-0.0","672.2000000476837","","","","49","0,0,0","1","mountain","63","probe-196","0.821715027396849","0.30259176302243646","0.13973933686464093","0","","","","","",""
"","do_trial","119","826813","0.0-102.0-0.0","1398","","","","51","1,0,1","1","mountain","64","probe-226","0.7839825090861662","0.35656734771391757","0.17374575165433512","1","","","","","",""
"","do_trial","120","833066","0.0-103.0-0.0","678.7999999523163","","","","51","1,0,0","1","mountain","65","probe-100","0.8417390543902274","0.36045674210588824","0.19989517892144007","0","","","","","",""
"","do_trial","121","839114","0.0-104.0-0.0","464.69999980926514","","","","50","1,1,0","1","mountain","66","probe-16","0.829812473045684","0.5429097127611716","0.16485050414536187","1","","","","","",""
"","do_trial","122","845300","0.0-105.0-0.0","606.6000001430511","","","","50","1,1,1","1","mountain","67","probe-208","0.8352415656524766","0.7427147808532789","0.0916244641002823","1","","","","","",""
"","do_trial","123","851419","0.0-106.0-0.0","531.7000000476837","","","","50","1,1,0","1","mountain","68","probe-68","0.8417495225964478","0.6113212912319068","0.13580084749365962","1","","","","","",""
"","do_trial","124","857797","0.0-107.0-0.0","804","","","","50","1,1,0","1","mountain","69","probe-153","0.8067028740251624","0.5715140347755889","0.23283997091543285","1","","","","","",""
"","do_trial","125","863897","0.0-108.0-0.0","525.3000001907349","","","","50","1,1,0","1","mountain","70","probe-126","0.7876073441715964","0.4062381659224853","0.19352101013108391","1","","","","","",""
"","do_trial","126","870343","0.0-109.0-0.0","865.4000000953674","","","","50","1,1,0","1","mountain","71","probe-213","0.826262033803711","0.4649953900173373","0.056965329828610405","1","","","","","",""
"","do_trial","127","876817","0.0-110.0-0.0","890.5","","","","50","1,0,1","1","mountain","72","probe-174","0.7313620572702382","0.48655061534794936","0.1698221309682851","0","","","","","",""
"","do_trial","128","882965","0.0-111.0-0.0","564.1999998092651","","","","49","1,0,0","1","mountain","73","probe-112","0.7273936802966736","0.5948761841157943","0.08111839694281954","1","","","","","",""
"","do_trial","129","889052","0.0-112.0-0.0","497.09999990463257","","","","49","0,0,1","1","mountain","74","probe-224","0.6580129910993133","0.5332668923622528","0.0892065802098883","0","","","","","",""
"","do_trial","130","895016","0.0-113.0-0.0","379.5","","","","51","1,1,0","1","mountain","75","probe-59","0.7032834591442998","0.5276539181363181","0.05071506550249011","0","","","","","",""
"","do_trial","131","901000","0.0-114.0-0.0","405.7999999523163","","","","49","1,0,0","1","mountain","76","probe-48","0.8747937588361617","0.4467520940189323","0.0935497070133324","1","","","","","",""
"","do_trial","132","907081","0.0-115.0-0.0","490.39999985694885","","","","49","0,1,0","1","mountain","77","probe-85","0.712850791094523","0.4671978937193261","0.25214064759153637","0","","","","","",""
"","do_trial","133","913138","0.0-116.0-0.0","469.7000000476837","","","","50","1,1,1","1","mountain","78","probe-74","0.7675757892233007","0.4237386744804873","0.12592802752778018","1","","","","","",""
"","do_trial","134","919161","0.0-117.0-0.0","445.2000000476837","","","","50","0,1,1","1","mountain","79","probe-175","0.6869310089241006","0.5129151855626128","0.08508700429554648","1","","","","","",""
"","do_bye","135","920674","0.0-118.0-0.0","null","","","","null","","","","","","","","","","","","","","",""
"","do_travel","136","926682","0.0-119.0-0.0","null","","","","null","","","","","","","","","","","","","","",""
"","do_welcome","137","928190","0.0-119.0-1.0","null","","","","null","","","","","","","","","","","","","","",""
"","do_trial","138","935390","0.0-120.0-0.0","1611.8000001907349","","","","49","1,1,0","2","countryside","80","probe-103","1","0.5402797720982109","0.0594777949881835","1","","","","","",""
"","do_trial","139","941432","0.0-121.0-0.0","464.09999990463257","","","","49","1,1,0","2","countryside","81","probe-191","1","0.47572833237776285","0.05745903137191988","1","","","","","",""
"","do_trial","140","948645","0.0-122.0-0.0","1629.3000001907349","","","","49","1,1,0","2","countryside","82","probe-162","1","0.5105576468913856","0.20982785600834886","1","","","","","",""
"","do_trial","141","955464","0.0-123.0-0.0","1237.5999999046326","","","","49","1,1,0","2","countryside","83","probe-235","1","0.47390171962141653","0.18628392410186392","1","","","","","",""
"","do_trial","142","962094","0.0-124.0-0.0","1048.6000001430511","","","","49","1,0,0","2","countryside","84","probe-113","0.9401937723314506","0.463416370561973","0.1629476680060682","1","","","","","",""
"","do_trial","143","968634","0.0-125.0-0.0","958.7999999523163","","","","49","1,1,1","2","countryside","85","probe-108","0.8704693425218855","0.417971060470312","0.1384980495480475","1","","","","","",""
"","do_trial","144","974908","0.0-126.0-0.0","698.9000000953674","","","","49","1,1,0","2","countryside","86","probe-107","0.9039855597277514","0.2941213039539993","0.13313218023734727","1","","","","","",""
"","do_trial","145","981505","0.0-127.0-0.0","1014.2999999523163","","","","49","1,0,0","2","countryside","87","probe-206","0.7991001104987351","0.3599248298556491","0.13136014500205925","1","","","","","",""
"","do_trial","146","987620","0.0-128.0-0.0","538.6000001430511","","","","49","0,1,0","2","countryside","88","probe-122","0.8313251334742054","0.29969298254153776","0.15508252515429957","0","","","","","",""
"","do_trial","147","993931","0.0-129.0-0.0","724.5999999046326","","","","50","1,0,0","2","countryside","89","probe-204","0.7842260362292038","0.3187793698265533","0.07131566638343294","0","","","","","",""
"","do_trial","148","1000381","0.0-130.0-0.0","872","","","","51","0,0,1","2","countryside","90","probe-200","0.6500403558100161","0.1675478057413897","0.260756404558224","1","","","","","",""
"","do_trial","149","1006642","0.0-131.0-0.0","677.5999999046326","","","","51","1,0,1","2","countryside","91","probe-165","0.5001501245251952","0.12809753752028497","0.4141264731657591","1","","","","","",""
"","do_trial","150","1012681","0.0-132.0-0.0","461.7999999523163","","","","51","1,0,1","2","countryside","92","probe-28","0.37928658513896707","0.17507577671911073","0.5852190378316452","1","","","","","",""
"","do_trial","151","1018984","0.0-133.0-0.0","721.3000001907349","","","","51","0,1,1","2","countryside","93","probe-22","0.3094133802145937","0.24896976618516195","0.8012150000667763","1","","","","","",""
"","do_trial","152","1025484","0.0-134.0-0.0","918.4000000953674","","","","51","1,0,1","2","countryside","94","probe-95","0.38548006695125686","0.19677736217827332","0.8242091760718969","1","","","","","",""
"","do_trial","153","1031514","0.0-135.0-0.0","449.19999980926514","","","","51","0,1,1","2","countryside","95","probe-88","0.4133644182759862","0.12107200087431982","0.8047612647508495","1","","","","","",""
"","do_trial","154","1037811","0.0-136.0-0.0","710.5","","","","51","1,0,0","2","countryside","96","probe-102","0.45804711097591144","0.26199160214372086","0.7371428823326628","0","","","","","",""
"","do_trial","155","1043683","0.0-137.0-0.0","281.2000000476837","","","","50","1,0,1","2","countryside","97","probe-199","0.4399257925999634","0.14216555531971356","0.7262386893534603","0","","","","","",""
"","do_trial","156","1049741","0.0-138.0-0.0","480.39999985694885","","","","49","1,0,1","2","countryside","98","probe-141","0.45625922418770387","0.10519411971267588","0.6103705090555955","1","","","","","",""
"","do_trial","157","1056264","0.0-139.0-0.0","943.1000001430511","","","","49","1,0,1","2","countryside","99","probe-205","0.38297834351998605","0.12250351164036233","0.763635292606375","1","","","","","",""
"","do_trial","158","1062393","0.0-140.0-0.0","540.2999999523163","","","","49","1,0,0","2","countryside","100","probe-203","0.4184457413986337","0.18403163172042192","0.8183402908649606","1","","","","","",""
"","do_trial","159","1068682","0.0-141.0-0.0","711","","","","49","0,0,1","2","countryside","101","probe-89","0.3235079484444242","0.242754090144409","0.8528432148374099","0","","","","","",""
"","do_trial","160","1074572","0.0-142.0-0.0","302.59999990463257","","","","50","0,0,1","2","countryside","102","probe-184","0.4323060824238254","0.34597741762357737","0.8343023238674941","0","","","","","",""
"","do_trial","161","1080469","0.0-143.0-0.0","310.90000009536743","","","","51","0,0,1","2","countryside","103","probe-61","0.3483366870145761","0.2679696189950033","0.8420938195850765","1","","","","","",""
"","do_trial","162","1086503","0.0-144.0-0.0","443.90000009536743","","","","51","0,0,1","2","countryside","104","probe-128","0.526694025673894","0.06619107162881918","0.9388306911572508","1","","","","","",""
"","do_trial","163","1092518","0.0-145.0-0.0","432.2999999523163","","","","51","1,0,1","2","countryside","105","probe-155","0.552324451309153","0.13285569851591647","0.8692063709174954","1","","","","","",""
"","do_trial","164","1099364","0.0-146.0-0.0","1265.2000000476837","","","","51","0,0,1","2","countryside","106","probe-36","0.33306313884978606","0.28441601220163043","0.7985131311045918","1","","","","","",""
"","do_trial","165","1105511","0.0-147.0-0.0","562","","","","51","0,1,1","2","countryside","107","probe-189","0.17670964756319674","0.2947332907864525","0.9075062436681621","1","","","","","",""
"","do_trial","166","1111683","0.0-148.0-0.0","594.2000000476837","","","","51","0,0,1","2","countryside","108","probe-149","0.31829253583041894","0.17085160303822167","0.9443103509654063","1","","","","","",""
"","do_trial","167","1117682","0.0-149.0-0.0","412","","","","51","0,0,0","2","countryside","109","probe-32","0.31504116618703015","0.13610610675420742","0.8120535838238094","0","","","","","",""
"","do_trial","168","1123633","0.0-150.0-0.0","362.09999990463257","","","","50","0,0,0","2","countryside","110","probe-156","0.3180916528767145","0.056727897304833165","0.7874884711563326","0","","","","","",""
"","do_trial","169","1129563","0.0-151.0-0.0","341.89999985694885","","","","49","0,0,1","2","countryside","111","probe-186","0.26822359869806","0.16446822209036238","0.5969197351563321","0","","","","","",""
"","do_trial","170","1135547","0.0-152.0-0.0","401.7999999523163","","","","51","0,0,1","2","countryside","112","probe-207","0.334341546182253","0.18403468453374003","0.7058634128285385","1","","","","","",""
"","do_trial","171","1141633","0.0-153.0-0.0","507.10000014305115","","","","51","0,1,1","2","countryside","113","probe-121","0.2844528552765596","0.279433046145205","0.8365325526708071","1","","","","","",""
"","do_trial","172","1147721","0.0-154.0-0.0","511","","","","51","1,0,1","2","countryside","114","probe-148","0.22854569348446702","0.16711057983937308","0.7657365104979565","1","","","","","",""
"","do_trial","173","1154082","0.0-155.0-0.0","783.7999999523163","","","","51","1,0,0","2","countryside","115","probe-143","0.444006262967928","0.11699452733043846","0.7782961137843402","0","","","","","",""
"","do_trial","174","1159978","0.0-156.0-0.0","321.10000014305115","","","","50","1,0,1","2","countryside","116","probe-78","0.32274254162008853","0.07883289463762726","0.7868498709108823","0","","","","","",""
"","do_trial","175","1166028","0.0-157.0-0.0","476.69999980926514","","","","51","0,0,1","2","countryside","117","probe-234","0.27501009602359","0.09656274221693187","0.6733961629650539","1","","","","","",""
"","do_trial","176","1172116","0.0-158.0-0.0","506.90000009536743","","","","51","1,0,1","2","countryside","118","probe-05","0.2391214745794585","0.21109503846165864","0.7698272705028792","1","","","","","",""
"","do_trial","177","1178303","0.0-159.0-0.0","596.5999999046326","","","","51","1,0,0","2","countryside","119","probe-138","0.3000235455060746","0.0870143380115197","0.6386253564786364","0","","","","","",""
"","do_bye","178","1179813","0.0-160.0-0.0","null","","","","null","","","","","","","","","","","","","","",""
"","do_travel","179","1185820","0.0-161.0-0.0","null","","","","null","","","","","","","","","","","","","","",""
"","do_welcome","180","1187327","0.0-161.0-1.0","null","","","","null","","","","","","","","","","","","","","",""
"","do_trial","181","1194239","0.0-162.0-0.0","1330.7999999523163","","","","49","1,0,1","3","forest","120","probe-18","0.4280354861646929","0.0703664935176595","1","1","","","","","",""
"","do_trial","182","1200361","0.0-163.0-0.0","537.3999998569489","","","","49","1,0,1","3","forest","121","probe-91","0.3897979114172931","0.08049990296877033","1","1","","","","","",""
"","do_trial","183","1206931","0.0-164.0-0.0","996.3000001907349","","","","49","0,0,1","3","forest","122","probe-86","0.37965473805065847","0.11452203762743074","1","0","","","","","",""
"","do_trial","184","1212978","0.0-165.0-0.0","464.7000000476837","","","","49","1,0,1","3","forest","123","probe-03","0.3524240941691527","0.08510916081935159","1","1","","","","","",""
"","do_trial","185","1219657","0.0-166.0-0.0","1096.9000000953674","","","","49","1,0,1","3","forest","124","probe-144","0.3506782767601079","0.054705162046347504","0.8916269770039196","1","","","","","",""
"","do_trial","186","1225902","0.0-167.0-0.0","669.7000000476837","","","","49","0,0,1","3","forest","125","probe-125","0.3619080409656385","0.050249975462461176","0.8692886948746228","0","","","","","",""
"","do_trial","187","1231870","0.0-168.0-0.0","395.09999990463257","","","","49","0,0,1","3","forest","126","probe-140","0.5117913305383027","0.05755191359051155","0.7953271695898593","0","","","","","",""
"","do_trial","188","1237929","0.0-169.0-0.0","476","","","","50","1,0,1","3","forest","127","probe-87","0.4870611475654308","0.12650994588404313","0.8728056681662446","0","","","","","",""
"","do_trial","189","1243734","0.0-170.0-0.0","227","","","","51","0,0,0","3","forest","128","probe-215","0.42847204692772173","0.20701450322897516","0.9456705985689388","0","","","","","",""
"","do_trial","190","1249811","0.0-171.0-0.0","503.7999999523163","","","","49","0,1,1","3","forest","129","probe-221","0.3284586965071088","0.2295261483833315","0.869675380366395","0","","","","","",""
"","do_trial","191","1255891","0.0-172.0-0.0","504.7999999523163","","","","49","0,1,0","3","forest","130","probe-97","0.34719293447159044","0.4951383199871405","0.6688126440971389","0","","","","","",""
"","do_trial","192","1262015","0.0-173.0-0.0","543.7000000476837","","","","50","0,1,0","3","forest","131","probe-166","0.31468391546834773","0.6747794405730193","0.7012844955376838","1","","","","","",""
"","do_trial","193","1268186","0.0-174.0-0.0","579.7999999523163","","","","50","0,0,0","3","forest","132","probe-70","0.29257379521223936","0.7083620040444362","0.722512819476697","0","","","","","",""
"","do_trial","194","1274131","0.0-175.0-0.0","359.2999999523163","","","","50","0,0,0","3","forest","133","probe-151","0.09712211795101244","0.6298295482861364","0.5623245881377947","0","","","","","",""
"","do_trial","195","1279987","0.0-176.0-0.0","276.7999999523163","","","","51","0,0,0","3","forest","134","probe-147","0.1450942514488496","0.6168909856465061","0.40575752309405544","0","","","","","",""
"","do_trial","196","1286009","0.0-177.0-0.0","438.09999990463257","","","","51","0,1,0","3","forest","135","probe-104","0.2503642804029142","0.7306754064498497","0.4707983117214738","0","","","","","",""
"","do_trial","197","1292002","0.0-178.0-0.0","409.2000000476837","","","","49","0,0,1","3","forest","136","probe-24","0.17621570897190936","0.7503148933181842","0.470228818847417","0","","","","","",""
"","do_trial","198","1297930","0.0-179.0-0.0","344.59999990463257","","","","50","1,1,0","3","forest","137","probe-71","0.15080586826557446","0.8281191057929448","0.5127998319540349","1","","","","","",""
"","do_trial","199","1303821","0.0-180.0-0.0","307.09999990463257","","","","49","0,0,0","3","forest","138","probe-37","0.2015011459180389","0.7198612081828533","0.582079019734088","0","","","","","",""
"","do_trial","200","1309725","0.0-181.0-0.0","317.59999990463257","","","","50","0,1,0","3","forest","139","probe-129","0.2526115690754669","0.7896045238543417","0.618363357608108","1","","","","","",""
"","do_trial","201","1316031","0.0-182.0-0.0","721.7000000476837","","","","50","1,0,0","3","forest","140","probe-222","0.3487844990796141","0.7444171363382422","0.5211670726463925","0","","","","","",""
"","do_trial","202","1322344","0.0-183.0-0.0","737.4000000953674","","","","50","0,0,0","3","forest","141","probe-116","0.30309815865159884","0.8253615212669092","0.35257134810866236","0","","","","","",""
"","do_trial","203","1328212","0.0-184.0-0.0","292.2999999523163","","","","50","0,0,0","3","forest","142","probe-40","0.35595923579425276","0.809908997007268","0.3602902127872722","0","","","","","",""
"","do_trial","204","1334236","0.0-185.0-0.0","437.7999999523163","","","","49","1,1,0","3","forest","143","probe-07","0.3522191593132946","0.7942316730323666","0.42832123172811926","1","","","","","",""
"","do_trial","205","1340387","0.0-186.0-0.0","562.7999999523163","","","","49","1,0,1","3","forest","144","probe-111","0.2734951182936282","0.7621831962405368","0.5800652135236531","1","","","","","",""
"","do_trial","206","1346616","0.0-187.0-0.0","652.3999998569489","","","","49","0,1,0","3","forest","145","probe-197","0.19638357119530359","0.7867239383995553","0.6187297248147643","0","","","","","",""
"","do_trial","207","1352443","0.0-188.0-0.0","253.30000019073486","","","","49","0,0,1","3","forest","146","probe-06","0.10251231507192346","0.7411117201409632","0.7272091762191254","0","","","","","",""
"","do_trial","208","1358498","0.0-189.0-0.0","487.2999999523163","","","","49","0,1,0","3","forest","147","probe-39","0.058202355611527916","0.6402741269361586","0.5981605815199885","0","","","","","",""
"","do_trial","209","1364403","0.0-190.0-0.0","319.40000009536743","","","","50","0,1,1","3","forest","148","probe-178","0.06332904538267115","0.7826472116343642","0.5344012854259034","1","","","","","",""
"","do_trial","210","1370553","0.0-191.0-0.0","575.3999998569489","","","","50","0,1,1","3","forest","149","probe-46","0.06895133409829872","0.8228792414439172","0.4282309991299232","1","","","","","",""
"","do_trial","211","1377189","0.0-192.0-0.0","1054.7999999523163","","","","50","0,1,0","3","forest","150","probe-114","0.1261741323863757","0.9043514508914962","0.3653518678758193","1","","","","","",""
"","do_trial","212","1383091","0.0-193.0-0.0","329.69999980926514","","","","50","0,1,0","3","forest","151","probe-225","0.18093213876944333","0.6878190067691948","0.4112684283980111","1","","","","","",""
"","do_trial","213","1389260","0.0-194.0-0.0","584.6000001430511","","","","50","0,1,1","3","forest","152","probe-119","0.169713230097119","0.747808252850138","0.45768901923123323","1","","","","","",""
"","do_trial","214","1395685","0.0-195.0-0.0","837.7000000476837","","","","50","0,1,0","3","forest","153","probe-139","0.20112523604307964","0.650122620472582","0.5072074922805041","1","","","","","",""
"","do_trial","215","1401603","0.0-196.0-0.0","333.89999985694885","","","","50","0,1,0","3","forest","154","probe-31","0.1484276236482056","0.9092552160677376","0.5118945772783657","1","","","","","",""
"","do_trial","216","1408176","0.0-197.0-0.0","985.0999999046326","","","","50","1,1,1","3","forest","155","probe-21","0.19755466088152374","0.8585179998612441","0.4210415785061234","1","","","","","",""
"","do_trial","217","1415234","0.0-198.0-0.0","1483.9000000953674","","","","50","0,1,0","3","forest","156","probe-182","0.36688865209512167","0.7499057333120496","0.42618040755529274","1","","","","","",""
"","do_trial","218","1422300","0.0-199.0-0.0","1483.0999999046326","","","","50","0,0,1","3","forest","157","probe-130","0.1670362230875543","0.7275004261387593","0.3907682256803057","0","","","","","",""
"","do_trial","219","1428948","0.0-200.0-0.0","1072.2000000476837","","","","50","0,1,0","3","forest","158","probe-58","0.24614661532878976","0.8531072054985469","0.4494766210838508","1","","","","","",""
"","do_trial","220","1434953","0.0-201.0-0.0","417.80000019073486","","","","50","0,0,0","3","forest","159","probe-101","0.25004035880096964","0.7707568146037523","0.4994918073693451","0","","","","","",""
"","do_bye","221","1436472","0.0-202.0-0.0","null","","","","null","","","","","","","","","","","","","","",""
"","do_travel","222","1442484","0.0-203.0-0.0","null","","","","null","","","","","","","","","","","","","","",""
"","do_welcome","223","1444000","0.0-203.0-1.0","null","","","","null","","","","","","","","","","","","","","",""
"","do_trial","224","1450625","0.0-204.0-0.0","1048.9000000953674","","","","49","0,1,1","4","coast","160","probe-127","0.3287244809304222","1","0.5890444028581137","0","","","","","",""
"","do_trial","225","1456826","0.0-205.0-0.0","614.2999999523163","","","","51","0,1,1","4","coast","161","probe-79","0.2564418558743531","1","0.7000117205629297","1","","","","","",""
"","do_trial","226","1464685","0.0-206.0-0.0","2281.800000190735","","","","50","0,1,0","4","coast","162","probe-52","0.15692037844791462","1","0.5962771654501985","1","","","","","",""
"","do_trial","227","1470755","0.0-207.0-0.0","495.89999985694885","","","","50","1,1,0","4","coast","163","probe-172","0.16107914557154218","1","0.535197424997467","1","","","","","",""
"","do_trial","228","1477128","0.0-208.0-0.0","783.2999999523163","","","","50","0,1,0","4","coast","164","probe-210","0.07623147001381501","0.8448704859510509","0.4922444305256874","1","","","","","",""
"","do_trial","229","1484208","0.0-209.0-0.0","1500.4000000953674","","","","50","0,0,1","4","coast","165","probe-150","0.15846702327109793","0.8880850213149476","0.49659909298151655","0","","","","","",""
"","do_trial","230","1491047","0.0-210.0-0.0","1263.0999999046326","","","","50","0,1,1","4","coast","166","probe-229","0.12670251926546913","0.9350750365760037","0.41634882254085065","1","","","","","",""
"","do_trial","231","1497550","0.0-211.0-0.0","923.2000000476837","","","","50","0,1,0","4","coast","167","probe-137","0.15492936801319857","0.8972672059133332","0.4184352973089355","1","","","","","",""
"","do_trial","232","1504172","0.0-212.0-0.0","1039.1000001430511","","","","50","0,1,1","4","coast","168","probe-80","0.09406841344706872","0.9151057632727091","0.4534155591446909","1","","","","","",""
"","do_trial","233","1510906","0.0-213.0-0.0","1158.9000000953674","","","","50","0,1,1","4","coast","169","probe-96","0.1273066978323974","0.7821808795849644","0.4498723442248865","1","","","","","",""
"","do_trial","234","1517612","0.0-214.0-0.0","1123.2999999523163","","","","50","1,0,0","4","coast","170","probe-177","0.501969939234747","0.5971025765020523","0.44985018180023956","0","","","","","",""
"","do_trial","235","1524358","0.0-215.0-0.0","1159.2999999523163","","","","50","1,0,0","4","coast","171","probe-33","0.6530870075511105","0.33348099870732706","0.41054176423809735","0","","","","","",""
"","do_trial","236","1530359","0.0-216.0-0.0","409.5","","","","50","0,0,1","4","coast","172","probe-230","0.6356546674307937","0.25119728358141646","0.47987104339387415","0","","","","","",""
"","do_trial","237","1537176","0.0-217.0-0.0","1243","","","","50","1,1,0","4","coast","173","probe-65","0.6779406113804204","0.33386829009900687","0.45670600889573304","1","","","","","",""
"","do_trial","238","1543987","0.0-218.0-0.0","1235","","","","50","1,0,1","4","coast","174","probe-19","0.8093030470961813","0.3105472737057216","0.44007185477950145","0","","","","","",""
"","do_trial","239","1550686","0.0-219.0-0.0","1113.5","","","","50","1,0,0","4","coast","175","probe-43","0.7023693557442608","0.12326401937816338","0.3651980027471076","0","","","","","",""
"","do_trial","240","1556865","0.0-220.0-0.0","596.2999999523163","","","","50","0,0,1","4","coast","176","probe-157","0.6840623584648478","0.1562592397693014","0.4418312698822051","0","","","","","",""
"","do_trial","241","1562757","0.0-221.0-0.0","314.5","","","","50","0,0,1","4","coast","177","probe-118","0.6122781596341264","0.1509742991242068","0.3350040643170138","0","","","","","",""
"","do_trial","242","1568922","0.0-222.0-0.0","582.7999999523163","","","","50","1,0,0","4","coast","178","probe-179","0.8078918972110275","0.051959143801951976","0.48942144278205346","0","","","","","",""
"","do_trial","243","1574905","0.0-223.0-0.0","399.5","","","","51","1,0,1","4","coast","179","probe-167","0.7839675649567542","0.20856939602757393","0.446541880230186","1","","","","","",""
"","do_trial","244","1581314","0.0-224.0-0.0","826","","","","51","0,0,0","4","coast","180","probe-194","0.7366702304385317","0.08440735031204978","0.38111727464781486","0","","","","","",""
"","do_trial","245","1588155","0.0-225.0-0.0","1253.5","","","","51","1,0,1","4","coast","181","probe-77","0.8386622155033403","0.16483458657848524","0.3755561163540457","1","","","","","",""
"","do_trial","246","1594304","0.0-226.0-0.0","565.7999999523163","","","","51","1,0,0","4","coast","182","probe-171","0.711668646304301","0.11067664317958859","0.17639508017200803","0","","","","","",""
"","do_trial","247","1601419","0.0-227.0-0.0","1526.5","","","","51","0,0,0","4","coast","183","probe-55","0.7232414458237706","0.15102934455357128","0.23142293408269868","0","","","","","",""
"","do_trial","248","1607715","0.0-228.0-0.0","721.3999998569489","","","","49","0,0,0","4","coast","184","probe-136","0.6927031376832459","0.06947178363018232","0.3068065172739874","0","","","","","",""
"","do_trial","249","1613860","0.0-229.0-0.0","566.0999999046326","","","","50","0,0,0","4","coast","185","probe-185","0.7879085889113785","0.22228541166358615","0.36141286324120886","0","","","","","",""
"","do_trial","250","1619440","0.0-230.0-0.0","0.10000014305114746","","","","50","1,0,1","4","coast","186","probe-183","0.8984300509816084","0.08620782791234208","0.5125882486197103","0","","","","","",""
"","do_trial","251","1625473","0.0-231.0-0.0","450.10000014305115","","","","51","0,0,1","4","coast","187","probe-105","0.9138286038755936","0.124959629666944","0.500579311388675","1","","","","","",""
"","do_trial","252","1632638","0.0-232.0-0.0","1577.6000001430511","","","","51","1,1,0","4","coast","188","probe-23","0.905364258736211","0.11935037575447707","0.5300007347817379","0","","","","","",""
"","do_trial","253","1638629","0.0-233.0-0.0","413.2999999523163","","","","51","1,0,1","4","coast","189","probe-123","0.8422651757237788","0.08892520611224831","0.47378647009170793","1","","","","","",""
"","do_trial","254","1645348","0.0-234.0-0.0","1132.5999999046326","","","","51","0,0,1","4","coast","190","probe-47","0.7926213878264001","0.1384222040196917","0.5366816784696253","1","","","","","",""
"","do_trial","255","1651941","0.0-235.0-0.0","1012.2999999523163","","","","51","1,0,0","4","coast","191","probe-124","0.7236290210764158","0.12220849101884541","0.4906969817804746","0","","","","","",""
"","do_trial","256","1657988","0.0-236.0-0.0","446.5","","","","51","1,0,0","4","coast","192","probe-75","0.826615139450467","0.23456530373434412","0.5218183057779002","0","","","","","",""
"","do_trial","257","1664579","0.0-237.0-0.0","1004.5","","","","50","1,0,0","4","coast","193","probe-02","0.8598379985059909","0.26652185449322646","0.6426246230084399","0","","","","","",""
"","do_trial","258","1670390","0.0-238.0-0.0","230.89999985694885","","","","49","1,0,0","4","coast","194","probe-218","0.9445605421742626","0.19227583389910455","0.5971485714504554","1","","","","","",""
"","do_trial","259","1676724","0.0-239.0-0.0","750","","","","49","1,0,0","4","coast","195","probe-83","0.8604097734913482","0.11736377287914289","0.542531637938553","1","","","","","",""
"","do_trial","260","1683368","0.0-240.0-0.0","1058.6000001430511","","","","49","1,0,1","4","coast","196","probe-92","0.7975010732260636","0.06913257882590113","0.569254156905576","1","","","","","",""
"","do_trial","261","1689800","0.0-241.0-0.0","842.5","","","","49","1,1,0","4","coast","197","probe-145","0.8299891066627756","0.17632781651808216","0.5860908919021753","1","","","","","",""
"","do_trial","262","1696398","0.0-242.0-0.0","1010.5","","","","49","1,0,1","4","coast","198","probe-211","0.9167236322195202","0.20267614215861623","0.515427745247963","1","","","","","",""
"","do_trial","263","1702642","0.0-243.0-0.0","664.4000000953674","","","","49","1,0,1","4","coast","199","probe-152","0.8826139015947443","0.12371114199867302","0.44511791452741406","1","","","","","",""
"","do_bye","264","1704155","0.0-244.0-0.0","null","","","","null","","","","","","","","","","","","","","",""
"","do_travel","265","1710159","0.0-245.0-0.0","null","","","","null","","","","","","","","","","","","","","",""
"","do_welcome","266","1711678","0.0-245.0-1.0","null","","","","null","","","","","","","","","","","","","","",""
"","do_trial","267","1718493","0.0-246.0-0.0","1227.2999999523163","","","","50","1,0,0","5","highway","200","probe-90","1","0.29619866636457326","0.4885763703066868","0","","","","","",""
"","do_trial","268","1724608","0.0-247.0-0.0","528.1000001430511","","","","51","1,1,1","5","highway","201","probe-42","1","0.2910764813415176","0.5218789165658366","1","","","","","",""
"","do_trial","269","1731687","0.0-248.0-0.0","1504.7999999523163","","","","51","1,0,0","5","highway","202","probe-49","1","0.16518826027111932","0.5541355202752596","0","","","","","",""
"","do_trial","270","1737996","0.0-249.0-0.0","735","","","","51","1,0,0","5","highway","203","probe-219","1","0.19606687865432662","0.37823830202164505","0","","","","","",""
"","do_trial","271","1744480","0.0-250.0-0.0","907","","","","49","1,1,0","5","highway","204","probe-64","0.8363547175643489","0.13171183724371877","0.28945605464966756","1","","","","","",""
"","do_trial","272","1750829","0.0-251.0-0.0","772.2000000476837","","","","49","0,1,0","5","highway","205","probe-135","0.7757745335050363","0.1012210346733443","0.26097810594786625","0","","","","","",""
"","do_trial","273","1757529","0.0-252.0-0.0","1114","","","","51","1,0,1","5","highway","206","probe-50","0.782147681558363","0.06393647947594923","0.3083900883277706","1","","","","","",""
"","do_trial","274","1763935","0.0-253.0-0.0","822.6000001430511","","","","51","1,0,0","5","highway","207","probe-109","0.8130137151918259","0.07346909740354172","0.46316976840407925","0","","","","","",""
"","do_trial","275","1769820","0.0-254.0-0.0","296.59999990463257","","","","50","1,0,1","5","highway","208","probe-238","0.8587287043908448","0.1982562328259349","0.3975895740170845","0","","","","","",""
"","do_trial","276","1775447","0.0-255.0-0.0","41.60000014305115","","","","49","0,0,0","5","highway","209","probe-94","0.9117141382111617","0.22609997876863383","0.34118853843698094","0","","","","","",""
"","do_trial","277","1782137","0.0-256.0-0.0","1115.2999999523163","","","","51","0,0,1","5","highway","210","probe-53","0.6417932024218422","0.4599270683971441","0.3760905808923374","1","","","","","",""
"","do_trial","278","1788080","0.0-257.0-0.0","364.19999980926514","","","","51","0,0,1","5","highway","211","probe-134","0.44718048443092817","0.4499921820374775","0.23460046268450818","1","","","","","",""
"","do_trial","279","1794352","0.0-258.0-0.0","691.4000000953674","","","","51","1,1,0","5","highway","212","probe-13","0.4878554273603938","0.5323697349071006","0.24803227415799672","0","","","","","",""
"","do_trial","280","1800324","0.0-259.0-0.0","391.80000019073486","","","","51","1,0,0","5","highway","213","probe-17","0.3972047332144843","0.5608894734648007","0.4008436740763018","0","","","","","",""
"","do_trial","281","1806226","0.0-260.0-0.0","319.40000009536743","","","","51","0,1,0","5","highway","214","probe-12","0.2647700363706363","0.6166825856917425","0.26742996466305613","0","","","","","",""
"","do_trial","282","1812051","0.0-261.0-0.0","236.29999995231628","","","","50","1,1,1","5","highway","215","probe-131","0.21997285978431122","0.6745639174529791","0.26834742580586357","1","","","","","",""
"","do_trial","283","1817981","0.0-262.0-0.0","352.7999999523163","","","","50","0,0,0","5","highway","216","probe-169","0.09823853151535332","0.7168179553539045","0.21024277272110467","0","","","","","",""
"","do_trial","284","1823596","0.0-263.0-0.0","40.90000009536743","","","","50","0,1,0","5","highway","217","probe-35","0.1745670154667643","0.8154110746543435","0.3073267923987138","1","","","","","",""
"","do_trial","285","1830018","0.0-264.0-0.0","836.5","","","","50","0,0,0","5","highway","218","probe-159","0.19172214595926204","0.830933435394065","0.3081661821593656","0","","","","","",""
"","do_trial","286","1836151","0.0-265.0-0.0","544","","","","50","1,1,1","5","highway","219","probe-73","0.08524890859722252","0.8897395177192945","0.38620341170464917","1","","","","","",""
"","do_trial","287","1842109","0.0-266.0-0.0","383.90000009536743","","","","50","0,1,0","5","highway","220","probe-14","0.05925619167198406","0.7981525131298034","0.2921205563411129","1","","","","","",""
"","do_trial","288","1848269","0.0-267.0-0.0","581.2999999523163","","","","50","0,0,0","5","highway","221","probe-133","0.17549806986407238","0.8569777323567072","0.3259867577115661","0","","","","","",""
"","do_trial","289","1855164","0.0-268.0-0.0","1315.6999998092651","","","","50","0,0,0","5","highway","222","probe-209","0.22659242828762194","0.9349904061813943","0.30174253339875046","0","","","","","",""
"","do_trial","290","1861141","0.0-269.0-0.0","399.2000000476837","","","","51","0,1,0","5","highway","223","probe-163","0.2569593306503241","0.9443954965724062","0.23739921336622508","0","","","","","",""
"","do_trial","291","1867088","0.0-270.0-0.0","364.40000009536743","","","","51","0,1,0","5","highway","224","probe-11","0.07707049730906322","0.8249959862631382","0.20003218613048757","0","","","","","",""
"","do_trial","292","1872990","0.0-271.0-0.0","313.2000000476837","","","","50","0,1,0","5","highway","225","probe-25","0.08181371966171495","0.9422426939723266","0.4430921668163936","1","","","","","",""
"","do_trial","293","1879174","0.0-272.0-0.0","604.5","","","","50","0,1,1","5","highway","226","probe-81","0.09720001004911559","0.890354555369647","0.4168947503785364","1","","","","","",""
"","do_trial","294","1885081","0.0-273.0-0.0","320.90000009536743","","","","50","1,1,1","5","highway","227","probe-181","0.07851805234934303","0.8704946468089233","0.5214139390923893","1","","","","","",""
"","do_trial","295","1891420","0.0-274.0-0.0","763.2000000476837","","","","50","0,0,1","5","highway","228","probe-220","0.09290281581521645","0.7536390496523732","0.505523467195122","0","","","","","",""
"","do_trial","296","1897341","0.0-275.0-0.0","342.7999999523163","","","","50","0,1,0","5","highway","229","probe-29","0.11360934490139148","0.7666055862272042","0.4911570790548596","1","","","","","",""
"","do_trial","297","1903417","0.0-276.0-0.0","494.2999999523163","","","","50","0,1,0","5","highway","230","probe-27","0.0843586693925369","0.7469020540797421","0.3860505419908676","1","","","","","",""
"","do_trial","298","1909439","0.0-277.0-0.0","441.5","","","","50","0,1,0","5","highway","231","probe-176","0.07653535396567629","0.788681849492467","0.3182293335942032","1","","","","","",""
"","do_trial","299","1915418","0.0-278.0-0.0","405","","","","50","1,1,0","5","highway","232","probe-198","0.22177965183477238","0.8109551595145976","0.34730468884276705","1","","","","","",""
"","do_trial","300","1921491","0.0-279.0-0.0","499.2000000476837","","","","50","1,1,1","5","highway","233","probe-180","0.2336002657748574","0.8127770713315263","0.3436881827465028","1","","","","","",""
"","do_trial","301","1927483","0.0-280.0-0.0","405.69999980926514","","","","50","1,1,0","5","highway","234","probe-41","0.1465761442374844","0.7136541853548455","0.3834515844459653","1","","","","","",""
"","do_trial","302","1933689","0.0-281.0-0.0","621.5999999046326","","","","50","0,1,0","5","highway","235","probe-239","0.21130432760933232","0.8611344597072715","0.4329231984615588","1","","","","","",""
"","do_trial","303","1939721","0.0-282.0-0.0","453.90000009536743","","","","50","0,1,1","5","highway","236","probe-84","0.08429210566920117","0.8344920033427199","0.5007624135972936","1","","","","","",""
"","do_trial","304","1945846","0.0-283.0-0.0","545.2999999523163","","","","50","1,0,1","5","highway","237","probe-26","0.10648129647047369","0.8643869298242675","0.49552942879942946","0","","","","","",""
"","do_trial","305","1951946","0.0-284.0-0.0","520.9000000953674","","","","50","1,1,0","5","highway","238","probe-240","0.09293667295518945","0.8131612097231213","0.4857405522914599","1","","","","","",""
"","do_trial","306","1957981","0.0-285.0-0.0","462.59999990463257","","","","50","0,1,0","5","highway","239","probe-237","0.10497973822863851","0.768428384635202","0.3568019111225679","1","","","","","",""
"","do_bye","307","1959488","0.0-286.0-0.0","null","","","","null","","","","","","","","","","","","","","",""
"","html-keyboard-response","308","2013604","0.0-286.0-1.0","54119.799999952316","<div class='center'><p>You may take a break now!</p><p> Stretch for a little bit. Get a glass of water.</p><p> You have two minutes to rest. Then, the game will automatically move on.</p><p>If you’d like to get started on the second half of the experiment sooner, then press the <b>space bar</b></p></div>","32","","","","","","","","","","","","","","","","",""
"","html-keyboard-response","309","2026418","0.0-286.0-2.0","12814","<div class='center'><p>You’ve arrived at the final destination of your journey! Unfortunately, it’s very foggy out, so you won’t be able to see it in the distance like in previous places you've visited.</p><p>You’ll still be deciding which pirates you want to rob ships. However, because of the fog you also won’t be able to see the ship in the distance. </p><p><b>[Press the space bar to continue]</b></p></div>","32","","","","","","","","","","","","","","","","",""
"","html-keyboard-response","310","2068538","0.0-286.0-3.0","42118.59999990463","<div class='center'><p> Sometimes you’ll be asked if you’ve seen a ship before (see the example below). You will use the 5, 6, 7, 8 buttons on your keyboard to respond. </p><p> If you definitely did not see the ship, pick the the big red thumbs down by pressing <b>5</b>.</p><p> If you don’t think you saw it but aren’t sure, then pick the small red thumbs down by pressing <b>6</b>.</p><p> If you think you might have seen it, then pick the small green thumbs up by pressing <b>7</b>.</p><p> If you definitely did see this ship before, then pick the big thumb green thumbs up by pressing <b>8</b>.</p><p> If you recall correctly, then you’ll get a gold coin!</p><p><b>[Press the space bar to begin the next phase of the experiment]</b></p><p><img src='run_exp/static/images/example_recog_trial.png' height='500'></p></div>","32","","","","","","","","","","","","","","","","",""
"","do_welcome","311","2070052","0.0-286.0-4.0","null","","","","null","","","","","","","","","","","","","","",""
"","do_trial","312","2075932","0.0-287.0-0.0","2298.5","","","","50","0,1,0","6","blank","240","null","0.2598371363691348","1","0.3143483116002127","1","","","","","",""
"","do_recog","313","2080833","0.0-288.0-0.0","3382.7999999523163","","","","54","","","","241","probe-172","","","","","1","[object Object]","163","4","0",""
"","do_trial","314","2086441","0.0-289.0-0.0","2027","","","","50","1,1,1","6","blank","242","null","0.2906562349423025","0.8821467883504243","0.3836136916877114","1","","","","","",""
"","do_trial","315","2092142","0.0-290.0-0.0","2118.100000143051","","","","49","0,0,0","6","blank","243","null","0.18478161265402446","0.793475704518216","0.29442717510696803","0","","","","","",""
"","do_trial","316","2097472","0.0-291.0-0.0","1750.9000000953674","","","","50","0,1,0","6","blank","244","null","0.05838955872101005","0.8495361648151356","0.40911461595962073","1","","","","","",""
"","do_trial","317","2102045","0.0-292.0-0.0","998","","","","51","0,1,1","6","blank","245","null","0.12605418803668525","0.9189651282364563","0.46244499484646595","1","","","","","",""
"","do_recog","318","2106051","0.0-293.0-0.0","2491.2999999523163","","","","54","","","","246","probe-215","","","","","1","[object Object]","128","3","0",""
"","do_trial","319","2111476","0.0-294.0-0.0","1850.5999999046326","","","","51","0,1,0","6","blank","247","null","0.10477425296777333","0.7711139837765457","0.24942548510392307","0","","","","","",""
"","do_trial","320","2115933","0.0-295.0-0.0","879.5","","","","50","0,0,0","6","blank","248","null","0.08224890355553217","0.7006117569876749","0.33266809154837496","0","","","","","",""
"","do_recog","321","2119739","0.0-296.0-0.0","2283","","","","54","","","","249","probe-64","","","","","1","[object Object]","204","5","0",""
"","do_trial","322","2124189","0.0-297.0-0.0","872.1999998092651","","","","49","0,1,0","6","blank","250","null","0.13789875383815545","0.7648200615153631","0.30300262890848356","0","","","","","",""
"","do_recog","323","2127535","0.0-298.0-0.0","1836.7999999523163","","","","56","","","","251","probe-87","","","","","1","[object Object]","127","3","1",""
"","do_trial","324","2131970","0.0-299.0-0.0","856","","","","49","0,1,0","6","blank","252","null","0.19871216096171704","0.8219096737378894","0.27154009579144645","0","","","","","",""
"","do_recog","325","2135672","0.0-300.0-0.0","2186","","","","56","","","","253","probe-191","","","","","1","[object Object]","81","2","1",""
"","do_trial","326","2140254","0.0-301.0-0.0","1011.6000001430511","","","","50","0,1,0","6","blank","254","null","0.24739326853922095","0.753027374338484","0.48256038823771824","1","","","","","",""
"","do_trial","327","2144451","0.0-302.0-0.0","618.1999998092651","","","","50","1,1,0","6","blank","255","null","0.522208206604167","0.6835043958686683","0.38779411737343844","1","","","","","",""
"","do_recog","328","2148006","0.0-303.0-0.0","2035.4000000953674","","","","55","","","","256","probe-127","","","","","1","[object Object]","160","4","1",""
"","do_trial","329","2152431","0.0-304.0-0.0","845","","","","50","0,1,1","6","blank","257","null","0.7628265610795932","0.5804077959083156","0.25010124837678266","1","","","","","",""
"","do_trial","330","2156531","0.0-305.0-0.0","521.7000000476837","","","","50","1,1,0","6","blank","258","null","0.8069062452825084","0.5401543542057964","0.0617520792636326","1","","","","","",""
"","do_trial","331","2160640","0.0-306.0-0.0","519.2000000476837","","","","50","0,1,0","6","blank","259","null","0.6079764201690858","0.44833008095105054","0.0556877837097681","1","","","","","",""
"","do_trial","332","2164753","0.0-307.0-0.0","532.7999999523163","","","","50","1,1,0","6","blank","260","null","0.6933494149578558","0.45607489795631884","0.12639047962620706","1","","","","","",""
"","do_recog","333","2167788","0.0-308.0-0.0","1522.7999999523163","","","","55","","","","261","probe-137","","","","","1","[object Object]","167","4","1",""
"","do_trial","334","2171997","0.0-309.0-0.0","634","","","","50","1,1,0","6","blank","262","null","0.778860120350878","0.3616538567464165","0.07966354463009437","1","","","","","",""
"","do_recog","335","2175457","0.0-310.0-0.0","1939.7000000476837","","","","54","","","","263","probe-42","","","","","1","[object Object]","201","5","0",""
"","do_trial","336","2179869","0.0-311.0-0.0","834.5999999046326","","","","50","1,1,0","6","blank","264","null","0.7560846109601594","0.2365598689875236","0.17504776558440052","1","","","","","",""
"","do_recog","337","2183038","0.0-312.0-0.0","1658","","","","56","","","","265","probe-235","","","","","1","[object Object]","83","2","1",""
"","do_trial","338","2187258","0.0-313.0-0.0","632","","","","50","1,0,0","6","blank","266","null","0.8027914041170131","0.22387247342127206","0.0634159293325787","0","","","","","",""
"","do_trial","339","2191506","0.0-314.0-0.0","666","","","","50","0,0,0","6","blank","267","null","0.7048880232908147","0.3237319024493511","0.25726386832093967","0","","","","","",""
"","do_trial","340","2196056","0.0-315.0-0.0","975.7999999523163","","","","51","1,1,0","6","blank","268","null","0.7090089086453208","0.49969790675931963","0.20831741699961917","0","","","","","",""
"","do_trial","341","2200119","0.0-316.0-0.0","475.40000009536743","","","","50","1,0,0","6","blank","269","null","0.874532315870538","0.3431382259904221","0.2714467451065499","0","","","","","",""
"","do_recog","342","2203079","0.0-317.0-0.0","1447.7999999523163","","","","56","","","","270","probe-96","","","","","1","[object Object]","169","4","1",""
"","do_trial","343","2207206","0.0-318.0-0.0","540.7000000476837","","","","50","1,0,0","6","blank","271","null","0.9268357214151086","0.3635628103288854","0.3073768401785782","0","","","","","",""
"","do_recog","344","2210498","0.0-319.0-0.0","1781.5999999046326","","","","54","","","","272","probe-246","","","","","0","[object Object]","null","null","1",""
"","do_trial","345","2214841","0.0-320.0-0.0","764.5","","","","50","1,0,1","6","blank","273","null","0.8729938965479186","0.16879519106794774","0.22742234227714656","0","","","","","",""
"","do_recog","346","2217907","0.0-321.0-0.0","1556.8000001907349","","","","54","","","","274","probe-219","","","","","1","[object Object]","203","5","0",""
"","do_trial","347","2222663","0.0-322.0-0.0","1169.5999999046326","","","","50","1,0,0","6","blank","275","null","0.9421134901587618","0.20880326689522538","0.07373268016922399","0","","","","","",""
"","do_trial","348","2226831","0.0-323.0-0.0","589.2000000476837","","","","50","1,0,0","6","blank","276","null","0.8865502562706955","0.22056616324461586","0.08172067206907885","0","","","","","",""
"","do_trial","349","2231244","0.0-324.0-0.0","832","","","","51","1,1,0","6","blank","277","null","0.930328356313648","0.2593441133790792","0.07524406868208156","0","","","","","",""
"","do_trial","350","2235684","0.0-325.0-0.0","864.9000000953674","","","","49","1,0,0","6","blank","278","null","0.802604259370012","0.20364637949721776","0.1396435496507152","1","","","","","",""
"","do_trial","351","2240214","0.0-326.0-0.0","947.8000001907349","","","","49","1,1,0","6","blank","279","null","0.9041061714417836","0.2436799483287901","0.1663530964737679","1","","","","","",""
"","do_recog","352","2243266","0.0-327.0-0.0","1542.9000000953674","","","","56","","","","280","probe-113","","","","","1","[object Object]","84","2","1",""
"","do_trial","353","2247577","0.0-328.0-0.0","724.9000000953674","","","","49","1,1,0","6","blank","281","null","0.8633454880566831","0.25680967546851735","0.16680524843075148","1","","","","","",""
"","do_recog","354","2251169","0.0-329.0-0.0","2069.2000000476837","","","","54","","","","282","probe-49","","","","","1","[object Object]","202","5","0",""
"","do_trial","355","2255698","0.0-330.0-0.0","942.2999999523163","","","","49","1,0,0","6","blank","283","null","0.8920888307559723","0.2825443414057242","0.14297301891781103","1","","","","","",""
"","do_trial","356","2260156","0.0-331.0-0.0","884.4000000953674","","","","49","1,1,0","6","blank","284","null","1","0.2869344858378786","0.05628101685383017","1","","","","","",""
"","do_trial","357","2264274","0.0-332.0-0.0","538.1999998092651","","","","49","1,0,1","6","blank","285","null","0.942358694335446","0.2361985466909262","0.07050334895815295","1","","","","","",""
"","do_trial","358","2268830","0.0-333.0-0.0","967.5","","","","49","1,0,0","6","blank","286","null","0.9406381156517739","0.36957256249785436","0.23745641232130602","1","","","","","",""
"","do_trial","359","2273401","0.0-334.0-0.0","993.2999999523163","","","","49","0,0,0","6","blank","287","null","0.8314055216927635","0.366642948148727","0.21976501015638497","0","","","","","",""
"","do_trial","360","2278028","0.0-335.0-0.0","1039.2999999523163","","","","49","1,1,1","6","blank","288","null","0.8598004310133948","0.4072180565228112","0.20852234961462576","1","","","","","",""
"","do_recog","361","2281161","0.0-336.0-0.0","1611.5","","","","56","","","","289","probe-18","","","","","1","[object Object]","120","3","1",""
"","do_trial","362","2287348","0.0-337.0-0.0","2608.5","","","","49","0,0,0","6","blank","290","null","0.9355005948818926","0.35609198973238526","0.20384419802333203","0","","","","","",""
"","do_recog","363","2291109","0.0-338.0-0.0","2239.899999856949","","","","54","","","","291","probe-257","","","","","0","[object Object]","null","null","1",""
"","do_trial","364","2295329","0.0-339.0-0.0","644.1999998092651","","","","49","1,0,0","6","blank","292","null","0.9227083345121995","0.4023566178949","0.1733902775693682","1","","","","","",""
"","do_trial","365","2299340","0.0-340.0-0.0","432.40000009536743","","","","49","1,0,0","6","blank","293","null","0.9411247737773065","0.5083277347885902","0.1818407690933398","1","","","","","",""
"","do_trial","366","2303595","0.0-341.0-0.0","674.0999999046326","","","","49","1,1,0","6","blank","294","null","0.9372327331277751","0.5562895002875182","0.2322887318932374","1","","","","","",""
"","do_recog","367","2306986","0.0-342.0-0.0","1873.0999999046326","","","","54","","","","295","probe-91","","","","","1","[object Object]","121","3","0",""
"","do_trial","368","2310969","0.0-343.0-0.0","396.80000019073486","","","","49","1,1,0","6","blank","296","null","0.945593369099119","0.47604824817593616","0.23560629272615818","1","","","","","",""
"","do_recog","369","2314968","0.0-344.0-0.0","2479.7999999523163","","","","55","","","","297","probe-79","","","","","1","[object Object]","161","4","1",""
"","do_trial","370","2319298","0.0-345.0-0.0","742.5999999046326","","","","49","1,1,0","6","blank","298","null","0.9265852633462379","0.45437808636976684","0.2910313235406307","1","","","","","",""
"","do_trial","371","2323236","0.0-346.0-0.0","365.2999999523163","","","","49","1,0,0","6","blank","299","null","0.8246944441964034","0.5561079556100321","0.3288395083060599","1","","","","","",""
"","do_trial","372","2327773","0.0-347.0-0.0","958.2000000476837","","","","49","1,0,0","6","blank","300","null","0.5433557148155458","0.5533262401629034","0.5901325612094029","1","","","","","",""
"","do_trial","373","2332096","0.0-348.0-0.0","752.0999999046326","","","","49","0,0,1","6","blank","301","null","0.3509829635071284","0.3171918174972162","0.5593278318735182","0","","","","","",""
"","do_recog","374","2335018","0.0-349.0-0.0","1412.6999998092651","","","","56","","","","302","probe-150","","","","","1","[object Object]","165","4","1",""
"","do_trial","375","2339230","0.0-350.0-0.0","625.2999999523163","","","","49","0,0,0","6","blank","303","null","0.14999032259047132","0.4407413569331385","0.5422553007803302","0","","","","","",""
"","do_recog","376","2342059","0.0-351.0-0.0","1309.5","","","","56","","","","304","probe-86","","","","","1","[object Object]","122","3","1",""
"","do_trial","377","2346144","0.0-352.0-0.0","503","","","","49","0,1,1","6","blank","305","null","0.2696925653507258","0.5327915768445863","0.6248204997998418","0","","","","","",""
"","do_recog","378","2349034","0.0-353.0-0.0","1374.7000000476837","","","","55","","","","306","probe-125","","","","","1","[object Object]","125","3","1",""
"","do_trial","379","2352969","0.0-354.0-0.0","360.39999985694885","","","","49","1,0,1","6","blank","307","null","0.3548186533769892","0.49706846147453043","0.7572346402467417","1","","","","","",""
"","do_recog","380","2356168","0.0-355.0-0.0","1680.4000000953674","","","","54","","","","308","probe-204","","","","","1","[object Object]","89","2","0",""
"","do_trial","381","2360341","0.0-356.0-0.0","596","","","","49","0,1,1","6","blank","309","null","0.33484429596364435","0.4526941848137966","0.7403398910482908","0","","","","","",""
"","do_recog","382","2363847","0.0-357.0-0.0","1988.1000001430511","","","","55","","","","310","probe-80","","","","","1","[object Object]","168","4","1",""
"","do_trial","383","2368026","0.0-358.0-0.0","605.7999999523163","","","","49","0,0,1","6","blank","311","null","0.1323989556141178","0.3768506179679739","0.8357950446904602","0","","","","","",""
"","do_recog","384","2370914","0.0-359.0-0.0","1373.5999999046326","","","","54","","","","312","probe-107","","","","","1","[object Object]","86","2","0",""
"","do_trial","385","2375127","0.0-360.0-0.0","630.5","","","","49","0,1,1","6","blank","313","null","0.28566328982413447","0.5202597716025431","0.8959699917533388","0","","","","","",""
"","do_trial","386","2379248","0.0-361.0-0.0","535","","","","49","1,0,1","6","blank","314","null","0.28437845344106083","0.4110044179273868","0.8782193459422625","1","","","","","",""
"","do_trial","387","2383639","0.0-362.0-0.0","815.8999998569489","","","","49","0,1,1","6","blank","315","null","0.20648381837567725","0.3630471222870284","0.9343403567194756","0","","","","","",""
"","do_recog","388","2387018","0.0-363.0-0.0","1859","","","","54","","","","316","probe-90","","","","","1","[object Object]","200","5","0",""
"","do_trial","389","2391200","0.0-364.0-0.0","594.2999999523163","","","","49","0,0,1","6","blank","317","null","0.2108306935961219","0.34345224126199386","0.7650791095225452","0","","","","","",""
"","do_recog","390","2394599","0.0-365.0-0.0","1878.7999999523163","","","","53","","","","318","probe-50","","","","","1","[object Object]","206","5","0",""
"","do_trial","391","2398569","0.0-366.0-0.0","394.2999999523163","","","","49","0,1,1","6","blank","319","null","0.17358068872300758","0.2821599520957725","0.7225935570017639","0","","","","","",""
"","do_recog","392","2401428","0.0-367.0-0.0","1340.1000001430511","","","","56","","","","320","probe-45","","","","","1","[object Object]","42","1","1",""
"","do_trial","393","2405589","0.0-368.0-0.0","574.6000001430511","","","","49","0,0,1","6","blank","321","null","0.14392359792343304","0.29594670092928904","0.7079024220831258","0","","","","","",""
"","do_recog","394","2408843","0.0-369.0-0.0","1739.7999999523163","","","","54","","","","322","probe-206","","","","","1","[object Object]","87","2","0",""
"","do_trial","395","2412920","0.0-370.0-0.0","488.69999980926514","","","","50","0,1,1","6","blank","323","null","0.06379239041062416","0.29609891945799255","0.7525058521344203","1","","","","","",""
"","do_trial","396","2416963","0.0-371.0-0.0","464","","","","50","1,1,1","6","blank","324","null","0.23443948664167033","0.4315875285172105","0.747323185648464","1","","","","","",""
"","do_recog","397","2420088","0.0-372.0-0.0","1606.3999998569489","","","","56","","","","325","probe-231","","","","","1","[object Object]","48","1","1",""
"","do_trial","398","2424162","0.0-373.0-0.0","495","","","","50","1,0,1","6","blank","326","null","0.3042079396596676","0.5110157134936069","0.7967824264784603","0","","","","","",""
"","do_trial","399","2428360","0.0-374.0-0.0","621.4000000953674","","","","50","0,0,0","6","blank","327","null","0.24841896769762437","0.31178803525576826","0.79926514447158","0","","","","","",""
"","do_trial","400","2434308","0.0-375.0-0.0","2364.7999999523163","","","","50","0,1,1","6","blank","328","null","0.17793752687387684","0.3600886539416561","0.7672123324805159","1","","","","","",""
"","do_trial","401","2438222","0.0-376.0-0.0","335.2999999523163","","","","50","0,1,1","6","blank","329","null","0.0875962180393039","0.20217112118127772","1","1","","","","","",""
"","do_recog","402","2441716","0.0-377.0-0.0","1977.7999999523163","","","","54","","","","330","probe-210","","","","","1","[object Object]","164","4","0",""
"","do_trial","403","2445879","0.0-378.0-0.0","580","","","","50","0,0,1","6","blank","331","null","0.13792035957003237","0.32479721503388925","0.8732386923075479","0","","","","","",""
"","do_trial","404","2450053","0.0-379.0-0.0","597","","","","50","1,0,1","6","blank","332","null","0.1419835872056645","0.3807664678376152","0.8803894908161378","0","","","","","",""
"","do_recog","405","2453143","0.0-380.0-0.0","1567.3999998569489","","","","56","","","","333","probe-57","","","","","1","[object Object]","40","1","1",""
"","do_trial","406","2457421","0.0-381.0-0.0","691.4000000953674","","","","50","0,1,1","6","blank","334","null","0.050020598733132304","0.45810474966297565","0.7515382713608392","1","","","","","",""
"","do_trial","407","2461570","0.0-382.0-0.0","574.5","","","","50","0,1,0","6","blank","335","null","0.0893937249963112","0.5363994901539733","0.7533629616623408","1","","","","","",""
"","do_trial","408","2465717","0.0-383.0-0.0","554.7999999523163","","","","50","0,1,1","6","blank","336","null","0.20131762878833756","0.5020000733764515","0.7970994360169503","1","","","","","",""
"","do_trial","409","2469802","0.0-384.0-0.0","508.40000009536743","","","","50","0,1,1","6","blank","337","null","0.22704810999941422","0.369130862036545","0.8413886861098726","1","","","","","",""
"","do_recog","410","2472572","0.0-385.0-0.0","1249","","","","56","","","","338","probe-221","","","","","1","[object Object]","129","3","1",""
"","do_trial","411","2476596","0.0-386.0-0.0","444.7000000476837","","","","50","0,0,1","6","blank","339","null","0.1737640219399197","0.3923000622414005","0.9007242681236908","0","","","","","",""
"","do_trial","412","2480747","0.0-387.0-0.0","569.4000000953674","","","","50","0,0,1","6","blank","340","null","0.33835779046198433","0.3180258301717877","0.7893445391378857","0","","","","","",""
"","do_trial","413","2484949","0.0-388.0-0.0","619","","","","50","0,1,1","6","blank","341","null","0.12180619878587194","0.3770597243940087","0.8156948027011728","1","","","","","",""
"","do_recog","414","2487871","0.0-389.0-0.0","1412","","","","56","","","","342","probe-212","","","","","1","[object Object]","41","1","1",""
"","do_trial","415","2492111","0.0-390.0-0.0","656.5","","","","50","0,1,1","6","blank","343","null","0.07835473503360263","0.4795143747961526","0.6050110817996648","1","","","","","",""
"","do_recog","416","2495541","0.0-391.0-0.0","1909.7999999523163","","","","56","","","","344","probe-08","","","","","1","[object Object]","45","1","1",""
"","do_trial","417","2499693","0.0-392.0-0.0","565.2999999523163","","","","50","0,1,1","6","blank","345","null","0.1272829839080608","0.6580104989393467","0.457641948893245","1","","","","","",""
"","do_trial","418","2503861","0.0-393.0-0.0","592","","","","50","0,1,1","6","blank","346","null","0.07211059583241763","0.71095832704337","0.3745127246804993","1","","","","","",""
"","do_trial","419","2508198","0.0-394.0-0.0","752.7999999523163","","","","50","1,1,0","6","blank","347","null","0.06822570144373284","0.7447982176736643","0.4007873134027004","1","","","","","",""
"","do_recog","420","2511543","0.0-395.0-0.0","1833.1999998092651","","","","54","","","","348","probe-108","","","","","1","[object Object]","85","2","0",""
"","do_trial","421","2515677","0.0-396.0-0.0","552.8999998569489","","","","50","1,1,1","6","blank","349","null","0.1540539519949356","0.8187666439320788","0.3180048660025879","1","","","","","",""
"","do_recog","422","2518625","0.0-397.0-0.0","1434.5","","","","56","","","","350","probe-110","","","","","1","[object Object]","47","1","1",""
"","do_trial","423","2522611","0.0-398.0-0.0","411.5","","","","50","0,0,0","6","blank","351","null","0.10785634341828651","0.8237828080779133","0.30661776468472784","0","","","","","",""
"","do_recog","424","2525546","0.0-399.0-0.0","1420.3000001907349","","","","56","","","","352","probe-238","","","","","1","[object Object]","208","5","1",""
"","do_trial","425","2529719","0.0-400.0-0.0","599.5999999046326","","","","50","1,1,0","6","blank","353","null","0.18561355826718898","0.8276165823086227","0.3814279349989625","1","","","","","",""
"","do_recog","426","2532860","0.0-401.0-0.0","1631.6999998092651","","","","54","","","","354","probe-249","","","","","0","[object Object]","null","null","1",""
"","do_trial","427","2536892","0.0-402.0-0.0","454.40000009536743","","","","50","1,1,0","6","blank","355","null","0.085700806948635","0.8026915642474736","0.3811894636493045","1","","","","","",""
"","do_trial","428","2541172","0.0-403.0-0.0","691.2999999523163","","","","50","0,1,0","6","blank","356","null","0.06304516105135916","0.6108723075274644","0.3643097298566773","1","","","","","",""
"","do_trial","429","2545554","0.0-404.0-0.0","801.9000000953674","","","","50","0,1,0","6","blank","357","null","0.17386569598188284","0.5190610550194468","0.4165540374718018","1","","","","","",""
"","do_trial","430","2549746","0.0-405.0-0.0","611.5","","","","50","0,0,0","6","blank","358","null","0.16838300427176303","0.45653085093812534","0.3060620055423136","0","","","","","",""
"","do_trial","431","2553922","0.0-406.0-0.0","599.5999999046326","","","","50","0,0,0","6","blank","359","null","0.2325078971968169","0.5289494171113017","0.3470214076321196","0","","","","","",""
"","do_trial","432","2558048","0.0-407.0-0.0","541.6999998092651","","","","50","1,1,0","6","blank","360","null","0.2521225506516331","0.7410164647088838","0.4530112419113476","1","","","","","",""
"","do_recog","433","2561480","0.0-408.0-0.0","1923","","","","55","","","","361","probe-241","","","","","0","[object Object]","null","null","0",""
"","do_trial","434","2565526","0.0-409.0-0.0","466.2999999523163","","","","50","1,1,0","6","blank","362","null","0.15815563995395493","0.7244275514201529","0.4654371464012214","1","","","","","",""
"","do_trial","435","2569440","0.0-410.0-0.0","338.40000009536743","","","","50","0,1,0","6","blank","363","null","0.06520207037005073","0.7051101978938742","0.42539826585486756","1","","","","","",""
"","do_recog","436","2572444","0.0-411.0-0.0","1491.1000001430511","","","","54","","","","364","probe-140","","","","","1","[object Object]","126","3","0",""
"","do_trial","437","2576442","0.0-412.0-0.0","421.7999999523163","","","","50","0,1,0","6","blank","365","null","0.15715112756007452","0.6706304636992197","0.4430456935189963","1","","","","","",""
"","do_recog","438","2579604","0.0-413.0-0.0","1639.7999999523163","","","","55","","","","366","probe-03","","","","","1","[object Object]","123","3","1",""
"","do_trial","439","2583686","0.0-414.0-0.0","500.7000000476837","","","","50","0,1,1","6","blank","367","null","0.0739328096966871","0.771743528804795","0.35520748941185987","1","","","","","",""
"","do_recog","440","2586701","0.0-415.0-0.0","1506.2999999523163","","","","55","","","","368","probe-135","","","","","1","[object Object]","205","5","1",""
"","do_trial","441","2590686","0.0-416.0-0.0","405.59999990463257","","","","50","0,1,0","6","blank","369","null","0.10293594542672581","0.7723538881450754","0.31856549329172157","1","","","","","",""
"","do_recog","442","2593429","0.0-417.0-0.0","1235.9000000953674","","","","56","","","","370","probe-228","","","","","1","[object Object]","46","1","1",""
"","do_trial","443","2597736","0.0-418.0-0.0","726.7999999523163","","","","50","0,1,1","6","blank","371","null","0.06046960638363968","0.7121703230515076","0.461085082083131","1","","","","","",""
"","do_trial","444","2601782","0.0-419.0-0.0","460.40000009536743","","","","50","0,1,0","6","blank","372","null","0.11175030369717735","0.9256513116814797","0.4235849109974243","1","","","","","",""
"","do_trial","445","2605837","0.0-420.0-0.0","472.89999985694885","","","","50","0,1,1","6","blank","373","null","0.15291669165455063","1","0.4304147013331216","1","","","","","",""
"","do_recog","446","2608623","0.0-421.0-0.0","1265.3999998569489","","","","56","","","","374","probe-76","","","","","1","[object Object]","43","1","1",""
"","do_trial","447","2612600","0.0-422.0-0.0","393.7000000476837","","","","50","0,1,0","6","blank","375","null","0.10248094602049859","0.8677977339100187","0.42502149594183536","1","","","","","",""
"","do_recog","448","2615439","0.0-423.0-0.0","1330.4000000953674","","","","56","","","","376","probe-233","","","","","1","[object Object]","49","1","1",""
"","do_trial","449","2619668","0.0-424.0-0.0","645","","","","50","0,1,1","6","blank","377","null","0.062430691620576975","0.79824721794735","0.3605862939559985","1","","","","","",""
"","do_recog","450","2622262","0.0-425.0-0.0","1084","","","","56","","","","378","probe-144","","","","","1","[object Object]","124","3","1",""
"","do_trial","451","2626294","0.0-426.0-0.0","453.5","","","","50","0,1,1","6","blank","379","null","0.10637276547089718","0.8684378723515009","0.3257263813912597","1","","","","","",""
"","do_recog","452","2628710","0.0-427.0-0.0","907.0999999046326","","","","56","","","","380","probe-103","","","","","1","[object Object]","80","2","1",""
"","do_trial","453","2632718","0.0-428.0-0.0","426.80000019073486","","","","50","0,0,0","6","blank","381","null","0.19181677085869311","0.935693398074072","0.37444520854476154","0","","","","","",""
"","do_recog","454","2635906","0.0-429.0-0.0","1674.5999999046326","","","","55","","","","382","probe-229","","","","","1","[object Object]","166","4","1",""
"","do_trial","455","2639977","0.0-430.0-0.0","490.2999999523163","","","","50","0,1,0","6","blank","383","null","0.18940854555351094","0.8894310528347535","0.2717066333190719","1","","","","","",""
"","do_trial","456","2644074","0.0-431.0-0.0","508.09999990463257","","","","50","0,1,0","6","blank","384","null","0.18017918961734417","0.9227703087656494","0.4524523271183874","1","","","","","",""
"","do_trial","457","2648331","0.0-432.0-0.0","670.0999999046326","","","","50","1,1,1","6","blank","385","null","0.0919935311097729","0.9325835834098862","0.33286432223333307","1","","","","","",""
"","do_trial","458","2652802","0.0-433.0-0.0","870.5999999046326","","","","50","0,1,0","6","blank","386","null","0.21020595287441296","0.9111601081365155","0.3532986788491377","1","","","","","",""
"","do_recog","459","2655922","0.0-434.0-0.0","1600.2999999523163","","","","55","","","","387","probe-251","","","","","0","[object Object]","null","null","0",""
"","do_trial","460","2659872","0.0-435.0-0.0","365.7000000476837","","","","50","0,1,0","6","blank","388","null","0.2313789980534539","0.933711964174022","0.3313222776579083","1","","","","","",""
"","do_trial","461","2663808","0.0-436.0-0.0","354.7999999523163","","","","50","0,0,0","6","blank","389","null","0.6450050687261265","0.6714941950757113","0.22525943971613493","0","","","","","",""
"","do_trial","462","2667830","0.0-437.0-0.0","449.39999985694885","","","","50","0,1,0","6","blank","390","null","0.7223232605068016","0.67732550463638","0.11172902373391752","1","","","","","",""
"","do_trial","463","2672054","0.0-438.0-0.0","638.6000001430511","","","","50","0,1,0","6","blank","391","null","0.730104515022154","0.4874022986420141","0.1305068261402076","1","","","","","",""
"","do_trial","464","2676119","0.0-439.0-0.0","483.2000000476837","","","","50","1,1,0","6","blank","392","null","0.8181687681739128","0.43399252767345586","0.08619029431905449","1","","","","","",""
"","do_recog","465","2679481","0.0-440.0-0.0","1843","","","","54","","","","393","probe-122","","","","","1","[object Object]","88","2","0",""
"","do_trial","466","2683396","0.0-441.0-0.0","327.2000000476837","","","","50","1,0,0","6","blank","394","null","0.7514190780829689","0.49079814334801736","0.05097131496677487","0","","","","","",""
"","do_recog","467","2686472","0.0-442.0-0.0","1557","","","","56","","","","395","probe-52","","","","","1","[object Object]","162","4","1",""
"","do_trial","468","2690511","0.0-443.0-0.0","455.7999999523163","","","","50","1,0,0","6","blank","396","null","0.6866712340950014","0.46365638056519204","0.15180154492000106","0","","","","","",""
"","do_trial","469","2694581","0.0-444.0-0.0","485.5","","","","50","1,0,1","6","blank","397","null","0.8974641336483973","0.5689230871721275","0.19971894680967553","0","","","","","",""
"","do_recog","470","2697692","0.0-445.0-0.0","1593.1999998092651","","","","56","","","","398","probe-162","","","","","1","[object Object]","82","2","1",""
"","do_trial","471","2702431","0.0-446.0-0.0","1166.0999999046326","","","","50","1,1,0","6","blank","399","null","0.7366527105749029","0.6199057038261536","0.08766137999451758","1","","","","","",""
"","do_recog","472","2705150","0.0-447.0-0.0","1212.0999999046326","","","","56","","","","400","probe-94","","","","","1","[object Object]","209","5","1",""
"","do_trial","473","2709148","0.0-448.0-0.0","447.39999985694885","","","","50","0,1,0","6","blank","401","null","0.773225584676206","0.5178773504555856","0.08108361354727701","1","","","","","",""
"","do_trial","474","2713456","0.0-449.0-0.0","730.4000000953674","","","","50","0,1,0","6","blank","402","null","0.829838698845895","0.4042213164320365","0.1849525660181662","1","","","","","",""
"","do_trial","475","2717793","0.0-450.0-0.0","751.7999999523163","","","","50","0,1,0","6","blank","403","null","0.7291892067933493","0.4235566473082961","0.23228899086149413","1","","","","","",""
"","do_trial","476","2721973","0.0-451.0-0.0","594.2999999523163","","","","50","1,0,1","6","blank","404","null","0.8064454777830657","0.38228602367874376","0.19634391359891024","0","","","","","",""
"","do_trial","477","2725920","0.0-452.0-0.0","363.80000019073486","","","","50","0,0,0","6","blank","405","null","0.8247041539933809","0.37834506484960356","0.24964808957852683","0","","","","","",""
"","do_trial","478","2730313","0.0-453.0-0.0","817.6999998092651","","","","50","1,1,1","6","blank","406","null","0.8007211676963556","0.44548763346207615","0.18088657711650988","1","","","","","",""
"","do_recog","479","2733500","0.0-454.0-0.0","1670","","","","55","","","","407","probe-154","","","","","1","[object Object]","44","1","1",""
"","do_trial","480","2737697","0.0-455.0-0.0","617.1000001430511","","","","50","1,0,1","6","blank","408","null","0.7116496909316201","0.3564569547903971","0.3678791880165144","0","","","","","",""
