"success","trial_type","trial_index","time_elapsed","internal_node_id","interactions","blur_events","focus_events","fullscreenenter_events","fullscreenexit_events","rt","stimulus","key_press","subject_id","participant_id","age","gender","prompt","response","choice_outcomes","context_n","context_img_id","trial_n","probe_img_id","pR_red","pR_white","pR_black","outcome","contextArray_ind","validImageProbes","invalidImageProbes","pRew_Red","pRew_White","pRew_Black","availableForMemProbe","choice_blocks"
"true","fullscreen","0","4224","0.0-0.0","""event"",""trial"",""time""
""fullscreenenter"",""0"",""3244""
","
","
","""event"",""trial"",""time""
""fullscreenenter"",""0"",""3244""
","
","","","","","","","","","","","","","","","","","","","","","","","","","",""
"","pavlovia","1","4230","0.0-1.0","""event"",""trial"",""time""
""fullscreenenter"",""0"",""3244""
","
","
","""event"",""trial"",""time""
""fullscreenenter"",""0"",""3244""
","
","","","","","","","","","","","","","","","","","","","","","","","","","",""
"","instruc1","2","49402","0.0-2.0","""event"",""trial"",""time""
""fullscreenenter"",""0"",""3244""
","
","
","""event"",""trial"",""time""
""fullscreenenter"",""0"",""3244""
","
","null","run_exp/static/audio/clip_1_welcome.m4a","null","218","518","8","Male","<div class='center'><p>Welcome! This is the first part of the study. It will last ~30 minutes. In part 1 and part 2 of the study, you are the head captain of a pirate ship traveling around the world to different islands. You will play a few different games throughout these two parts. Here is an overview of them:</p><br><p>Part 1 (today)</p><p>1. Instructions, practice game, and quiz</p><p>2. Pick a pirate game on 6 different islands</p><br><p>Part 2 (tomorrow)</p><p>3. Pick a pirate game and memory game</p><p>4. Where did you see this ship? </p></div>","","","","","","","","","","","","","","","","","",""
"","html-keyboard-response","3","51495","0.0-3.0","""event"",""trial"",""time""
""fullscreenenter"",""0"",""3244""
","
","
","""event"",""trial"",""time""
""fullscreenenter"",""0"",""3244""
","
","2089.8000000000466","<div class='center'><p>Welcome! This is the first part of the study. It will last ~30 minutes. In part 1 and part 2 of the study, you are the head captain of a pirate ship traveling around the world to different islands. You will play a few different games throughout these two parts. Here is an overview of them:</p><br><p>Part 1 (today)</p><p>1. Instructions, practice game, and quiz</p><p>2. Pick a pirate game on 6 different islands</p><br><p>Part 2 (tomorrow)</p><p>3. Pick a pirate game and memory game</p><p>4. Where did you see this ship? </p><p><b>[Press the space bar to continue]</b></p></div>","32","","","","","","","","","","","","","","","","","","","","","","",""
"","instruc2","4","57021","0.0-4.0","""event"",""trial"",""time""
""fullscreenenter"",""0"",""3244""
","
","
","""event"",""trial"",""time""
""fullscreenenter"",""0"",""3244""
","
","null","run_exp/static/audio/clip_2_different_places.m4a","null","","","","","<div class='center'><p>Today, you’ll visit these 6 islands on your journey. You'll be able to see these islands from your ship.</p><p><img src='run_exp/static/images/contexts/all_contexts.png' height='500'></p></div>","","","","","","","","","","","","","","","","","",""
"","html-keyboard-response","5","58845","0.0-5.0","""event"",""trial"",""time""
""fullscreenenter"",""0"",""3244""
","
","
","""event"",""trial"",""time""
""fullscreenenter"",""0"",""3244""
","
","1822.5","<div class='center'><p>Today, you’ll visit these 6 islands on your journey. You'll be able to see these islands from your ship.</p><p><img src='run_exp/static/images/contexts/all_contexts.png' height='500'></p><p><b>[Press the space bar to continue]</b></p></div>","32","","","","","","","","","","","","","","","","","","","","","","",""
"","instruc3","6","68730","0.0-6.0","""event"",""trial"",""time""
""fullscreenenter"",""0"",""3244""
","
","
","""event"",""trial"",""time""
""fullscreenenter"",""0"",""3244""
","
","null","run_exp/static/audio/clip_3_goal_of_game_1.m4a","null","","","","","<div class='center'><p> The pirates on your ship will rob other ships as they leave the island.</p> These ships have just sold their goods to the islanders, so they will be filled with lots and lots of gold.</p><p><img src='run_exp/static/images/tutorial/ship_center.png' height='400'></p></div>","","","","","","","","","","","","","","","","","",""
"","html-keyboard-response","7","69984","0.0-7.0","""event"",""trial"",""time""
""fullscreenenter"",""0"",""3244""
","
","
","""event"",""trial"",""time""
""fullscreenenter"",""0"",""3244""
","
","1252.8000000000466","<div class='center'><p> The pirates on your ship will rob other ships as they leave the island.</p> These ships have just sold their goods to the islanders, so they will be filled with lots and lots of gold.</p><p><img src='run_exp/static/images/tutorial/ship_center.png' height='400'></p><p><b>[Press the space bar to continue]</b></p></div>","32","","","","","","","","","","","","","","","","","","","","","","",""
"","instruc4","8","98188","0.0-8.0","""event"",""trial"",""time""
""fullscreenenter"",""0"",""3244""
","
","
","""event"",""trial"",""time""
""fullscreenenter"",""0"",""3244""
","
","null","run_exp/static/audio/clip_4_goal_of_game_2.m4a","null","","","","","<div class='center'><p>As the head captain, you do not have to rob any ships yourself. Another pirate will be doing the robbing for you. First, you will choose a pirate to rob the next ship.</p><p><img src='run_exp/static/images/tutorial/pirates_all_crop.png' height='200'></p><p>Then, you'll see if the pirate successfully robbed the ship of their gold. If they were successful, then you'll get a stack of gold coins like this:</p><p><img src='run_exp/static/images/tutorial/reward.png' height='150'></p><p> If they were <b>not</b> successful, then you'll get no gold coins, and you'll see a big red x like this: </p><p><img src='run_exp/static/images/tutorial/reward_no.png' height='150'></p><p> How much bonus money you make is based on how many gold coins you collect.</p><div>","","","","","","","","","","","","","","","","","",""
"","html-keyboard-response","9","121126","0.0-9.0","""event"",""trial"",""time""
""fullscreenenter"",""0"",""3244""
","
","
","""event"",""trial"",""time""
""fullscreenenter"",""0"",""3244""
","
","22935.400000000023","<div class='center'><p>As the head captain, you do not have to rob any ships yourself. Another pirate will be doing the robbing for you. First, you will choose a pirate to rob the next ship.</p><p><img src='run_exp/static/images/tutorial/pirates_all_crop.png' height='200'></p><p>Then, you'll see if the pirate successfully robbed the ship of their gold. If they were successful, then you'll get a stack of gold coins like this:</p><p><img src='run_exp/static/images/tutorial/reward.png' height='150'></p><p> If they were <b>not</b> successful, then you'll get no gold coins, and you'll see a big red x like this: </p><p><img src='run_exp/static/images/tutorial/reward_no.png' height='150'></p><p> How much bonus money you make is based on how many gold coins you collect.</p<p><b>[Press the space bar to continue]</b></p></div>","32","","","","","","","","","","","","","","","","","","","","","","",""
"","instruc5","10","141580","0.0-10.0","""event"",""trial"",""time""
""fullscreenenter"",""0"",""3244""
","
","
","""event"",""trial"",""time""
""fullscreenenter"",""0"",""3244""
","
","20451.599999999977","run_exp/static/audio/clip_5_probabilistic.m4a","49","","","","","<div class='center'><p>Even the most skilled pirate can not rob EVERY ship.</p><p> Some ships will have very strong protections against pirate attacks.</p><p> Blue beard, here, is very, very good at robbing ships, but he won't be successful every time he tries to rob one.</p><p> You can press the <b>‘1’</b> key on the keyboard to choose him.</p><p> Try choosing him 10 times to see how often he succeeds at robbing a ship. </p><p><img src='run_exp/static/images/tutorial/blue.png' height='500'></p></div>","","","","","","","","","","","","","","","","","",""
"","html-keyboard-response","11","143082","0.0-11.0","""event"",""trial"",""time""
""fullscreenenter"",""0"",""3244""
","
","
","""event"",""trial"",""time""
""fullscreenenter"",""0"",""3244""
","
","null","<div class='center'><p><img src='run_exp/static/images/tutorial/blue_win.png' height='500'></p></div>","null","","","","","","","","","","","","","","","","","","","","","","",""
"","html-keyboard-response","12","143260","0.0-12.0","""event"",""trial"",""time""
""fullscreenenter"",""0"",""3244""
","
","
","""event"",""trial"",""time""
""fullscreenenter"",""0"",""3244""
","
","176.90000000002328","<div class='center'><img src='run_exp/static/images/tutorial/blue.png' height='500'></p></div>","49","","","","","","","","","","","","","","","","","","","","","","",""
"","html-keyboard-response","13","144762","0.0-13.0","""event"",""trial"",""time""
""fullscreenenter"",""0"",""3244""
","
","
","""event"",""trial"",""time""
""fullscreenenter"",""0"",""3244""
","
","null","<div class='center'><p><img src='run_exp/static/images/tutorial/blue_win.png' height='500'></p></div>","null","","","","","","","","","","","","","","","","","","","","","","",""
"","html-keyboard-response","14","144973","0.0-14.0","""event"",""trial"",""time""
""fullscreenenter"",""0"",""3244""
","
","
","""event"",""trial"",""time""
""fullscreenenter"",""0"",""3244""
","
","209.90000000002328","<div class='center'><img src='run_exp/static/images/tutorial/blue.png' height='500'></p></div>","49","","","","","","","","","","","","","","","","","","","","","","",""
"","html-keyboard-response","15","146474","0.0-15.0","""event"",""trial"",""time""
""fullscreenenter"",""0"",""3244""
","
","
","""event"",""trial"",""time""
""fullscreenenter"",""0"",""3244""
","
","null","<div class='center'><p><img src='run_exp/static/images/tutorial/blue_win.png' height='500'></p></div>","null","","","","","","","","","","","","","","","","","","","","","","",""
"","html-keyboard-response","16","147082","0.0-16.0","""event"",""trial"",""time""
""fullscreenenter"",""0"",""3244""
","
","
","""event"",""trial"",""time""
""fullscreenenter"",""0"",""3244""
","
","606.2000000000698","<div class='center'><img src='run_exp/static/images/tutorial/blue.png' height='500'></p></div>","49","","","","","","","","","","","","","","","","","","","","","","",""
"","html-keyboard-response","17","148583","0.0-17.0","""event"",""trial"",""time""
""fullscreenenter"",""0"",""3244""
","
","
","""event"",""trial"",""time""
""fullscreenenter"",""0"",""3244""
","
","null","<div class='center'><p><img src='run_exp/static/images/tutorial/blue_no_win.png' height='500'></p></div>","null","","","","","","","","","","","","","","","","","","","","","","",""
"","html-keyboard-response","18","149058","0.0-18.0","""event"",""trial"",""time""
""fullscreenenter"",""0"",""3244""
","
","
","""event"",""trial"",""time""
""fullscreenenter"",""0"",""3244""
","
","473.20000000006985","<div class='center'><img src='run_exp/static/images/tutorial/blue.png' height='500'></p></div>","49","","","","","","","","","","","","","","","","","","","","","","",""
"","html-keyboard-response","19","150560","0.0-19.0","""event"",""trial"",""time""
""fullscreenenter"",""0"",""3244""
","
","
","""event"",""trial"",""time""
""fullscreenenter"",""0"",""3244""
","
","null","<div class='center'><p><img src='run_exp/static/images/tutorial/blue_win.png' height='500'></p></div>","null","","","","","","","","","","","","","","","","","","","","","","",""
"","html-keyboard-response","20","151008","0.0-20.0","""event"",""trial"",""time""
""fullscreenenter"",""0"",""3244""
","
","
","""event"",""trial"",""time""
""fullscreenenter"",""0"",""3244""
","
","447.0999999999767","<div class='center'><img src='run_exp/static/images/tutorial/blue.png' height='500'></p></div>","49","","","","","","","","","","","","","","","","","","","","","","",""
"","html-keyboard-response","21","152509","0.0-21.0","""event"",""trial"",""time""
""fullscreenenter"",""0"",""3244""
","
","
","""event"",""trial"",""time""
""fullscreenenter"",""0"",""3244""
","
","null","<div class='center'><p><img src='run_exp/static/images/tutorial/blue_win.png' height='500'></p></div>","null","","","","","","","","","","","","","","","","","","","","","","",""
"","html-keyboard-response","22","152900","0.0-22.0","""event"",""trial"",""time""
""fullscreenenter"",""0"",""3244""
","
","
","""event"",""trial"",""time""
""fullscreenenter"",""0"",""3244""
","
","389.79999999993015","<div class='center'><img src='run_exp/static/images/tutorial/blue.png' height='500'></p></div>","49","","","","","","","","","","","","","","","","","","","","","","",""
"","html-keyboard-response","23","154402","0.0-23.0","""event"",""trial"",""time""
""fullscreenenter"",""0"",""3244""
","
","
","""event"",""trial"",""time""
""fullscreenenter"",""0"",""3244""
","
","null","<div class='center'><p><img src='run_exp/static/images/tutorial/blue_win.png' height='500'></p></div>","null","","","","","","","","","","","","","","","","","","","","","","",""
"","html-keyboard-response","24","154843","0.0-24.0","""event"",""trial"",""time""
""fullscreenenter"",""0"",""3244""
","
","
","""event"",""trial"",""time""
""fullscreenenter"",""0"",""3244""
","
","439.9000000000233","<div class='center'><img src='run_exp/static/images/tutorial/blue.png' height='500'></p></div>","49","","","","","","","","","","","","","","","","","","","","","","",""
"","html-keyboard-response","25","156345","0.0-25.0","""event"",""trial"",""time""
""fullscreenenter"",""0"",""3244""
","
","
","""event"",""trial"",""time""
""fullscreenenter"",""0"",""3244""
","
","null","<div class='center'><p><img src='run_exp/static/images/tutorial/blue_no_win.png' height='500'></p></div>","null","","","","","","","","","","","","","","","","","","","","","","",""
"","html-keyboard-response","26","157043","0.0-26.0","""event"",""trial"",""time""
""fullscreenenter"",""0"",""3244""
","
","
","""event"",""trial"",""time""
""fullscreenenter"",""0"",""3244""
","
","696.5","<div class='center'><img src='run_exp/static/images/tutorial/blue.png' height='500'></p></div>","49","","","","","","","","","","","","","","","","","","","","","","",""
"","html-keyboard-response","27","158545","0.0-27.0","""event"",""trial"",""time""
""fullscreenenter"",""0"",""3244""
","
","
","""event"",""trial"",""time""
""fullscreenenter"",""0"",""3244""
","
","null","<div class='center'><p><img src='run_exp/static/images/tutorial/blue_win.png' height='500'></p></div>","null","","","","","","","","","","","","","","","","","","","","","","",""
"","html-keyboard-response","28","159990","0.0-28.0","""event"",""trial"",""time""
""fullscreenenter"",""0"",""3244""
","
","
","""event"",""trial"",""time""
""fullscreenenter"",""0"",""3244""
","
","1444.3999999999069","<div class='center'><img src='run_exp/static/images/tutorial/blue.png' height='500'></p></div>","49","","","","","","","","","","","","","","","","","","","","","","",""
"","html-keyboard-response","29","161492","0.0-29.0","""event"",""trial"",""time""
""fullscreenenter"",""0"",""3244""
","
","
","""event"",""trial"",""time""
""fullscreenenter"",""0"",""3244""
","
","null","<div class='center'><p><img src='run_exp/static/images/tutorial/blue_win.png' height='500'></p></div>","null","","","","","","","","","","","","","","","","","","","","","","",""
"","instruc6","30","166994","0.0-30.0","""event"",""trial"",""time""
""fullscreenenter"",""0"",""3244""
","
","
","""event"",""trial"",""time""
""fullscreenenter"",""0"",""3244""
","
","null","run_exp/static/audio/clip_6_blue_beard_outcome.m4a","null","","","","","<div class='center'><p> See, he succeeded in robbing the ships most of the time but not every time. </p></div>","","","","","","","","","","","","","","","","","",""
"","html-keyboard-response","31","169419","0.0-31.0","""event"",""trial"",""time""
""fullscreenenter"",""0"",""3244""
","
","
","""event"",""trial"",""time""
""fullscreenenter"",""0"",""3244""
","
","2424.0999999999767","<div class='center'><p> See, he succeeded in robbing the ships most of the time but not every time. </p><p><b>[Press the space bar to continue]</b></p></div>","32","","","","","","","","","","","","","","","","","","","","","","",""
"","audio-keyboard-response","32","198453","0.0-32.0","""event"",""trial"",""time""
""fullscreenenter"",""0"",""3244""
","
","
","""event"",""trial"",""time""
""fullscreenenter"",""0"",""3244""
","
","29031.699999999953","run_exp/static/audio/clip_7_pick_pirate.m4a","51","","","","","","","","","","","","","","","","","","","","","","",""
"","audio-keyboard-response","33","201377","0.0-33.0-0.0","""event"",""trial"",""time""
""fullscreenenter"",""0"",""3244""
","
","
","""event"",""trial"",""time""
""fullscreenenter"",""0"",""3244""
","
","2919.9000000000233","run_exp/static/audio/clip_8_chosen_pirate_win.m4a","32","","","","","","","","","","","","","","","","","","","","","","",""
"","audio-keyboard-response","34","203283","0.0-33.0-1.0","""event"",""trial"",""time""
""fullscreenenter"",""0"",""3244""
","
","
","""event"",""trial"",""time""
""fullscreenenter"",""0"",""3244""
","
","1903.1999999999534","run_exp/static/audio/clip_9_pick_a_pirate_again.m4a","50","","","","","","","","","","","","","","","","","","","","","","",""
"","audio-keyboard-response","35","205903","0.0-34.0-0.0","""event"",""trial"",""time""
""fullscreenenter"",""0"",""3244""
","
","
","""event"",""trial"",""time""
""fullscreenenter"",""0"",""3244""
","
","2617.4000000000233","run_exp/static/audio/clip_10_chosen_pirate_loss.m4a","32","","","","","","","","","","","","","","","","","","","","","","",""
"","instruc9","36","211658","0.0-35.0-0.0","""event"",""trial"",""time""
""fullscreenenter"",""0"",""3244""
","
","
","""event"",""trial"",""time""
""fullscreenenter"",""0"",""3244""
","
","null","run_exp/static/audio/clip_11_time_out.m4a","null","","","","","<div class='center'><p>If you don’t make your choice fast enough, you’ll have to wait a few seconds before you can make another one. </p><p><img src='run_exp/static/images/miscellaneous/hurry_up.png' height='500'></p></div>","","","","","","","","","","","","","","","","","",""
"","html-keyboard-response","37","213118","0.0-35.0-1.0","""event"",""trial"",""time""
""fullscreenenter"",""0"",""3244""
","
","
","""event"",""trial"",""time""
""fullscreenenter"",""0"",""3244""
","
","1457.1999999999534","<div class='center'><p>If you don’t make your choice fast enough, you’ll have to wait a few seconds before you can make another one. </p><p><img src='run_exp/static/images/miscellaneous/hurry_up.png' height='500'></p><p><b>[Press the space bar to continue]</b></p></div>","32","","","","","","","","","","","","","","","","","","","","","","",""
"","instruc10","38","252452","0.0-35.0-2.0","""event"",""trial"",""time""
""fullscreenenter"",""0"",""3244""
","
","
","""event"",""trial"",""time""
""fullscreenenter"",""0"",""3244""
","
","null","run_exp/static/audio/clip_12_probe.m4a","null","","","","","<div class='center'><p>Once you've chosen a pirate, you’ll be shown the ship they are robbing. You will never rob the same ship twice. Ships can be told apart from one another by the image on them. These are the goods that they sell. See, this ship has a travel mug on it. </p><p> You’ll have to remember which island you saw each ship on. You will win more gold coins and hence more bonus money if you remember correctly! To help you remember, you can imagine a story. For example, here, you could imagine a mug full of water in the desert. Or, as another example, if on the forest island, your pirate robbed a ship with an apple on it, you could imagine an apple falling from a tree in the forest. </p><p><img src='run_exp/static/images/tutorial/example_probe.png' height='500'></p></div>","","","","","","","","","","","","","","","","","",""
"","html-keyboard-response","39","263566","0.0-35.0-3.0","""event"",""trial"",""time""
""fullscreenenter"",""0"",""3244""
","
","
","""event"",""trial"",""time""
""fullscreenenter"",""0"",""3244""
","
","11112.199999999953","<div class='center'><p>Once you've chosen a pirate, you’ll be shown the ship they are robbing. You will never rob the same ship twice. Ships can be told apart from one another by the image on them. These are the goods that they sell. See, this ship has a travel mug on it. </p><p> You’ll have to remember which island you saw each ship on. You will win more gold coins and hence more bonus money if you remember correctly! To help you remember, you can imagine a story. For example, here, you could imagine a mug full of water in the desert. Or, as another example, if on the forest island, your pirate robbed a ship with an apple on it, you could imagine an apple falling from a tree in the forest. </p><p><img src='run_exp/static/images/tutorial/example_probe.png' height='500'></p><p><b>[Press the space bar to continue]</b></p></div>","32","","","","","","","","","","","","","","","","","","","","","","",""
"","instruc11","40","280034","0.0-35.0-4.0","""event"",""trial"",""time""
""fullscreenenter"",""0"",""3244""
","
","
","""event"",""trial"",""time""
""fullscreenenter"",""0"",""3244""
","
","null","run_exp/static/audio/clip_13_changepoint.m4a","null","","","","","<div class='center'><p>How successful a pirate is at robbing ships will depend on the island you’re on.</p><p> A pirate may have visited this island many times before and gained a lot of practice robbing ships there.</p><p>So, they’re more likely to be successful than a pirate who has never visited the island before.</p></div>","","","","","","","","","","","","","","","","","",""
"","html-keyboard-response","41","288225","0.0-35.0-5.0","""event"",""trial"",""time""
""fullscreenenter"",""0"",""3244""
","
","
","""event"",""trial"",""time""
""fullscreenenter"",""0"",""3244""
","
","8190.100000000093","<div class='center'><p>How successful a pirate is at robbing ships will depend on the island you’re on.</p><p> A pirate may have visited this island many times before and gained a lot of practice robbing ships there.</p><p>So, they’re more likely to be successful than a pirate who has never visited the island before.</p><p><b>[Press the space bar to continue]</b></p></div>","32","","","","","","","","","","","","","","","","","","","","","","",""
"","instruc12","42","329562","0.0-35.0-6.0","""event"",""trial"",""time""
""fullscreenenter"",""0"",""3244""
","
","
","""event"",""trial"",""time""
""fullscreenenter"",""0"",""3244""
","
","null","run_exp/static/audio/clip_14_drift.m4a","null","","","","","<div class='center'><p>How successful a pirate is at robbing ships can also change over the time spent on the island. </p><p> Ships may hear from islanders about the pirates coming and will improve their protections against the attack. This may make it harder to rob them.</p><p> Ships may also become lazy and weaken the strength of their protections. This may make it easier to rob them.</p><br><p>Things are always changing on the high seas! So, try your best to pay attention!</p><p><img src='run_exp/static/images/tutorial/contingency.png' height='500'></p></div>","","","","","","","","","","","","","","","","","",""
"","html-keyboard-response","43","331488","0.0-35.0-7.0","""event"",""trial"",""time""
""fullscreenenter"",""0"",""3244""
","
","
","""event"",""trial"",""time""
""fullscreenenter"",""0"",""3244""
","
","1924.1999999999534","<div class='center'><p>How successful a pirate is at robbing ships can also change over the time spent on the island. </p><p> Ships may hear from islanders about the pirates coming and will improve their protections against the attack. This may make it harder to rob them.</p><p> Ships may also become lazy and weaken the strength of their protections. This may make it easier to rob them.</p><br><p>Things are always changing on the high seas! So, try your best to pay attention!</p><p><img src='run_exp/static/images/tutorial/contingency.png' height='500'></p><p><b>[Press the space bar to continue]</b></p></div>","32","","","","","","","","","","","","","","","","","","","","","","",""
"","instruc13","44","366919","0.0-35.0-8.0","""event"",""trial"",""time""
""fullscreenenter"",""0"",""3244""
","
","
","""event"",""trial"",""time""
""fullscreenenter"",""0"",""3244""
","
","null","run_exp/static/audio/clip_15_summary.m4a","null","","","","","<div class='center'><p>Let's go over the instructions quickly again. You have two important things to do: </p><b><p> 1. Pick the pirate who is the best at robbing ships on the current island. </p></b><b><p> 2. Remember on which island a ship was robbed.</p> </b><p>The amount of bonus money you can win depends on both.</p><p><br><p>Let’s try a practice game. The game will start by showing you the pirates. First, pick a pirate using the <b> 1, 2, 3 </b> keys on your keyboard. When you are shown a ship, try to remember which island you’re on by making up a story.</p><p>This is just a practice game, so you’re not playing for money. </p><p> Good luck! This game will be very difficult but try your best!</p></div>","","","","","","","","","","","","","","","","","",""
"","html-keyboard-response","45","370554","0.0-35.0-9.0","""event"",""trial"",""time""
""fullscreenenter"",""0"",""3244""
","
","
","""event"",""trial"",""time""
""fullscreenenter"",""0"",""3244""
","
","3633.399999999907","<div class='center'><p>Let's go over the instructions quickly again. You have two important things to do: </p><b><p> 1. Pick the pirate who is the best at robbing ships on the current island. </p></b><b><p> 2. Remember on which island a ship was robbed.</p> </b><p>The amount of bonus money you can win depends on both.</p><p><br><p>Let’s try a practice game. The game will start by showing you the pirates. First, pick a pirate using the <b> 1, 2, 3 </b> keys on your keyboard. When you are shown a ship, try to remember which island you’re on by making up a story.</p><p>This is just a practice game, so you’re not playing for money. </p><p> Good luck! This game will be very difficult but try your best!</p><p><b>[Press the space bar to continue]</b></p></div>","32","","","","","","","","","","","","","","","","","","","","","","",""
"","do_welcome","46","374566","0.0-35.0-10.0","""event"",""trial"",""time""
""fullscreenenter"",""0"",""3244""
","
","
","""event"",""trial"",""time""
""fullscreenenter"",""0"",""3244""
","
","null","","","","","","","","null","","","","","","","","","","","","","","","","",""
"","do_trial","47","380574","0.0-35.0-11.0","""event"",""trial"",""time""
""fullscreenenter"",""0"",""3244""
","
","
","""event"",""trial"",""time""
""fullscreenenter"",""0"",""3244""
","
","null","","","","","","","","null","1,0,0","","","","","","","","","","","","","","","",""
"","html-keyboard-response","48","381576","0.0-36.0-0.0","""event"",""trial"",""time""
""fullscreenenter"",""0"",""3244""
","
","
","""event"",""trial"",""time""
""fullscreenenter"",""0"",""3244""
","
","null","<p></p>","null","","","","","","","","","","","","","","","","","","","","","","",""
"","do_trial","49","387201","0.0-36.0-1.0","""event"",""trial"",""time""
""fullscreenenter"",""0"",""3244""
","
","
","""event"",""trial"",""time""
""fullscreenenter"",""0"",""3244""
","
","1118.1000000000931","","","","","","","","49","1,0,0","","","","","","","","","","","","","","","",""
"","html-keyboard-response","50","388202","0.0-37.0-0.0","""event"",""trial"",""time""
""fullscreenenter"",""0"",""3244""
","
","
","""event"",""trial"",""time""
""fullscreenenter"",""0"",""3244""
","
","null","<p></p>","null","","","","","","","","","","","","","","","","","","","","","","",""
"","do_trial","51","394695","0.0-37.0-1.0","""event"",""trial"",""time""
""fullscreenenter"",""0"",""3244""
","
","
","""event"",""trial"",""time""
""fullscreenenter"",""0"",""3244""
","
","1985.8999999999069","","","","","","","","50","1,1,0","","","","","","","","","","","","","","","",""
"","html-keyboard-response","52","395697","0.0-38.0-0.0","""event"",""trial"",""time""
""fullscreenenter"",""0"",""3244""
","
","
","""event"",""trial"",""time""
""fullscreenenter"",""0"",""3244""
","
","null","<p></p>","null","","","","","","","","","","","","","","","","","","","","","","",""
"","do_trial","53","400723","0.0-38.0-1.0","""event"",""trial"",""time""
""fullscreenenter"",""0"",""3244""
","
","
","""event"",""trial"",""time""
""fullscreenenter"",""0"",""3244""
","
","519.8000000000466","","","","","","","","51","1,0,1","","","","","","","","","","","","","","","",""
"","html-keyboard-response","54","401725","0.0-39.0-0.0","""event"",""trial"",""time""
""fullscreenenter"",""0"",""3244""
","
","
","""event"",""trial"",""time""
""fullscreenenter"",""0"",""3244""
","
","null","<p></p>","null","","","","","","","","","","","","","","","","","","","","","","",""
"","do_trial","55","407733","0.0-39.0-1.0","""event"",""trial"",""time""
""fullscreenenter"",""0"",""3244""
","
","
","""event"",""trial"",""time""
""fullscreenenter"",""0"",""3244""
","
","null","","","","","","","","null","0,1,0","","","","","","","","","","","","","","","",""
"","html-keyboard-response","56","408735","0.0-40.0-0.0","""event"",""trial"",""time""
""fullscreenenter"",""0"",""3244""
","
","
","""event"",""trial"",""time""
""fullscreenenter"",""0"",""3244""
","
","null","<p></p>","null","","","","","","","","","","","","","","","","","","","","","","",""
"","do_trial","57","413847","0.0-40.0-1.0","""event"",""trial"",""time""
""fullscreenenter"",""0"",""3244""
","
","
","""event"",""trial"",""time""
""fullscreenenter"",""0"",""3244""
","
","604.8999999999069","","","","","","","","51","0,1,0","","","","","","","","","","","","","","","",""
"","html-keyboard-response","58","414848","0.0-41.0-0.0","""event"",""trial"",""time""
""fullscreenenter"",""0"",""3244""
","
","
","""event"",""trial"",""time""
""fullscreenenter"",""0"",""3244""
","
","null","<p></p>","null","","","","","","","","","","","","","","","","","","","","","","",""
"","do_trial","59","419920","0.0-41.0-1.0","""event"",""trial"",""time""
""fullscreenenter"",""0"",""3244""
","
","
","""event"",""trial"",""time""
""fullscreenenter"",""0"",""3244""
","
","565.4000000001397","","","","","","","","51","1,0,0","","","","","","","","","","","","","","","",""
"","do_bye","60","421426","0.0-42.0-0.0","""event"",""trial"",""time""
""fullscreenenter"",""0"",""3244""
","
","
","""event"",""trial"",""time""
""fullscreenenter"",""0"",""3244""
","
","null","","","","","","","","null","","","","","","","","","","","","","","","","",""
"","do_travel","61","430430","0.0-42.0-1.0","""event"",""trial"",""time""
""fullscreenenter"",""0"",""3244""
","
","
","""event"",""trial"",""time""
""fullscreenenter"",""0"",""3244""
","
","null","","","","","","","","null","","","","","","","","","","","","","","","","",""
"","do_welcome","62","434435","0.0-42.0-2.0","""event"",""trial"",""time""
""fullscreenenter"",""0"",""3244""
","
","
","""event"",""trial"",""time""
""fullscreenenter"",""0"",""3244""
","
","null","","","","","","","","null","","","","","","","","","","","","","","","","",""
"","do_trial","63","440442","0.0-42.0-3.0","""event"",""trial"",""time""
""fullscreenenter"",""0"",""3244""
","
","
","""event"",""trial"",""time""
""fullscreenenter"",""0"",""3244""
","
","null","","","","","","","","null","1,0,0","","","","","","","","","","","","","","","",""
"","do_bye","64","441947","0.0-43.0-0.0","""event"",""trial"",""time""
""fullscreenenter"",""0"",""3244""
","
","
","""event"",""trial"",""time""
""fullscreenenter"",""0"",""3244""
","
","null","","","","","","","","null","","","","","","","","","","","","","","","","",""
"","do_travel","65","450950","0.0-43.0-1.0","""event"",""trial"",""time""
""fullscreenenter"",""0"",""3244""
","
","
","""event"",""trial"",""time""
""fullscreenenter"",""0"",""3244""
","
","null","","","","","","","","null","","","","","","","","","","","","","","","","",""
"","do_welcome","66","454956","0.0-43.0-2.0","""event"",""trial"",""time""
""fullscreenenter"",""0"",""3244""
","
","
","""event"",""trial"",""time""
""fullscreenenter"",""0"",""3244""
","
","null","","","","","","","","null","","","","","","","","","","","","","","","","",""
"","do_trial","67","460028","0.0-43.0-3.0","""event"",""trial"",""time""
""fullscreenenter"",""0"",""3244""
","
","
","""event"",""trial"",""time""
""fullscreenenter"",""0"",""3244""
","
","556.6000000000931","","","","","","","","50","1,0,0","","","","","","","","","","","","","","","",""
"","html-keyboard-response","68","461030","0.0-44.0-0.0","""event"",""trial"",""time""
""fullscreenenter"",""0"",""3244""
","
","
","""event"",""trial"",""time""
""fullscreenenter"",""0"",""3244""
","
","null","<p></p>","null","","","","","","","","","","","","","","","","","","","","","","",""
"","do_trial","69","466106","0.0-44.0-1.0","""event"",""trial"",""time""
""fullscreenenter"",""0"",""3244""
","
","
","""event"",""trial"",""time""
""fullscreenenter"",""0"",""3244""
","
","569.6999999999534","","","","","","","","51","1,0,1","","","","","","","","","","","","","","","",""
"","html-keyboard-response","70","467108","0.0-45.0-0.0","""event"",""trial"",""time""
""fullscreenenter"",""0"",""3244""
","
","
","""event"",""trial"",""time""
""fullscreenenter"",""0"",""3244""
","
","null","<p></p>","null","","","","","","","","","","","","","","","","","","","","","","",""
"","do_trial","71","472068","0.0-45.0-1.0","""event"",""trial"",""time""
""fullscreenenter"",""0"",""3244""
","
","
","""event"",""trial"",""time""
""fullscreenenter"",""0"",""3244""
","
","453.89999999990687","","","","","","","","49","1,1,0","","","","","","","","","","","","","","","",""
"","html-keyboard-response","72","473069","0.0-46.0-0.0","""event"",""trial"",""time""
""fullscreenenter"",""0"",""3244""
","
","
","""event"",""trial"",""time""
""fullscreenenter"",""0"",""3244""
","
","null","<p></p>","null","","","","","","","","","","","","","","","","","","","","","","",""
"","do_trial","73","477790","0.0-46.0-1.0","""event"",""trial"",""time""
""fullscreenenter"",""0"",""3244""
","
","
","""event"",""trial"",""time""
""fullscreenenter"",""0"",""3244""
","
","214.30000000004657","","","","","","","","51","0,0,1","","","","","","","","","","","","","","","",""
"","html-keyboard-response","74","478792","0.0-47.0-0.0","""event"",""trial"",""time""
""fullscreenenter"",""0"",""3244""
","
","
","""event"",""trial"",""time""
""fullscreenenter"",""0"",""3244""
","
","null","<p></p>","null","","","","","","","","","","","","","","","","","","","","","","",""
"","do_trial","75","483886","0.0-47.0-1.0","""event"",""trial"",""time""
""fullscreenenter"",""0"",""3244""
","
","
","""event"",""trial"",""time""
""fullscreenenter"",""0"",""3244""
","
","587.6999999999534","","","","","","","","49","1,0,1","","","","","","","","","","","","","","","",""
"","html-keyboard-response","76","484008","0.0-48.0-0.0","""event"",""trial"",""time""
""fullscreenenter"",""0"",""3244""
","
","
","""event"",""trial"",""time""
""fullscreenenter"",""0"",""3244""
","
","119.9000000001397","<div class='center'><p><img src='run_exp/static/images/tutorial/prac_best_pirate.png'  height='500'></p></div>","49","","","","","","","","","","","","","","","","","","","","","","",""
"","html-keyboard-response","77","486245","0.0-49.0-0.0","""event"",""trial"",""time""
""fullscreenenter"",""0"",""3244""
","
","
","""event"",""trial"",""time""
""fullscreenenter"",""0"",""3244""
","
","2235.0999999998603","<div class='center'><p>That's correct! Red beard was the best.</p><p><b>[Press the space bar to continue]</b></p></div>","32","","","","","","","","","","","","","","","","","","","","","","",""
"","html-keyboard-response","78","498119","0.0-49.0-1.0","""event"",""trial"",""time""
""fullscreenenter"",""0"",""3244""
","
","
","""event"",""trial"",""time""
""fullscreenenter"",""0"",""3244""
","
","11872.699999999953","<div class='center'><p><img src='run_exp/static/images/tutorial/prac_source.png'  height='500'></p></div>","50","","","","","","","","","","","","","","","","","","","","","","",""
"","html-keyboard-response","79","500254","0.0-50.0-0.0","""event"",""trial"",""time""
""fullscreenenter"",""0"",""3244""
","
","
","""event"",""trial"",""time""
""fullscreenenter"",""0"",""3244""
","
","2133.399999999907","<div class='center'><p>That's correct! You saw this ship on the cavern island.</p><p><b>[Press the space bar to continue]</b></p></div>","32","","","","","","","","","","","","","","","","","","","","","","",""
"","quiz_beginning","80","511533","0.0-50.0-1.0","""event"",""trial"",""time""
""fullscreenenter"",""0"",""3244""
","
","
","""event"",""trial"",""time""
""fullscreenenter"",""0"",""3244""
","
","null","run_exp/static/audio/clip_16_quiz_intro.m4a","null","","","","","<div class='center'><p>Good job on the practice game! Now, you will be asked some true or false questions to make sure you really understand the rules of the game.</p><p> Press <b>'1'</b> on the keyboard for true and press <b>'2'</b> for false.</p></div>","","","","","","","","","","","","","","","","","",""
"","audio-keyboard-response","81","536286","0.0-50.0-2.0","""event"",""trial"",""time""
""fullscreenenter"",""0"",""3244""
","
","
","""event"",""trial"",""time""
""fullscreenenter"",""0"",""3244""
","
","24751.199999999953","run_exp/static/audio/clip_17_q1.m4a","49","","","","","","","","","","","","","","","","","","","","","","",""
"","correct","82","538825","0.0-51.0-0.0","""event"",""trial"",""time""
""fullscreenenter"",""0"",""3244""
","
","
","""event"",""trial"",""time""
""fullscreenenter"",""0"",""3244""
","
","null","run_exp/static/audio/clip_18_correct.m4a","null","","","","","<div class='center'><p>That's correct!</p></div>","","","","","","","","","","","","","","","","","",""
"","html-keyboard-response","83","539988","0.0-51.0-1.0","""event"",""trial"",""time""
""fullscreenenter"",""0"",""3244""
","
","
","""event"",""trial"",""time""
""fullscreenenter"",""0"",""3244""
","
","1162.2000000001863","<div class='center'><p>That's correct!</p><p><b>[Press the space bar to continue]</b></p></div>","32","","","","","","","","","","","","","","","","","","","","","","",""
"","audio-keyboard-response","84","555123","0.0-51.0-2.0","""event"",""trial"",""time""
""fullscreenenter"",""0"",""3244""
","
","
","""event"",""trial"",""time""
""fullscreenenter"",""0"",""3244""
","
","15132.899999999907","run_exp/static/audio/clip_20_q2.m4a","49","","","","","","","","","","","","","","","","","","","","","","",""
"","q2_err","85","560848","0.0-52.0-0.0","""event"",""trial"",""time""
""fullscreenenter"",""0"",""3244""
","
","
","""event"",""trial"",""time""
""fullscreenenter"",""0"",""3244""
","
","null","run_exp/static/audio/clip_21_wrong_q2.m4a","null","","","","","<div class='center'><p>That’s incorrect. Which pirate is the best may change during your time on the island.</p></div>","","","","","","","","","","","","","","","","","",""
"","html-keyboard-response","86","562376","0.0-52.0-1.0","""event"",""trial"",""time""
""fullscreenenter"",""0"",""3244""
","
","
","""event"",""trial"",""time""
""fullscreenenter"",""0"",""3244""
","
","1526.0999999998603","<div class='center'><p>That’s incorrect. Which pirate is the best may change during your time on the island.</p><p><b>[Press the space bar to continue]</b></p></div>","32","","","","","","","","","","","","","","","","","","","","","","",""
"","audio-keyboard-response","87","570603","0.0-52.0-2.0","""event"",""trial"",""time""
""fullscreenenter"",""0"",""3244""
","
","
","""event"",""trial"",""time""
""fullscreenenter"",""0"",""3244""
","
","8225.800000000047","run_exp/static/audio/clip_22_q3.m4a","50","","","","","","","","","","","","","","","","","","","","","","",""
"","correct","88","573301","0.0-53.0-0.0","""event"",""trial"",""time""
""fullscreenenter"",""0"",""3244""
","
","
","""event"",""trial"",""time""
""fullscreenenter"",""0"",""3244""
","
","null","run_exp/static/audio/clip_18_correct.m4a","null","","","","","<div class='center'><p>That's correct!</p></div>","","","","","","","","","","","","","","","","","",""
"","html-keyboard-response","89","580154","0.0-53.0-1.0","""event"",""trial"",""time""
""fullscreenenter"",""0"",""3244""
","
","
","""event"",""trial"",""time""
""fullscreenenter"",""0"",""3244""
","
","6852.200000000186","<div class='center'><p>That's correct!</p><p><b>[Press the space bar to continue]</b></p></div>","32","","","","","","","","","","","","","","","","","","","","","","",""
"","audio-keyboard-response","90","586449","0.0-53.0-2.0","""event"",""trial"",""time""
""fullscreenenter"",""0"",""3244""
","
","
","""event"",""trial"",""time""
""fullscreenenter"",""0"",""3244""
","
","6293","run_exp/static/audio/clip_24_q4.m4a","49","","","","","","","","","","","","","","","","","","","","","","",""
"","correct","91","589099","0.0-54.0-0.0","""event"",""trial"",""time""
""fullscreenenter"",""0"",""3244""
","
","
","""event"",""trial"",""time""
""fullscreenenter"",""0"",""3244""
","
","null","run_exp/static/audio/clip_18_correct.m4a","null","","","","","<div class='center'><p>That's correct!</p></div>","","","","","","","","","","","","","","","","","",""
"","html-keyboard-response","92","589904","0.0-54.0-1.0","""event"",""trial"",""time""
""fullscreenenter"",""0"",""3244""
","
","
","""event"",""trial"",""time""
""fullscreenenter"",""0"",""3244""
","
","804.2999999998137","<div class='center'><p>That's correct!</p><p><b>[Press the space bar to continue]</b></p></div>","32","","","","","","","","","","","","","","","","","","","","","","",""
"","q_all_err","93","596255","0.0-55.0-0.0","""event"",""trial"",""time""
""fullscreenenter"",""0"",""3244""
","
","
","""event"",""trial"",""time""
""fullscreenenter"",""0"",""3244""
","
","null","run_exp/static/audio/clip_26_quiz_redo.m4a","null","","","","","<div class='center'><p>Oops, you missed some questions. Now that you’ve heard the correct answers. Try the quiz again! </p></div>","","","","","","","","","","","","","","","","","",""
"","html-keyboard-response","94","598407","0.0-55.0-1.0","""event"",""trial"",""time""
""fullscreenenter"",""0"",""3244""
","
","
","""event"",""trial"",""time""
""fullscreenenter"",""0"",""3244""
","
","2150.9000000001397","<div class='center'><p>Oops, you missed some questions. Now that you’ve heard the correct answers. Try the quiz again! </p><p><b>[Press the space bar to continue]</b></p></div>","32","","","","","","","","","","","","","","","","","","","","","","",""
"","audio-keyboard-response","95","601325","0.0-55.0-2.0","""event"",""trial"",""time""
""fullscreenenter"",""0"",""3244""
","
","
","""event"",""trial"",""time""
""fullscreenenter"",""0"",""3244""
","
","2916.0999999998603","run_exp/static/audio/clip_17_q1.m4a","49","","","","","","","","","","","","","","","","","","","","","","",""
"","correct","96","603967","0.0-56.0-0.0","""event"",""trial"",""time""
""fullscreenenter"",""0"",""3244""
","
","
","""event"",""trial"",""time""
""fullscreenenter"",""0"",""3244""
","
","null","run_exp/static/audio/clip_18_correct.m4a","null","","","","","<div class='center'><p>That's correct!</p></div>","","","","","","","","","","","","","","","","","",""
"","html-keyboard-response","97","604527","0.0-56.0-1.0","""event"",""trial"",""time""
""fullscreenenter"",""0"",""3244""
","
","
","""event"",""trial"",""time""
""fullscreenenter"",""0"",""3244""
","
","558.8000000000466","<div class='center'><p>That's correct!</p><p><b>[Press the space bar to continue]</b></p></div>","32","","","","","","","","","","","","","","","","","","","","","","",""
"","audio-keyboard-response","98","610127","0.0-56.0-2.0","""event"",""trial"",""time""
""fullscreenenter"",""0"",""3244""
","
","
","""event"",""trial"",""time""
""fullscreenenter"",""0"",""3244""
","
","5598.899999999907","run_exp/static/audio/clip_20_q2.m4a","50","","","","","","","","","","","","","","","","","","","","","","",""
"","correct","99","612794","0.0-57.0-0.0","""event"",""trial"",""time""
""fullscreenenter"",""0"",""3244""
","
","
","""event"",""trial"",""time""
""fullscreenenter"",""0"",""3244""
","
","null","run_exp/static/audio/clip_18_correct.m4a","null","","","","","<div class='center'><p>That's correct!</p></div>","","","","","","","","","","","","","","","","","",""
"","html-keyboard-response","100","613521","0.0-57.0-1.0","""event"",""trial"",""time""
""fullscreenenter"",""0"",""3244""
","
","
","""event"",""trial"",""time""
""fullscreenenter"",""0"",""3244""
","
","726.3999999999069","<div class='center'><p>That's correct!</p><p><b>[Press the space bar to continue]</b></p></div>","32","","","","","","","","","","","","","","","","","","","","","","",""
"","audio-keyboard-response","101","616099","0.0-57.0-2.0","""event"",""trial"",""time""
""fullscreenenter"",""0"",""3244""
","
","
","""event"",""trial"",""time""
""fullscreenenter"",""0"",""3244""
","
","2573.8000000000466","run_exp/static/audio/clip_22_q3.m4a","50","","","","","","","","","","","","","","","","","","","","","","",""
"","correct","102","618743","0.0-58.0-0.0","""event"",""trial"",""time""
""fullscreenenter"",""0"",""3244""
","
","
","""event"",""trial"",""time""
""fullscreenenter"",""0"",""3244""
","
","null","run_exp/static/audio/clip_18_correct.m4a","null","","","","","<div class='center'><p>That's correct!</p></div>","","","","","","","","","","","","","","","","","",""
"","html-keyboard-response","103","619533","0.0-58.0-1.0","""event"",""trial"",""time""
""fullscreenenter"",""0"",""3244""
","
","
","""event"",""trial"",""time""
""fullscreenenter"",""0"",""3244""
","
","789.7999999998137","<div class='center'><p>That's correct!</p><p><b>[Press the space bar to continue]</b></p></div>","32","","","","","","","","","","","","","","","","","","","","","","",""
"","audio-keyboard-response","104","622570","0.0-58.0-2.0","""event"",""trial"",""time""
""fullscreenenter"",""0"",""3244""
","
","
","""event"",""trial"",""time""
""fullscreenenter"",""0"",""3244""
","
","3035.7999999998137","run_exp/static/audio/clip_24_q4.m4a","49","","","","","","","","","","","","","","","","","","","","","","",""
"","correct","105","625248","0.0-59.0-0.0","""event"",""trial"",""time""
""fullscreenenter"",""0"",""3244""
","
","
","""event"",""trial"",""time""
""fullscreenenter"",""0"",""3244""
","
","null","run_exp/static/audio/clip_18_correct.m4a","null","","","","","<div class='center'><p>That's correct!</p></div>","","","","","","","","","","","","","","","","","",""
"","html-keyboard-response","106","625907","0.0-59.0-1.0","""event"",""trial"",""time""
""fullscreenenter"",""0"",""3244""
","
","
","""event"",""trial"",""time""
""fullscreenenter"",""0"",""3244""
","
","657.6999999999534","<div class='center'><p>That's correct!</p><p><b>[Press the space bar to continue]</b></p></div>","32","","","","","","","","","","","","","","","","","","","","","","",""
"","q_all_corr","107","634632","0.0-60.0-0.0","""event"",""trial"",""time""
""fullscreenenter"",""0"",""3244""
","
","
","""event"",""trial"",""time""
""fullscreenenter"",""0"",""3244""
","
","null","run_exp/static/audio/clip_27_quiz_all_correct.m4a","null","","","","","<div class='center'><p>Good job! You’re now ready to move on to the real game! Remember this game will be difficult but don't get discouraged and try your best!</p></div>","","","","","","","","","","","","","","","","","",""
"","html-keyboard-response","108","642224","0.0-60.0-1.0","""event"",""trial"",""time""
""fullscreenenter"",""0"",""3244""
","
","
","""event"",""trial"",""time""
""fullscreenenter"",""0"",""3244""
","
","7588.600000000093","<div class='center'><p>Good job! You’re now ready to move on to the real game! Remember this game will be difficult but don't get discouraged and try your best!</p><p><b>[Press the space bar to continue]</b></p></div>","32","","","","","","","","","","","","","","","","","","","","","","",""
"","do_welcome","109","646230","0.0-61.0-0.0","""event"",""trial"",""time""
""fullscreenenter"",""0"",""3244""
","
","
","""event"",""trial"",""time""
""fullscreenenter"",""0"",""3244""
","
","null","","","","","","","","null","","","","","","","","","","","","","","","","",""
"","do_trial","110","652290","0.0-62.0-0.0","""event"",""trial"",""time""
""fullscreenenter"",""0"",""3244""
","
","
","""event"",""trial"",""time""
""fullscreenenter"",""0"",""3244""
","
","null","","","","","","","","null","1,0,0","0","highway","0","probe-142","0.6","0.3","0.1","","","","","","","","",""
"","html-keyboard-response","111","653292","0.0-62.0-1.0","""event"",""trial"",""time""
""fullscreenenter"",""0"",""3244""
","
","
","""event"",""trial"",""time""
""fullscreenenter"",""0"",""3244""
","
","null","<p></p>","null","","","","","","","","","","","","","","","","","","","","","","",""
"","do_trial","112","658581","0.0-63.0-0.0","""event"",""trial"",""time""
""fullscreenenter"",""0"",""3244""
","
","
","""event"",""trial"",""time""
""fullscreenenter"",""0"",""3244""
","
","730.8000000000466","","","","","","","","51","0,1,0","0","highway","1","probe-67","0.5324172940759513","0.3031822809973884","0.13137039071707704","0","","","","","","","",""
"","html-keyboard-response","113","659582","0.0-63.0-1.0","""event"",""trial"",""time""
""fullscreenenter"",""0"",""3244""
","
","
","""event"",""trial"",""time""
""fullscreenenter"",""0"",""3244""
","
","null","<p></p>","null","","","","","","","","","","","","","","","","","","","","","","",""
"","do_trial","114","665363","0.0-64.0-0.0","""event"",""trial"",""time""
""fullscreenenter"",""0"",""3244""
","
","
","""event"",""trial"",""time""
""fullscreenenter"",""0"",""3244""
","
","1224.5999999998603","","","","","","","","50","0,0,0","0","highway","2","probe-04","0.4841546874383748","0.3975651853663655","0.08497537288881014","0","","","","","","","",""
"","html-keyboard-response","115","666365","0.0-64.0-1.0","""event"",""trial"",""time""
""fullscreenenter"",""0"",""3244""
","
","
","""event"",""trial"",""time""
""fullscreenenter"",""0"",""3244""
","
","null","<p></p>","null","","","","","","","","","","","","","","","","","","","","","","",""
"","do_trial","116","671349","0.0-65.0-0.0","""event"",""trial"",""time""
""fullscreenenter"",""0"",""3244""
","
","
","""event"",""trial"",""time""
""fullscreenenter"",""0"",""3244""
","
","428.80000000004657","","","","","","","","49","1,1,0","0","highway","3","probe-65","0.655391645338009","0.3997892438981643","0.09943607195609629","1","","","","","","","",""
"","html-keyboard-response","117","672350","0.0-65.0-1.0","""event"",""trial"",""time""
""fullscreenenter"",""0"",""3244""
","
","
","""event"",""trial"",""time""
""fullscreenenter"",""0"",""3244""
","
","null","<p></p>","null","","","","","","","","","","","","","","","","","","","","","","",""
"","do_trial","118","678121","0.0-66.0-0.0","""event"",""trial"",""time""
""fullscreenenter"",""0"",""3244""
","
","
","""event"",""trial"",""time""
""fullscreenenter"",""0"",""3244""
","
","1215.6000000000931","","","","","","","","51","1,1,0","0","highway","4","probe-185","0.8437172041818947","0.30740528354672825","0.14542350640214763","0","","","","","","","",""
"","html-keyboard-response","119","679123","0.0-66.0-1.0","""event"",""trial"",""time""
""fullscreenenter"",""0"",""3244""
","
","
","""event"",""trial"",""time""
""fullscreenenter"",""0"",""3244""
","
","null","<p></p>","null","","","","","","","","","","","","","","","","","","","","","","",""
"","do_trial","120","684444","0.0-67.0-0.0","""event"",""trial"",""time""
""fullscreenenter"",""0"",""3244""
","
","
","""event"",""trial"",""time""
""fullscreenenter"",""0"",""3244""
","
","763.1000000000931","","","","","","","","50","1,1,0","0","highway","5","probe-07","0.6577085814366243","0.3032085998860537","0.13645266813806553","1","","","","","","","",""
"","html-keyboard-response","121","685446","0.0-67.0-1.0","""event"",""trial"",""time""
""fullscreenenter"",""0"",""3244""
","
","
","""event"",""trial"",""time""
""fullscreenenter"",""0"",""3244""
","
","null","<p></p>","null","","","","","","","","","","","","","","","","","","","","","","",""
"","do_trial","122","690206","0.0-68.0-0.0","""event"",""trial"",""time""
""fullscreenenter"",""0"",""3244""
","
","
","""event"",""trial"",""time""
""fullscreenenter"",""0"",""3244""
","
","204.29999999981374","","","","","","","","51","1,0,1","0","highway","6","probe-127","0.7352551551883266","0.32748211031044305","0.13121196137558702","1","","","","","","","",""
"","html-keyboard-response","123","691208","0.0-68.0-1.0","""event"",""trial"",""time""
""fullscreenenter"",""0"",""3244""
","
","
","""event"",""trial"",""time""
""fullscreenenter"",""0"",""3244""
","
","null","<p></p>","null","","","","","","","","","","","","","","","","","","","","","","",""
"","do_trial","124","697847","0.0-69.0-0.0","""event"",""trial"",""time""
""fullscreenenter"",""0"",""3244""
","
","
","""event"",""trial"",""time""
""fullscreenenter"",""0"",""3244""
","
","2083.0999999998603","","","","","","","","50","0,0,0","0","highway","7","probe-72","0.6906874327682094","0.297745881057165","0.09104712724996922","0","","","","","","","",""
"","html-keyboard-response","125","698849","0.0-69.0-1.0","""event"",""trial"",""time""
""fullscreenenter"",""0"",""3244""
","
","
","""event"",""trial"",""time""
""fullscreenenter"",""0"",""3244""
","
","null","<p></p>","null","","","","","","","","","","","","","","","","","","","","","","",""
"","do_trial","126","703965","0.0-70.0-0.0","""event"",""trial"",""time""
""fullscreenenter"",""0"",""3244""
","
","
","""event"",""trial"",""time""
""fullscreenenter"",""0"",""3244""
","
","553.8000000000466","","","","","","","","49","1,0,0","0","highway","8","probe-110","0.6868497211306485","0.33508513362453324","0.08651955591494147","1","","","","","","","",""
"","html-keyboard-response","127","704967","0.0-70.0-1.0","""event"",""trial"",""time""
""fullscreenenter"",""0"",""3244""
","
","
","""event"",""trial"",""time""
""fullscreenenter"",""0"",""3244""
","
","null","<p></p>","null","","","","","","","","","","","","","","","","","","","","","","",""
"","do_trial","128","712425","0.0-71.0-0.0","""event"",""trial"",""time""
""fullscreenenter"",""0"",""3244""
","
","
","""event"",""trial"",""time""
""fullscreenenter"",""0"",""3244""
","
","2903.6999999999534","","","","","","","","50","1,1,0","0","highway","9","probe-191","0.6233179336552778","0.23808293287788956","0.2048557463114927","1","","","","","","","",""
"","html-keyboard-response","129","713427","0.0-71.0-1.0","""event"",""trial"",""time""
""fullscreenenter"",""0"",""3244""
","
","
","""event"",""trial"",""time""
""fullscreenenter"",""0"",""3244""
","
","null","<p></p>","null","","","","","","","","","","","","","","","","","","","","","","",""
"","do_trial","130","718195","0.0-72.0-0.0","""event"",""trial"",""time""
""fullscreenenter"",""0"",""3244""
","
","
","""event"",""trial"",""time""
""fullscreenenter"",""0"",""3244""
","
","210.30000000004657","","","","","","","","49","1,0,0","0","highway","10","probe-219","0.6763705709401481","0.2166687037509943","0.33028930474576557","1","","","","","","","",""
"","html-keyboard-response","131","719197","0.0-72.0-1.0","""event"",""trial"",""time""
""fullscreenenter"",""0"",""3244""
","
","
","""event"",""trial"",""time""
""fullscreenenter"",""0"",""3244""
","
","null","<p></p>","null","","","","","","","","","","","","","","","","","","","","","","",""
"","do_trial","132","723800","0.0-73.0-0.0","""event"",""trial"",""time""
""fullscreenenter"",""0"",""3244""
","
","
","""event"",""trial"",""time""
""fullscreenenter"",""0"",""3244""
","
","45.89999999990687","","","","","","","","49","1,0,0","0","highway","11","probe-21","0.7173407913798888","0.17765441740250776","0.3695158293369526","1","","","","","","","",""
"","html-keyboard-response","133","724801","0.0-73.0-1.0","""event"",""trial"",""time""
""fullscreenenter"",""0"",""3244""
","
","
","""event"",""trial"",""time""
""fullscreenenter"",""0"",""3244""
","
","null","<p></p>","null","","","","","","","","","","","","","","","","","","","","","","",""
"","do_trial","134","729788","0.0-74.0-0.0","""event"",""trial"",""time""
""fullscreenenter"",""0"",""3244""
","
","
","""event"",""trial"",""time""
""fullscreenenter"",""0"",""3244""
","
","431.60000000009313","","","","","","","","49","1,0,0","0","highway","12","probe-227","0.636454224782244","0.1419087050848299","0.24461882411270328","1","","","","","","","",""
"","html-keyboard-response","135","730789","0.0-74.0-1.0","""event"",""trial"",""time""
""fullscreenenter"",""0"",""3244""
","
","
","""event"",""trial"",""time""
""fullscreenenter"",""0"",""3244""
","
","null","<p></p>","null","","","","","","","","","","","","","","","","","","","","","","",""
"","do_trial","136","735391","0.0-75.0-0.0","""event"",""trial"",""time""
""fullscreenenter"",""0"",""3244""
","
","
","""event"",""trial"",""time""
""fullscreenenter"",""0"",""3244""
","
","46.9000000001397","","","","","","","","49","0,1,0","0","highway","13","probe-171","0.6573769178319522","0.11627836012864931","0.16246758027464409","0","","","","","","","",""
"","html-keyboard-response","137","736393","0.0-75.0-1.0","""event"",""trial"",""time""
""fullscreenenter"",""0"",""3244""
","
","
","""event"",""trial"",""time""
""fullscreenenter"",""0"",""3244""
","
","null","<p></p>","null","","","","","","","","","","","","","","","","","","","","","","",""
"","do_trial","138","741154","0.0-76.0-0.0","""event"",""trial"",""time""
""fullscreenenter"",""0"",""3244""
","
","
","""event"",""trial"",""time""
""fullscreenenter"",""0"",""3244""
","
","205.4000000001397","","","","","","","","50","1,0,0","0","highway","14","probe-92","0.5594809607292919","0.2156826995500479","0.12320074681195674","0","","","","","","","",""
"","html-keyboard-response","139","742156","0.0-76.0-1.0","""event"",""trial"",""time""
""fullscreenenter"",""0"",""3244""
","
","
","""event"",""trial"",""time""
""fullscreenenter"",""0"",""3244""
","
","null","<p></p>","null","","","","","","","","","","","","","","","","","","","","","","",""
"","do_trial","140","746944","0.0-77.0-0.0","""event"",""trial"",""time""
""fullscreenenter"",""0"",""3244""
","
","
","""event"",""trial"",""time""
""fullscreenenter"",""0"",""3244""
","
","231.80000000004657","","","","","","","","51","1,0,0","0","highway","15","probe-225","0.7036912099176088","0.42567983003379495","0.17673038480713169","0","","","","","","","",""
"","html-keyboard-response","141","747946","0.0-77.0-1.0","""event"",""trial"",""time""
""fullscreenenter"",""0"",""3244""
","
","
","""event"",""trial"",""time""
""fullscreenenter"",""0"",""3244""
","
","null","<p></p>","null","","","","","","","","","","","","","","","","","","","","","","",""
"","do_trial","142","753630","0.0-78.0-0.0","""event"",""trial"",""time""
""fullscreenenter"",""0"",""3244""
","
","
","""event"",""trial"",""time""
""fullscreenenter"",""0"",""3244""
","
","1127.8000000000466","","","","","","","","50","0,1,0","0","highway","16","probe-157","0.6132226458452479","0.35851682696253184","0.2458553906049061","1","","","","","","","",""
"","html-keyboard-response","143","754632","0.0-78.0-1.0","""event"",""trial"",""time""
""fullscreenenter"",""0"",""3244""
","
","
","""event"",""trial"",""time""
""fullscreenenter"",""0"",""3244""
","
","null","<p></p>","null","","","","","","","","","","","","","","","","","","","","","","",""
"","do_trial","144","759287","0.0-79.0-0.0","""event"",""trial"",""time""
""fullscreenenter"",""0"",""3244""
","
","
","""event"",""trial"",""time""
""fullscreenenter"",""0"",""3244""
","
","98.5","","","","","","","","50","1,0,0","0","highway","17","probe-188","0.6502440373812085","0.19920608825953706","0.18654481968797687","0","","","","","","","",""
"","html-keyboard-response","145","760289","0.0-79.0-1.0","""event"",""trial"",""time""
""fullscreenenter"",""0"",""3244""
","
","
","""event"",""trial"",""time""
""fullscreenenter"",""0"",""3244""
","
","null","<p></p>","null","","","","","","","","","","","","","","","","","","","","","","",""
"","do_trial","146","766689","0.0-80.0-0.0","""event"",""trial"",""time""
""fullscreenenter"",""0"",""3244""
","
","
","""event"",""trial"",""time""
""fullscreenenter"",""0"",""3244""
","
","1844.1999999999534","","","","","","","","49","1,1,0","0","highway","18","probe-22","0.717803584784327","0.2933380653336303","0.13636208776341557","1","","","","","","","",""
"","html-keyboard-response","147","767691","0.0-80.0-1.0","""event"",""trial"",""time""
""fullscreenenter"",""0"",""3244""
","
","
","""event"",""trial"",""time""
""fullscreenenter"",""0"",""3244""
","
","null","<p></p>","null","","","","","","","","","","","","","","","","","","","","","","",""
"","do_trial","148","773043","0.0-81.0-0.0","""event"",""trial"",""time""
""fullscreenenter"",""0"",""3244""
","
","
","""event"",""trial"",""time""
""fullscreenenter"",""0"",""3244""
","
","796.8999999999069","","","","","","","","50","0,0,0","0","highway","19","probe-52","0.7611113325466063","0.23971919458530366","0.15555267415645704","0","","","","","","","",""
"","html-keyboard-response","149","774045","0.0-81.0-1.0","""event"",""trial"",""time""
""fullscreenenter"",""0"",""3244""
","
","
","""event"",""trial"",""time""
""fullscreenenter"",""0"",""3244""
","
","null","<p></p>","null","","","","","","","","","","","","","","","","","","","","","","",""
"","do_trial","150","778603","0.0-82.0-0.0","""event"",""trial"",""time""
""fullscreenenter"",""0"",""3244""
","
","
","""event"",""trial"",""time""
""fullscreenenter"",""0"",""3244""
","
","0.30000000004656613","","","","","","","","49","1,0,0","0","highway","20","probe-149","0.771628184369018","0.3699052892656093","0.24677610842051895","1","","","","","","","",""
"","html-keyboard-response","151","779605","0.0-82.0-1.0","""event"",""trial"",""time""
""fullscreenenter"",""0"",""3244""
","
","
","""event"",""trial"",""time""
""fullscreenenter"",""0"",""3244""
","
","null","<p></p>","null","","","","","","","","","","","","","","","","","","","","","","",""
"","do_trial","152","784162","0.0-83.0-0.0","""event"",""trial"",""time""
""fullscreenenter"",""0"",""3244""
","
","
","""event"",""trial"",""time""
""fullscreenenter"",""0"",""3244""
","
","0.39999999990686774","","","","","","","","49","1,1,0","0","highway","21","probe-154","0.8080684176647214","0.38094546404764706","0.2846741635053416","1","","","","","","","",""
"","html-keyboard-response","153","785164","0.0-83.0-1.0","""event"",""trial"",""time""
""fullscreenenter"",""0"",""3244""
","
","
","""event"",""trial"",""time""
""fullscreenenter"",""0"",""3244""
","
","null","<p></p>","null","","","","","","","","","","","","","","","","","","","","","","",""
"","do_trial","154","790019","0.0-84.0-0.0","""event"",""trial"",""time""
""fullscreenenter"",""0"",""3244""
","
","
","""event"",""trial"",""time""
""fullscreenenter"",""0"",""3244""
","
","299.69999999995343","","","","","","","","49","1,0,0","0","highway","22","probe-76","0.7546817065636187","0.373773240686424","0.13936794048738288","1","","","","","","","",""
"","html-keyboard-response","155","791021","0.0-84.0-1.0","""event"",""trial"",""time""
""fullscreenenter"",""0"",""3244""
","
","
","""event"",""trial"",""time""
""fullscreenenter"",""0"",""3244""
","
","null","<p></p>","null","","","","","","","","","","","","","","","","","","","","","","",""
"","do_trial","156","796255","0.0-85.0-0.0","""event"",""trial"",""time""
""fullscreenenter"",""0"",""3244""
","
","
","""event"",""trial"",""time""
""fullscreenenter"",""0"",""3244""
","
","679.4000000001397","","","","","","","","49","1,0,0","0","highway","23","probe-161","0.8393996297300487","0.36392704749615706","0.20256969546349235","1","","","","","","","",""
"","html-keyboard-response","157","797256","0.0-85.0-1.0","""event"",""trial"",""time""
""fullscreenenter"",""0"",""3244""
","
","
","""event"",""trial"",""time""
""fullscreenenter"",""0"",""3244""
","
","null","<p></p>","null","","","","","","","","","","","","","","","","","","","","","","",""
"","do_trial","158","802519","0.0-86.0-0.0","""event"",""trial"",""time""
""fullscreenenter"",""0"",""3244""
","
","
","""event"",""trial"",""time""
""fullscreenenter"",""0"",""3244""
","
","706.8999999999069","","","","","","","","49","1,0,0","0","highway","24","probe-43","0.7481497216512338","0.42698151231765497","0.1241961187916408","1","","","","","","","",""
"","html-keyboard-response","159","803521","0.0-86.0-1.0","""event"",""trial"",""time""
""fullscreenenter"",""0"",""3244""
","
","
","""event"",""trial"",""time""
""fullscreenenter"",""0"",""3244""
","
","null","<p></p>","null","","","","","","","","","","","","","","","","","","","","","","",""
"","do_trial","160","808141","0.0-87.0-0.0","""event"",""trial"",""time""
""fullscreenenter"",""0"",""3244""
","
","
","""event"",""trial"",""time""
""fullscreenenter"",""0"",""3244""
","
","65.5","","","","","","","","50","1,0,0","0","highway","25","probe-155","0.6278508076442811","0.356338309357666","0.19120434484925206","0","","","","","","","",""
"","html-keyboard-response","161","809143","0.0-87.0-1.0","""event"",""trial"",""time""
""fullscreenenter"",""0"",""3244""
","
","
","""event"",""trial"",""time""
""fullscreenenter"",""0"",""3244""
","
","null","<p></p>","null","","","","","","","","","","","","","","","","","","","","","","",""
"","do_trial","162","814048","0.0-88.0-0.0","""event"",""trial"",""time""
""fullscreenenter"",""0"",""3244""
","
","
","""event"",""trial"",""time""
""fullscreenenter"",""0"",""3244""
","
","350.60000000009313","","","","","","","","49","1,0,1","0","highway","26","probe-211","0.4959073949517941","0.13824538491050312","0.1643039921296595","1","","","","","","","",""
"","html-keyboard-response","163","815050","0.0-88.0-1.0","""event"",""trial"",""time""
""fullscreenenter"",""0"",""3244""
","
","
","""event"",""trial"",""time""
""fullscreenenter"",""0"",""3244""
","
","null","<p></p>","null","","","","","","","","","","","","","","","","","","","","","","",""
"","do_trial","164","820400","0.0-89.0-0.0","""event"",""trial"",""time""
""fullscreenenter"",""0"",""3244""
","
","
","""event"",""trial"",""time""
""fullscreenenter"",""0"",""3244""
","
","796.0999999998603","","","","","","","","49","0,1,0","0","highway","27","probe-86","0.6007442021247742","0.22113556440835141","0.05849973184267293","0","","","","","","","",""
"","html-keyboard-response","165","821402","0.0-89.0-1.0","""event"",""trial"",""time""
""fullscreenenter"",""0"",""3244""
","
","
","""event"",""trial"",""time""
""fullscreenenter"",""0"",""3244""
","
","null","<p></p>","null","","","","","","","","","","","","","","","","","","","","","","",""
"","do_trial","166","826572","0.0-90.0-0.0","""event"",""trial"",""time""
""fullscreenenter"",""0"",""3244""
","
","
","""event"",""trial"",""time""
""fullscreenenter"",""0"",""3244""
","
","613.3999999999069","","","","","","","","51","0,0,0","0","highway","28","probe-54","0.5604084173045718","0.2916698649639622","0.06110602747967016","0","","","","","","","",""
"","html-keyboard-response","167","827574","0.0-90.0-1.0","""event"",""trial"",""time""
""fullscreenenter"",""0"",""3244""
","
","
","""event"",""trial"",""time""
""fullscreenenter"",""0"",""3244""
","
","null","<p></p>","null","","","","","","","","","","","","","","","","","","","","","","",""
"","do_trial","168","833057","0.0-91.0-0.0","""event"",""trial"",""time""
""fullscreenenter"",""0"",""3244""
","
","
","""event"",""trial"",""time""
""fullscreenenter"",""0"",""3244""
","
","925.2999999998137","","","","","","","","49","1,0,0","0","highway","29","probe-19","0.4794331498086797","0.26546557990437303","0.07094663300210292","1","","","","","","","",""
"","html-keyboard-response","169","834059","0.0-91.0-1.0","""event"",""trial"",""time""
""fullscreenenter"",""0"",""3244""
","
","
","""event"",""trial"",""time""
""fullscreenenter"",""0"",""3244""
","
","null","<p></p>","null","","","","","","","","","","","","","","","","","","","","","","",""
"","do_bye","170","835563","0.0-92.0-0.0","""event"",""trial"",""time""
""fullscreenenter"",""0"",""3244""
","
","
","""event"",""trial"",""time""
""fullscreenenter"",""0"",""3244""
","
","null","","","","","","","","null","","","","","","","","","","","","","","","","",""
"","break","171","848165","0.0-92.0-1.0","""event"",""trial"",""time""
""fullscreenenter"",""0"",""3244""
","
","
","""event"",""trial"",""time""
""fullscreenenter"",""0"",""3244""
","
","12599.90000000014","<div class='center'><p>Time to take a quick break! You have 2 minutes to rest, but you can move on sooner if you'd like.</p><p> Press the <b>space bar</b> to continue.</p></div>","32","","","","","","","","","","","","","","","","","","","","","","",""
"","do_travel","172","857169","0.0-93.0-0.0","""event"",""trial"",""time""
""fullscreenenter"",""0"",""3244""
","
","
","""event"",""trial"",""time""
""fullscreenenter"",""0"",""3244""
","
","null","","","","","","","","null","","","","","","","","","","","","","","","","",""
"","do_welcome","173","861176","0.0-93.0-1.0","""event"",""trial"",""time""
""fullscreenenter"",""0"",""3244""
","
","
","""event"",""trial"",""time""
""fullscreenenter"",""0"",""3244""
","
","null","","","","","","","","null","","","","","","","","","","","","","","","","",""
"","do_trial","174","867234","0.0-94.0-0.0","""event"",""trial"",""time""
""fullscreenenter"",""0"",""3244""
","
","
","""event"",""trial"",""time""
""fullscreenenter"",""0"",""3244""
","
","null","","","","","","","","null","1,0,0","1","city","30","probe-23","1","0.22422800095637413","0.06098792207766881","","","","","","","","",""
"","html-keyboard-response","175","868236","0.0-94.0-1.0","""event"",""trial"",""time""
""fullscreenenter"",""0"",""3244""
","
","
","""event"",""trial"",""time""
""fullscreenenter"",""0"",""3244""
","
","null","<p></p>","null","","","","","","","","","","","","","","","","","","","","","","",""
"","do_trial","176","873286","0.0-95.0-0.0","""event"",""trial"",""time""
""fullscreenenter"",""0"",""3244""
","
","
","""event"",""trial"",""time""
""fullscreenenter"",""0"",""3244""
","
","492.30000000004657","","","","","","","","49","1,0,0","1","city","31","probe-177","1","0.10046522364299344","0.29342115912920314","1","","","","","","","",""
"","html-keyboard-response","177","874288","0.0-95.0-1.0","""event"",""trial"",""time""
""fullscreenenter"",""0"",""3244""
","
","
","""event"",""trial"",""time""
""fullscreenenter"",""0"",""3244""
","
","null","<p></p>","null","","","","","","","","","","","","","","","","","","","","","","",""
"","do_trial","178","879208","0.0-96.0-0.0","""event"",""trial"",""time""
""fullscreenenter"",""0"",""3244""
","
","
","""event"",""trial"",""time""
""fullscreenenter"",""0"",""3244""
","
","363","","","","","","","","49","1,0,0","1","city","32","probe-184","1","0.19832999693265296","0.24400853862643793","1","","","","","","","",""
"","html-keyboard-response","179","880210","0.0-96.0-1.0","""event"",""trial"",""time""
""fullscreenenter"",""0"",""3244""
","
","
","""event"",""trial"",""time""
""fullscreenenter"",""0"",""3244""
","
","null","<p></p>","null","","","","","","","","","","","","","","","","","","","","","","",""
"","do_trial","180","885766","0.0-97.0-0.0","""event"",""trial"",""time""
""fullscreenenter"",""0"",""3244""
","
","
","""event"",""trial"",""time""
""fullscreenenter"",""0"",""3244""
","
","998.7000000001863","","","","","","","","49","0,1,0","1","city","33","probe-47","0.7696492476879783","0.1871021800332656","0.23448781352671602","0","","","","","","","",""
"","html-keyboard-response","181","886768","0.0-97.0-1.0","""event"",""trial"",""time""
""fullscreenenter"",""0"",""3244""
","
","
","""event"",""trial"",""time""
""fullscreenenter"",""0"",""3244""
","
","null","<p></p>","null","","","","","","","","","","","","","","","","","","","","","","",""
"","do_trial","182","891325","0.0-98.0-0.0","""event"",""trial"",""time""
""fullscreenenter"",""0"",""3244""
","
","
","""event"",""trial"",""time""
""fullscreenenter"",""0"",""3244""
","
","0.4000000001396984","","","","","","","","50","1,0,0","1","city","34","probe-131","0.6839445631867634","0.3712198145008317","0.1792010725189024","0","","","","","","","",""
"","html-keyboard-response","183","892327","0.0-98.0-1.0","""event"",""trial"",""time""
""fullscreenenter"",""0"",""3244""
","
","
","""event"",""trial"",""time""
""fullscreenenter"",""0"",""3244""
","
","null","<p></p>","null","","","","","","","","","","","","","","","","","","","","","","",""
"","do_trial","184","896884","0.0-99.0-0.0","""event"",""trial"",""time""
""fullscreenenter"",""0"",""3244""
","
","
","""event"",""trial"",""time""
""fullscreenenter"",""0"",""3244""
","
","0.39999999990686774","","","","","","","","51","1,0,0","1","city","35","probe-45","0.595174918032119","0.4777236696388337","0.11708833463612922","0","","","","","","","",""
"","html-keyboard-response","185","897886","0.0-99.0-1.0","""event"",""trial"",""time""
""fullscreenenter"",""0"",""3244""
","
","
","""event"",""trial"",""time""
""fullscreenenter"",""0"",""3244""
","
","null","<p></p>","null","","","","","","","","","","","","","","","","","","","","","","",""
"","do_trial","186","902813","0.0-100.0-0.0","""event"",""trial"",""time""
""fullscreenenter"",""0"",""3244""
","
","
","""event"",""trial"",""time""
""fullscreenenter"",""0"",""3244""
","
","371.9000000001397","","","","","","","","49","1,1,0","1","city","36","probe-139","0.6601216154945696","0.41532789529527525","0.1450223072481348","1","","","","","","","",""
"","html-keyboard-response","187","903815","0.0-100.0-1.0","""event"",""trial"",""time""
""fullscreenenter"",""0"",""3244""
","
","
","""event"",""trial"",""time""
""fullscreenenter"",""0"",""3244""
","
","null","<p></p>","null","","","","","","","","","","","","","","","","","","","","","","",""
"","do_trial","188","909340","0.0-101.0-0.0","""event"",""trial"",""time""
""fullscreenenter"",""0"",""3244""
","
","
","""event"",""trial"",""time""
""fullscreenenter"",""0"",""3244""
","
","968.1000000000931","","","","","","","","49","1,0,0","1","city","37","probe-166","0.7680788352344726","0.3819469397772634","0.12082940351638698","1","","","","","","","",""
"","html-keyboard-response","189","910342","0.0-101.0-1.0","""event"",""trial"",""time""
""fullscreenenter"",""0"",""3244""
","
","
","""event"",""trial"",""time""
""fullscreenenter"",""0"",""3244""
","
","null","<p></p>","null","","","","","","","","","","","","","","","","","","","","","","",""
"","do_trial","190","916233","0.0-102.0-0.0","""event"",""trial"",""time""
""fullscreenenter"",""0"",""3244""
","
","
","""event"",""trial"",""time""
""fullscreenenter"",""0"",""3244""
","
","1335.1999999999534","","","","","","","","49","0,0,1","1","city","38","probe-02","0.6753494033257309","0.3351318652795473","0.1746507309668756","0","","","","","","","",""
"","html-keyboard-response","191","917235","0.0-102.0-1.0","""event"",""trial"",""time""
""fullscreenenter"",""0"",""3244""
","
","
","""event"",""trial"",""time""
""fullscreenenter"",""0"",""3244""
","
","null","<p></p>","null","","","","","","","","","","","","","","","","","","","","","","",""
"","do_trial","192","923292","0.0-103.0-0.0","""event"",""trial"",""time""
""fullscreenenter"",""0"",""3244""
","
","
","""event"",""trial"",""time""
""fullscreenenter"",""0"",""3244""
","
","null","","","","","","","","null","1,1,0","1","city","39","probe-09","0.6623733355285547","0.1929364152866431","0.2401094016618277","","","","","","","","",""
"","html-keyboard-response","193","924294","0.0-103.0-1.0","""event"",""trial"",""time""
""fullscreenenter"",""0"",""3244""
","
","
","""event"",""trial"",""time""
""fullscreenenter"",""0"",""3244""
","
","null","<p></p>","null","","","","","","","","","","","","","","","","","","","","","","",""
"","do_trial","194","930349","0.0-104.0-0.0","""event"",""trial"",""time""
""fullscreenenter"",""0"",""3244""
","
","
","""event"",""trial"",""time""
""fullscreenenter"",""0"",""3244""
","
","null","","","","","","","","null","0,0,0","1","city","40","probe-172","0.662274223087188","0.142090528274999","0.2662281988611495","","","","","","","","",""
"","html-keyboard-response","195","931351","0.0-104.0-1.0","""event"",""trial"",""time""
""fullscreenenter"",""0"",""3244""
","
","
","""event"",""trial"",""time""
""fullscreenenter"",""0"",""3244""
","
","null","<p></p>","null","","","","","","","","","","","","","","","","","","","","","","",""
"","do_trial","196","936636","0.0-105.0-0.0","""event"",""trial"",""time""
""fullscreenenter"",""0"",""3244""
","
","
","""event"",""trial"",""time""
""fullscreenenter"",""0"",""3244""
","
","728.1999999999534","","","","","","","","49","1,0,0","1","city","41","probe-198","0.6657211219116188","0.2605646612810908","0.14419591999334513","1","","","","","","","",""
"","html-keyboard-response","197","937638","0.0-105.0-1.0","""event"",""trial"",""time""
""fullscreenenter"",""0"",""3244""
","
","
","""event"",""trial"",""time""
""fullscreenenter"",""0"",""3244""
","
","null","<p></p>","null","","","","","","","","","","","","","","","","","","","","","","",""
"","do_trial","198","942526","0.0-106.0-0.0","""event"",""trial"",""time""
""fullscreenenter"",""0"",""3244""
","
","
","""event"",""trial"",""time""
""fullscreenenter"",""0"",""3244""
","
","331.69999999995343","","","","","","","","49","1,0,1","1","city","42","probe-75","0.6729248549085964","0.21891046046741153","0.45056971677101176","1","","","","","","","",""
"","html-keyboard-response","199","943529","0.0-106.0-1.0","""event"",""trial"",""time""
""fullscreenenter"",""0"",""3244""
","
","
","""event"",""trial"",""time""
""fullscreenenter"",""0"",""3244""
","
","null","<p></p>","null","","","","","","","","","","","","","","","","","","","","","","",""
"","do_trial","200","948867","0.0-107.0-0.0","""event"",""trial"",""time""
""fullscreenenter"",""0"",""3244""
","
","
","""event"",""trial"",""time""
""fullscreenenter"",""0"",""3244""
","
","782.6999999999534","","","","","","","","50","0,0,0","1","city","43","probe-132","0.5699341189454198","0.23871585328999934","0.5200677153504081","0","","","","","","","",""
"","html-keyboard-response","201","949869","0.0-107.0-1.0","""event"",""trial"",""time""
""fullscreenenter"",""0"",""3244""
","
","
","""event"",""trial"",""time""
""fullscreenenter"",""0"",""3244""
","
","null","<p></p>","null","","","","","","","","","","","","","","","","","","","","","","",""
"","do_trial","202","954662","0.0-108.0-0.0","""event"",""trial"",""time""
""fullscreenenter"",""0"",""3244""
","
","
","""event"",""trial"",""time""
""fullscreenenter"",""0"",""3244""
","
","236.5999999998603","","","","","","","","49","0,0,0","1","city","44","probe-156","0.44095068280471333","0.09488752003336921","0.5369436527120681","0","","","","","","","",""
"","html-keyboard-response","203","955663","0.0-108.0-1.0","""event"",""trial"",""time""
""fullscreenenter"",""0"",""3244""
","
","
","""event"",""trial"",""time""
""fullscreenenter"",""0"",""3244""
","
","null","<p></p>","null","","","","","","","","","","","","","","","","","","","","","","",""
"","do_trial","204","961143","0.0-109.0-0.0","""event"",""trial"",""time""
""fullscreenenter"",""0"",""3244""
","
","
","""event"",""trial"",""time""
""fullscreenenter"",""0"",""3244""
","
","923.3999999999069","","","","","","","","49","0,0,0","1","city","45","probe-150","0.4067208729788784","0.13020302427022856","0.6156548188846227","0","","","","","","","",""
"","html-keyboard-response","205","962145","0.0-109.0-1.0","""event"",""trial"",""time""
""fullscreenenter"",""0"",""3244""
","
","
","""event"",""trial"",""time""
""fullscreenenter"",""0"",""3244""
","
","null","<p></p>","null","","","","","","","","","","","","","","","","","","","","","","",""
"","do_trial","206","966790","0.0-110.0-0.0","""event"",""trial"",""time""
""fullscreenenter"",""0"",""3244""
","
","
","""event"",""trial"",""time""
""fullscreenenter"",""0"",""3244""
","
","86.5","","","","","","","","49","1,0,0","1","city","46","probe-35","0.36168999068192714","0.09984598421052536","0.7080537575102719","1","","","","","","","",""
"","html-keyboard-response","207","967793","0.0-110.0-1.0","""event"",""trial"",""time""
""fullscreenenter"",""0"",""3244""
","
","
","""event"",""trial"",""time""
""fullscreenenter"",""0"",""3244""
","
","null","<p></p>","null","","","","","","","","","","","","","","","","","","","","","","",""
"","do_trial","208","973525","0.0-111.0-0.0","""event"",""trial"",""time""
""fullscreenenter"",""0"",""3244""
","
","
","""event"",""trial"",""time""
""fullscreenenter"",""0"",""3244""
","
","1177.8999999999069","","","","","","","","49","0,0,1","1","city","47","probe-196","0.3332082806339637","0.12195461181194805","0.5373205836128988","0","","","","","","","",""
"","html-keyboard-response","209","974527","0.0-111.0-1.0","""event"",""trial"",""time""
""fullscreenenter"",""0"",""3244""
","
","
","""event"",""trial"",""time""
""fullscreenenter"",""0"",""3244""
","
","null","<p></p>","null","","","","","","","","","","","","","","","","","","","","","","",""
"","do_trial","210","979274","0.0-112.0-0.0","""event"",""trial"",""time""
""fullscreenenter"",""0"",""3244""
","
","
","""event"",""trial"",""time""
""fullscreenenter"",""0"",""3244""
","
","190.89999999990687","","","","","","","","49","0,0,0","1","city","48","probe-162","0.2239340729963142","0.08702976691391878","0.6137437657342936","0","","","","","","","",""
"","html-keyboard-response","211","980276","0.0-112.0-1.0","""event"",""trial"",""time""
""fullscreenenter"",""0"",""3244""
","
","
","""event"",""trial"",""time""
""fullscreenenter"",""0"",""3244""
","
","null","<p></p>","null","","","","","","","","","","","","","","","","","","","","","","",""
"","do_trial","212","984841","0.0-113.0-0.0","""event"",""trial"",""time""
""fullscreenenter"",""0"",""3244""
","
","
","""event"",""trial"",""time""
""fullscreenenter"",""0"",""3244""
","
","8.600000000093132","","","","","","","","49","0,0,1","1","city","49","probe-97","0.16007880547156947","0.06697526678056402","0.5508740455760758","0","","","","","","","",""
"","html-keyboard-response","213","985843","0.0-113.0-1.0","""event"",""trial"",""time""
""fullscreenenter"",""0"",""3244""
","
","
","""event"",""trial"",""time""
""fullscreenenter"",""0"",""3244""
","
","null","<p></p>","null","","","","","","","","","","","","","","","","","","","","","","",""
"","do_trial","214","991898","0.0-114.0-0.0","""event"",""trial"",""time""
""fullscreenenter"",""0"",""3244""
","
","
","""event"",""trial"",""time""
""fullscreenenter"",""0"",""3244""
","
","null","","","","","","","","null","1,0,0","1","city","50","probe-80","0.24767326951823393","0.1254019768239217","0.5748296122110083","","","","","","","","",""
"","html-keyboard-response","215","992900","0.0-114.0-1.0","""event"",""trial"",""time""
""fullscreenenter"",""0"",""3244""
","
","
","""event"",""trial"",""time""
""fullscreenenter"",""0"",""3244""
","
","null","<p></p>","null","","","","","","","","","","","","","","","","","","","","","","",""
"","do_trial","216","997626","0.0-115.0-0.0","""event"",""trial"",""time""
""fullscreenenter"",""0"",""3244""
","
","
","""event"",""trial"",""time""
""fullscreenenter"",""0"",""3244""
","
","169.29999999981374","","","","","","","","49","0,0,1","1","city","51","probe-136","0.2253065717028813","0.09475137581124983","0.48610772770482313","0","","","","","","","",""
"","html-keyboard-response","217","998629","0.0-115.0-1.0","""event"",""trial"",""time""
""fullscreenenter"",""0"",""3244""
","
","
","""event"",""trial"",""time""
""fullscreenenter"",""0"",""3244""
","
","null","<p></p>","null","","","","","","","","","","","","","","","","","","","","","","",""
"","do_trial","218","1003185","0.0-116.0-0.0","""event"",""trial"",""time""
""fullscreenenter"",""0"",""3244""
","
","
","""event"",""trial"",""time""
""fullscreenenter"",""0"",""3244""
","
","0.2999999998137355","","","","","","","","49","0,0,1","1","city","52","probe-130","0.29025214394019655","0.08305077916398945","0.4863967629292016","0","","","","","","","",""
"","html-keyboard-response","219","1004187","0.0-116.0-1.0","""event"",""trial"",""time""
""fullscreenenter"",""0"",""3244""
","
","
","""event"",""trial"",""time""
""fullscreenenter"",""0"",""3244""
","
","null","<p></p>","null","","","","","","","","","","","","","","","","","","","","","","",""
"","do_trial","220","1008787","0.0-117.0-0.0","""event"",""trial"",""time""
""fullscreenenter"",""0"",""3244""
","
","
","""event"",""trial"",""time""
""fullscreenenter"",""0"",""3244""
","
","43","","","","","","","","49","0,0,1","1","city","53","probe-169","0.2559847086512241","0.1657786457939269","0.5202925650567236","0","","","","","","","",""
"","html-keyboard-response","221","1009788","0.0-117.0-1.0","""event"",""trial"",""time""
""fullscreenenter"",""0"",""3244""
","
","
","""event"",""trial"",""time""
""fullscreenenter"",""0"",""3244""
","
","null","<p></p>","null","","","","","","","","","","","","","","","","","","","","","","",""
"","do_trial","222","1014868","0.0-118.0-0.0","""event"",""trial"",""time""
""fullscreenenter"",""0"",""3244""
","
","
","""event"",""trial"",""time""
""fullscreenenter"",""0"",""3244""
","
","521.7999999998137","","","","","","","","49","0,0,1","1","city","54","probe-153","0.2784935691641549","0.15241755285316558","0.4892410288922479","0","","","","","","","",""
"","html-keyboard-response","223","1015869","0.0-118.0-1.0","""event"",""trial"",""time""
""fullscreenenter"",""0"",""3244""
","
","
","""event"",""trial"",""time""
""fullscreenenter"",""0"",""3244""
","
","null","<p></p>","null","","","","","","","","","","","","","","","","","","","","","","",""
"","do_trial","224","1020426","0.0-119.0-0.0","""event"",""trial"",""time""
""fullscreenenter"",""0"",""3244""
","
","
","""event"",""trial"",""time""
""fullscreenenter"",""0"",""3244""
","
","0.2999999998137355","","","","","","","","50","0,0,1","1","city","55","probe-224","0.34015571556869634","0.2821141015703129","0.3701770937980477","0","","","","","","","",""
"","html-keyboard-response","225","1021428","0.0-119.0-1.0","""event"",""trial"",""time""
""fullscreenenter"",""0"",""3244""
","
","
","""event"",""trial"",""time""
""fullscreenenter"",""0"",""3244""
","
","null","<p></p>","null","","","","","","","","","","","","","","","","","","","","","","",""
"","do_trial","226","1026070","0.0-120.0-0.0","""event"",""trial"",""time""
""fullscreenenter"",""0"",""3244""
","
","
","""event"",""trial"",""time""
""fullscreenenter"",""0"",""3244""
","
","87.0999999998603","","","","","","","","51","0,0,0","1","city","56","probe-49","0.4024124981663721","0.2707811299838503","0.5317229700260745","0","","","","","","","",""
"","html-keyboard-response","227","1027072","0.0-120.0-1.0","""event"",""trial"",""time""
""fullscreenenter"",""0"",""3244""
","
","
","""event"",""trial"",""time""
""fullscreenenter"",""0"",""3244""
","
","null","<p></p>","null","","","","","","","","","","","","","","","","","","","","","","",""
"","do_trial","228","1032310","0.0-121.0-0.0","""event"",""trial"",""time""
""fullscreenenter"",""0"",""3244""
","
","
","""event"",""trial"",""time""
""fullscreenenter"",""0"",""3244""
","
","682.6999999999534","","","","","","","","51","0,0,1","1","city","57","probe-01","0.30415794609904456","0.11313898158871175","0.7210996945279833","1","","","","","","","",""
"","html-keyboard-response","229","1033312","0.0-121.0-1.0","""event"",""trial"",""time""
""fullscreenenter"",""0"",""3244""
","
","
","""event"",""trial"",""time""
""fullscreenenter"",""0"",""3244""
","
","null","<p></p>","null","","","","","","","","","","","","","","","","","","","","","","",""
"","do_trial","230","1037869","0.0-122.0-0.0","""event"",""trial"",""time""
""fullscreenenter"",""0"",""3244""
","
","
","""event"",""trial"",""time""
""fullscreenenter"",""0"",""3244""
","
","0.30000000004656613","","","","","","","","51","0,1,1","1","city","58","probe-151","0.2939943731573937","0.15821334452688732","0.6248567665048715","1","","","","","","","",""
"","html-keyboard-response","231","1038871","0.0-122.0-1.0","""event"",""trial"",""time""
""fullscreenenter"",""0"",""3244""
","
","
","""event"",""trial"",""time""
""fullscreenenter"",""0"",""3244""
","
","null","<p></p>","null","","","","","","","","","","","","","","","","","","","","","","",""
"","do_trial","232","1043616","0.0-123.0-0.0","""event"",""trial"",""time""
""fullscreenenter"",""0"",""3244""
","
","
","""event"",""trial"",""time""
""fullscreenenter"",""0"",""3244""
","
","188.80000000004657","","","","","","","","50","0,0,1","1","city","59","probe-133","0.30301253017820656","0.08197241877431319","0.533934845274724","0","","","","","","","",""
"","html-keyboard-response","233","1044618","0.0-123.0-1.0","""event"",""trial"",""time""
""fullscreenenter"",""0"",""3244""
","
","
","""event"",""trial"",""time""
""fullscreenenter"",""0"",""3244""
","
","null","<p></p>","null","","","","","","","","","","","","","","","","","","","","","","",""
"","do_trial","234","1050674","0.0-124.0-0.0","""event"",""trial"",""time""
""fullscreenenter"",""0"",""3244""
","
","
","""event"",""trial"",""time""
""fullscreenenter"",""0"",""3244""
","
","null","","","","","","","","null","0,0,1","1","city","60","probe-44","0.4121356795445509","0.1449667272227048","0.43465235686207804","","","","","","","","",""
"","html-keyboard-response","235","1051677","0.0-124.0-1.0","""event"",""trial"",""time""
""fullscreenenter"",""0"",""3244""
","
","
","""event"",""trial"",""time""
""fullscreenenter"",""0"",""3244""
","
","null","<p></p>","null","","","","","","","","","","","","","","","","","","","","","","",""
"","do_trial","236","1056983","0.0-125.0-0.0","""event"",""trial"",""time""
""fullscreenenter"",""0"",""3244""
","
","
","""event"",""trial"",""time""
""fullscreenenter"",""0"",""3244""
","
","749.4000000001397","","","","","","","","51","0,0,1","1","city","61","probe-145","0.2053826227814451","0.17578814615050373","0.26818506763527283","1","","","","","","","",""
"","html-keyboard-response","237","1057985","0.0-125.0-1.0","""event"",""trial"",""time""
""fullscreenenter"",""0"",""3244""
","
","
","""event"",""trial"",""time""
""fullscreenenter"",""0"",""3244""
","
","null","<p></p>","null","","","","","","","","","","","","","","","","","","","","","","",""
"","do_trial","238","1063404","0.0-126.0-0.0","""event"",""trial"",""time""
""fullscreenenter"",""0"",""3244""
","
","
","""event"",""trial"",""time""
""fullscreenenter"",""0"",""3244""
","
","859.1000000000931","","","","","","","","51","0,0,1","1","city","62","probe-18","0.20983075453796018","0.0727987125810748","0.5108050944449163","1","","","","","","","",""
"","html-keyboard-response","239","1064405","0.0-126.0-1.0","""event"",""trial"",""time""
""fullscreenenter"",""0"",""3244""
","
","
","""event"",""trial"",""time""
""fullscreenenter"",""0"",""3244""
","
","null","<p></p>","null","","","","","","","","","","","","","","","","","","","","","","",""
"","do_trial","240","1068983","0.0-127.0-0.0","""event"",""trial"",""time""
""fullscreenenter"",""0"",""3244""
","
","
","""event"",""trial"",""time""
""fullscreenenter"",""0"",""3244""
","
","20.199999999953434","","","","","","","","51","0,0,1","1","city","63","probe-33","0.2581562985162134","0.10868925717478957","0.5575299699690276","1","","","","","","","",""
"","html-keyboard-response","241","1069985","0.0-127.0-1.0","""event"",""trial"",""time""
""fullscreenenter"",""0"",""3244""
","
","
","""event"",""trial"",""time""
""fullscreenenter"",""0"",""3244""
","
","null","<p></p>","null","","","","","","","","","","","","","","","","","","","","","","",""
"","do_trial","242","1075646","0.0-128.0-0.0","""event"",""trial"",""time""
""fullscreenenter"",""0"",""3244""
","
","
","""event"",""trial"",""time""
""fullscreenenter"",""0"",""3244""
","
","1105.3999999999069","","","","","","","","51","0,0,1","1","city","64","probe-60","0.23537327064735342","0.10726781132471758","0.5872868219661973","1","","","","","","","",""
"","html-keyboard-response","243","1076648","0.0-128.0-1.0","""event"",""trial"",""time""
""fullscreenenter"",""0"",""3244""
","
","
","""event"",""trial"",""time""
""fullscreenenter"",""0"",""3244""
","
","null","<p></p>","null","","","","","","","","","","","","","","","","","","","","","","",""
"","do_trial","244","1081578","0.0-129.0-0.0","""event"",""trial"",""time""
""fullscreenenter"",""0"",""3244""
","
","
","""event"",""trial"",""time""
""fullscreenenter"",""0"",""3244""
","
","374.19999999995343","","","","","","","","51","0,0,1","1","city","65","probe-197","0.17032595462678907","0.09302286758052128","0.5680678508445665","1","","","","","","","",""
"","html-keyboard-response","245","1082580","0.0-129.0-1.0","""event"",""trial"",""time""
""fullscreenenter"",""0"",""3244""
","
","
","""event"",""trial"",""time""
""fullscreenenter"",""0"",""3244""
","
","null","<p></p>","null","","","","","","","","","","","","","","","","","","","","","","",""
"","do_trial","246","1087341","0.0-130.0-0.0","""event"",""trial"",""time""
""fullscreenenter"",""0"",""3244""
","
","
","""event"",""trial"",""time""
""fullscreenenter"",""0"",""3244""
","
","203.89999999990687","","","","","","","","51","0,1,1","1","city","66","probe-126","0.2866545837239181","0.05049751199127792","0.5106977330519283","1","","","","","","","",""
"","html-keyboard-response","247","1088343","0.0-130.0-1.0","""event"",""trial"",""time""
""fullscreenenter"",""0"",""3244""
","
","
","""event"",""trial"",""time""
""fullscreenenter"",""0"",""3244""
","
","null","<p></p>","null","","","","","","","","","","","","","","","","","","","","","","",""
"","do_trial","248","1092956","0.0-131.0-0.0","""event"",""trial"",""time""
""fullscreenenter"",""0"",""3244""
","
","
","""event"",""trial"",""time""
""fullscreenenter"",""0"",""3244""
","
","56.300000000046566","","","","","","","","51","0,0,1","1","city","67","probe-176","0.3889813563680376","0.0583619582405348","0.5152251945214517","1","","","","","","","",""
"","html-keyboard-response","249","1093958","0.0-131.0-1.0","""event"",""trial"",""time""
""fullscreenenter"",""0"",""3244""
","
","
","""event"",""trial"",""time""
""fullscreenenter"",""0"",""3244""
","
","null","<p></p>","null","","","","","","","","","","","","","","","","","","","","","","",""
"","do_trial","250","1100663","0.0-132.0-0.0","""event"",""trial"",""time""
""fullscreenenter"",""0"",""3244""
","
","
","""event"",""trial"",""time""
""fullscreenenter"",""0"",""3244""
","
","2149.5999999998603","","","","","","","","50","0,0,1","1","city","68","probe-56","0.43000452939395134","0.06543602280129367","0.5656786179221","0","","","","","","","",""
"","html-keyboard-response","251","1101664","0.0-132.0-1.0","""event"",""trial"",""time""
""fullscreenenter"",""0"",""3244""
","
","
","""event"",""trial"",""time""
""fullscreenenter"",""0"",""3244""
","
","null","<p></p>","null","","","","","","","","","","","","","","","","","","","","","","",""
"","do_trial","252","1106615","0.0-133.0-0.0","""event"",""trial"",""time""
""fullscreenenter"",""0"",""3244""
","
","
","""event"",""trial"",""time""
""fullscreenenter"",""0"",""3244""
","
","394.89999999990687","","","","","","","","49","1,0,0","1","city","69","probe-64","0.3488270660578167","0.18947539927022214","0.6532554846888357","1","","","","","","","",""
"","html-keyboard-response","253","1107617","0.0-133.0-1.0","""event"",""trial"",""time""
""fullscreenenter"",""0"",""3244""
","
","
","""event"",""trial"",""time""
""fullscreenenter"",""0"",""3244""
","
","null","<p></p>","null","","","","","","","","","","","","","","","","","","","","","","",""
"","do_bye","254","1109121","0.0-134.0-0.0","""event"",""trial"",""time""
""fullscreenenter"",""0"",""3244""
","
","
","""event"",""trial"",""time""
""fullscreenenter"",""0"",""3244""
","
","null","","","","","","","","null","","","","","","","","","","","","","","","","",""
"","break","255","1111445","0.0-134.0-1.0","""event"",""trial"",""time""
""fullscreenenter"",""0"",""3244""
","
","
","""event"",""trial"",""time""
""fullscreenenter"",""0"",""3244""
","
","2322.7000000001863","<div class='center'><p>Time to take a quick break! You have 2 minutes to rest, but you can move on sooner if you'd like.</p><p> Press the <b>space bar</b> to continue.</p></div>","32","","","","","","","","","","","","","","","","","","","","","","",""
"","do_travel","256","1120448","0.0-135.0-0.0","""event"",""trial"",""time""
""fullscreenenter"",""0"",""3244""
","
","
","""event"",""trial"",""time""
""fullscreenenter"",""0"",""3244""
","
","null","","","","","","","","null","","","","","","","","","","","","","","","","",""
"","do_welcome","257","1124454","0.0-135.0-1.0","""event"",""trial"",""time""
""fullscreenenter"",""0"",""3244""
","
","
","""event"",""trial"",""time""
""fullscreenenter"",""0"",""3244""
","
","null","","","","","","","","null","","","","","","","","","","","","","","","","",""
"","do_trial","258","1130516","0.0-136.0-0.0","""event"",""trial"",""time""
""fullscreenenter"",""0"",""3244""
","
","
","""event"",""trial"",""time""
""fullscreenenter"",""0"",""3244""
","
","null","","","","","","","","null","0,0,1","2","countryside","70","probe-40","0.37757381942565593","0.10675101215266987","1","","","","","","","","",""
"","html-keyboard-response","259","1131519","0.0-136.0-1.0","""event"",""trial"",""time""
""fullscreenenter"",""0"",""3244""
","
","
","""event"",""trial"",""time""
""fullscreenenter"",""0"",""3244""
","
","null","<p></p>","null","","","","","","","","","","","","","","","","","","","","","","",""
