"success","trial_type","trial_index","time_elapsed","internal_node_id","rt","stimulus","key_press","subject_id","response","choice_outcomes","context_n","context_img_id","trial_n","probe_img_id","pR_red","pR_white","pR_black","outcome","contextArray_ind","validImageProbes","invalidImageProbes","pRew_Red","pRew_White","pRew_Black","availableForMemProbe","choice_blocks"
"true","fullscreen","0","3112","0.0-0.0","","","","","","","","","","","","","","","","","","","","","",""
"","pavlovia","1","3114","0.0-1.0","","","","","","","","","","","","","","","","","","","","","",""
"","html-keyboard-response","2","4536","0.0-2.0","1421.5999999977648","<div class='center'><p>Welcome! This is the first day of the experiment which will last ~30 minutes. In this experiment, you are the head captain of a pirate ship traveling around the world to different places. You will complete several different tasks during this experiment. Here is an overview of these tasks:</p><br><p>Day 1</p><p>1. Tutorial and quiz</p><p>2. Pick a pirate game in 6 different places</p><br><p>Day 2</p><p>3. Pick a pirate game and memory game</p><p>4. Final questions and payment</p><br><p>If you complete the entire experiment, you will receive $15 and a possible bonus payment.</p><p><b>[Press the space bar to begin the tutorial]</b></p></div>","32","6144933b9fe82d0490f0127e","","","","","","","","","","","","","","","","","",""
"","html-keyboard-response","3","5464","0.0-3.0","927.1999999992549","<div class='center'><p>You are the head captain of a pirate ship.</p><p> Your pirates rob other ships as they leave the marketplace port.</p> These ships have just sold all their goods at the marketplace, so they have lots and lots of gold on them.</p><p><img src='run_exp/static/images/ship_center.png' height='400'></p><p><b>[Press the space bar to continue]</b></p></div>","32","","","","","","","","","","","","","","","","","","",""
"","html-keyboard-response","4","6382","0.0-4.0","917.6999999992549","<div class='center'><p>As the head captain, you do not have to rob any ships yourself.</p><p>You get to choose which pirate you want to rob the next ship. </p><p>If they are successful at robbing the ship, then you will get gold coins.</p><p> If they are not successful, then you will get no gold coins.</p><p> The more coins you collect, the more bonus money you will win. So, choose your pirate wisely.</p><p><img src='run_exp/static/images/goal.png' height='400'></p><p><b>[Press the space bar to continue]</b></p><div>","32","","","","","","","","","","","","","","","","","","",""
"","html-keyboard-response","5","7871","0.0-5.0","1488.0999999977648","<div class='center'><p>Even the most skilled pirate will not be able to rob EVERY ship.</p><p> Some ships will have very strong defenses against attacks.</p><p> For example, blue beard, here,  is very good at robbing ships.</p><p> You can press the <b>‘1’</b> button on the keyboard to choose him.</p><p> Try choosing him 10 times to see how often he is successful at robbing ships. </p><p><img src='run_exp/static/images/blue.png' height='500'></p></div>","49","","","","","","","","","","","","","","","","","","",""
"","html-keyboard-response","6","9373","0.0-6.0","null","<br><br><br><br><p><img src='run_exp/static/images/blue_win.png' height='500'></p>","null","","","","","","","","","","","","","","","","","","",""
"","html-keyboard-response","7","9634","0.0-7.0","260.79999999701977","<br><br><br><br><p><img src='run_exp/static/images/blue.png' height='500'></p>","49","","","","","","","","","","","","","","","","","","",""
"","html-keyboard-response","8","11135","0.0-8.0","null","<br><br><br><br><p><img src='run_exp/static/images/blue_win.png' height='500'></p>","null","","","","","","","","","","","","","","","","","","",""
"","html-keyboard-response","9","11352","0.0-9.0","216.5","<br><br><br><br><p><img src='run_exp/static/images/blue.png' height='500'></p>","49","","","","","","","","","","","","","","","","","","",""
"","html-keyboard-response","10","12853","0.0-10.0","null","<br><br><br><br><p><img src='run_exp/static/images/blue_win.png' height='500'></p>","null","","","","","","","","","","","","","","","","","","",""
"","html-keyboard-response","11","13109","0.0-11.0","255.5","<br><br><br><br><p><img src='run_exp/static/images/blue.png' height='500'></p>","49","","","","","","","","","","","","","","","","","","",""
"","html-keyboard-response","12","14610","0.0-12.0","null","<br><br><br><br><p><img src='run_exp/static/images/blue_no_win.png' height='500'></p>","null","","","","","","","","","","","","","","","","","","",""
"","html-keyboard-response","13","14829","0.0-13.0","218.60000000149012","<br><br><br><br><p><img src='run_exp/static/images/blue.png' height='500'></p>","49","","","","","","","","","","","","","","","","","","",""
"","html-keyboard-response","14","16330","0.0-14.0","null","<br><br><br><br><p><img src='run_exp/static/images/blue_win.png' height='500'></p>","null","","","","","","","","","","","","","","","","","","",""
"","html-keyboard-response","15","16531","0.0-15.0","200.19999999925494","<br><br><br><br><p><img src='run_exp/static/images/blue.png' height='500'></p>","49","","","","","","","","","","","","","","","","","","",""
"","html-keyboard-response","16","18033","0.0-16.0","null","<br><br><br><br><p><img src='run_exp/static/images/blue_win.png' height='500'></p>","null","","","","","","","","","","","","","","","","","","",""
"","html-keyboard-response","17","18241","0.0-17.0","207.19999999925494","<br><br><br><br><p><img src='run_exp/static/images/blue.png' height='500'></p>","49","","","","","","","","","","","","","","","","","","",""
"","html-keyboard-response","18","19741","0.0-18.0","null","<br><br><br><br><p><img src='run_exp/static/images/blue_win.png' height='500'></p>","null","","","","","","","","","","","","","","","","","","",""
"","html-keyboard-response","19","19932","0.0-19.0","189.69999999925494","<br><br><br><br><p><img src='run_exp/static/images/blue.png' height='500'></p>","49","","","","","","","","","","","","","","","","","","",""
"","html-keyboard-response","20","21433","0.0-20.0","null","<br><br><br><br><p><img src='run_exp/static/images/blue_no_win.png' height='500'></p>","null","","","","","","","","","","","","","","","","","","",""
"","html-keyboard-response","21","21628","0.0-21.0","194.89999999850988","<br><br><br><br><p><img src='run_exp/static/images/blue.png' height='500'></p>","49","","","","","","","","","","","","","","","","","","",""
"","html-keyboard-response","22","23129","0.0-22.0","null","<br><br><br><br><p><img src='run_exp/static/images/blue_win.png' height='500'></p>","null","","","","","","","","","","","","","","","","","","",""
"","html-keyboard-response","23","23369","0.0-23.0","239.10000000149012","<br><br><br><br><p><img src='run_exp/static/images/blue.png' height='500'></p>","49","","","","","","","","","","","","","","","","","","",""
"","html-keyboard-response","24","24870","0.0-24.0","null","<br><br><br><br><p><img src='run_exp/static/images/blue_win.png' height='500'></p>","null","","","","","","","","","","","","","","","","","","",""
"","html-keyboard-response","25","25464","0.0-25.0","593.6000000014901","<div class='center'><p> See, he was successful at robbing the ships most of the time but not every time. </p><p><b>[Press the space bar to continue]</b></p></div>","32","","","","","","","","","","","","","","","","","","",""
"","html-keyboard-response","26","39492","0.0-26.0","14027.60000000149","<div class='center'><p>In the game, you will get to choose which of three pirates you want to rob the next ship. <p>Press the <b>‘1’</b> button on your keyboard to pick the pirate with the red beard.</p><p> Press <b>‘2’</b> to pick the pirate with the white beard.</p><p> Press <b>‘3’</b> to pick the pirate with the black beard.</p><p>Try picking a pirate now!</p><p><img src='run_exp/static/images/all_pirates.png' height='500'></p></div>","51","","","","","","","","","","","","","","","","","","",""
"","html-keyboard-response","27","41840","0.0-27.0-0.0","2346.699999999255","<div class='center'><p>This pirate was successful at robbing the ship!</p><p><img src='run_exp/static/images/black_win.png' height='500'></p><p><b>[Press the space bar to continue]</b></p></div>","32","","","","","","","","","","","","","","","","","","",""
"","html-keyboard-response","28","43261","0.0-27.0-1.0","1420.5","<div class='center'><p>Now try choosing another</p><p><img src='run_exp/static/images/all_pirates.png' height='500'></p></div>","50","","","","","","","","","","","","","","","","","","",""
"","html-keyboard-response","29","44660","0.0-28.0-0.0","1398.5","<div class='center'><p>This pirate was not successful at robbing the ship!</p><p><img src='run_exp/static/images/white_no_win.png' height='500'></p><p><b>[Press the space bar to continue]</b></p></div>","32","","","","","","","","","","","","","","","","","","",""
"","html-keyboard-response","30","48457","0.0-29.0-0.0","3797.699999999255","<div class='center'><p>You’ll stop at these 6 places on your journey.</p><p><img src='run_exp/static/images/all_contexts.png' height='500'></p><p><b>[Press the space bar to continue]</b></p></div>","32","","","","","","","","","","","","","","","","","","",""
"","html-keyboard-response","31","59188","0.0-29.0-1.0","10730.800000000745","<div class='center'><p>How good a pirate is at robbing ships will depend on the current place.</p><p> Some pirates will have been to the place before, and will have more experience robbing ships there.</p><p>So, they will be more successful at stealing gold and bringing it back to you.</p><p><b>[Press the space bar to continue]</b></p></div>","32","","","","","","","","","","","","","","","","","","",""
"","html-keyboard-response","32","74794","0.0-29.0-2.0","15605.70000000298","<div class='center'><p>How successful a pirate is at robbing ships can also change in a place.<p> Ships may hear about the pirates coming and will improve their defenses. This may make it more difficult to rob them.</p><p> Ships may also grow lazy and lower their defenses. This may make it easier to rob them.</p><br><p>Things are always changing on the high seas! So, try your best to pay attention!</p><p><img src='run_exp/static/images/contingency.png' height='500'></p><p><b>[Press the space bar to continue]</b></p></div>","32","","","","","","","","","","","","","","","","","","",""
"","html-keyboard-response","33","120447","0.0-29.0-3.0","45651.699999999255","<div class='center'><p>Once you choose a pirate to rob a ship, you’ll be shown the ship they are robbing.</p><p>The ship will have a picture of the item they sold at the marketplace.</p><p> Try your best to remember the ship and where you saw the ship.</p><p> You’ll have to remember this for later, and remembering this correctly will help you win more bonus money!</p><p>You can remember the ship by remembering the item they sold at the marketplace</p><p>A helpful strategy is to try to come up with a story of the chosen pirate and ship’s item interacting with the scene.</p><p> For example, a ship might have sold travel mugs and you could imagine red beard walking through the city with a travel mug. </p><p>Or imagine an apple falling from a tree into white beard's hands in the forest.</p><p><img src='run_exp/static/images/example_probe.png' height='500'></p><p><b>[Press the space bar to continue]</b></p></div>","32","","","","","","","","","","","","","","","","","","",""
"","html-keyboard-response","34","127983","0.0-29.0-4.0","7536.300000000745","<div class='center'><p>If you don’t make your choice fast enough, you’ll have to wait a few seconds before you can make another one. </p><p>You can’t win more gold. You just have to sit and wait.</p><p><img src='run_exp/static/images/hurry_up.png' height='500'></p><p><b>[Press the space bar to continue]</b></p></div>","32","","","","","","","","","","","","","","","","","","",""
"","html-keyboard-response","35","161505","0.0-29.0-5.0","33520.800000000745","<div class='center'><p>Again, you have two important things to do: </p><b><p> 1. Pick the pirate who you think will be most successful at robbing the next ship.</p></b><b><p> 2. Remember where a pirate robbed a ship.</p> </b><p>Both are important in determining how much bonus money you’ll win.</p><br><p>Let’s try a practice game. The game will start by showing you the pirates. First pick a pirate using the <b> 1, 2, 3 </b> buttons on your keyboard. When you are shown a ship, try to remember the place you’re in by making up a story.</p><p> You only have 3 seconds to pick a pirate, so please make a choice quickly! If you are too slow, you’ll have to wait a bit during the time out.</p><p> Don’t feel rushed, but please do try to make a choice every time.</p><p>How good a pirate is at robbing a ship will change depending on the place they are in and how good the defenses are of the ship.</p> <p>This is just a practice game, so you’re not playing for money. </p><p>You’ll receive a bag which may or may not contain gold coins.</p><p> In the real game, though, you’ll be able to see whether or not you received the gold coins.</p><p> Good luck, remember press <b>'1'</b> to choose red beard, <b>'2'</b> to choose white beard, and <b>'3'</b> to choose black beard</p><p><b>[Press the space bar to begin the practice game]</b></p></div>","32","","","","","","","","","","","","","","","","","","",""
"","do_trial_prac","36","167416","0.0-29.0-6.0","1406.7999999970198","","","","50","","","","","","","","","","","","","","","","",""
"","do_trial_prac","37","174636","0.0-29.0-7.0","2716.2999999970198","","","","50","","","","","","","","","","","","","","","","",""
"","do_trial_prac","38","180602","0.0-29.0-8.0","1463.4000000022352","","","","50","","","","","","","","","","","","","","","","",""
"","do_trial_prac","39","186023","0.0-29.0-9.0","917.5","","","","51","","","","","","","","","","","","","","","","",""
"","do_trial_prac","40","192028","0.0-29.0-10.0","null","","","","null","","","","","","","","","","","","","","","","",""
"","html-keyboard-response","41","197860","0.0-29.0-11.0","5831.699999999255","<div class='center'><p>Great job on the practice game!</p><p> Now, you will be asked you some true or false questions to make sure you really understand the rules of the game.</p><p> Press <b>'1'</b> on the keyboard for true and press <b>'2'</b> for false.</p><p><b>[Press the space bar to begin the quiz]</b></p></div>","32","","","","","","","","","","","","","","","","","","",""
"","html-keyboard-response","42","202211","0.0-29.0-12.0","4350.800000000745","<div class='center'><p>You win bonus money by making choices as fast as possible.</p><p>Press 1 for true and press  2 for false.</p></div>","50","","","","","","","","","","","","","","","","","","",""
"","html-keyboard-response","43","203390","0.0-30.0-0.0","1178.199999999255","<br><br><br><br><p>That's correct!</p> <p><b>[press the space bar to continue with the quiz]</b></p>","32","","","","","","","","","","","","","","","","","","",""
"","html-keyboard-response","44","208573","0.0-30.0-1.0","5182.599999997765","<div class='center'><p>You press the <b>‘3’</b> button on the keyboard to choose the red bearded pirate? </p><p>Press 1 for true and press  2 for false.</p></div>","50","","","","","","","","","","","","","","","","","","",""
"","html-keyboard-response","45","209564","0.0-31.0-0.0","990.6999999992549","<br><br><br><br><p>That's correct!</p> <p><b>[press the space bar to continue with the quiz]</b></p>","32","","","","","","","","","","","","","","","","","","",""
"","html-keyboard-response","46","213935","0.0-31.0-1.0","4370.800000000745","<div class='center'><p>A pirate will always be equally successful at robbing ships in each place</p><p>Press 1 for true and press  2 for false.</p></div>","50","","","","","","","","","","","","","","","","","","",""
"","html-keyboard-response","47","214632","0.0-32.0-0.0","696.4000000022352","<br><br><br><br><p>That's correct!</p> <p><b>[press the space bar to continue with the quiz]</b></p>","32","","","","","","","","","","","","","","","","","","",""
"","html-keyboard-response","48","217600","0.0-32.0-1.0","2967.5","<div class='center'><p>You should remember the place where a pirate robbed a ship.</p><p>Press 1 for true and press  2 for false.</p></div>","49","","","","","","","","","","","","","","","","","","",""
"","html-keyboard-response","49","218150","0.0-33.0-0.0","546.3000000007451","<br><br><br><br><p>That's correct!</p> <p><b>[press the space bar to continue with the quiz]</b></p>","32","","","","","","","","","","","","","","","","","","",""
"","html-keyboard-response","50","219802","0.0-34.0-0.0","1651.6000000014901","<br><br><br><br><p>Good job! You’re now ready to move on to the real game!</p> <p><br>[press the space bar to begin!]</br></p>","32","","","","","","","","","","","","","","","","","","",""
"","do_welcome","51","221305","0.0-35.0-0.0","null","","","","null","","","","","","","","","","","","","","","","",""
"","do_trial","52","228071","0.0-36.0-0.0","2235.099999997765","","","","49","1,0,1","0","coast","0","probe-89","1","0.4","0.1","1","","","","","","","",""
"","do_trial","53","233893","0.0-37.0-0.0","1292.1000000014901","","","","49","1,0,1","0","coast","1","probe-42","1","0.5002621454986311","0.17194928555518607","1","","","","","","","",""
"","do_trial","54","239341","0.0-38.0-0.0","920","","","","49","1,1,0","0","coast","2","probe-128","1","0.4290830946923555","0.07115854401336595","1","","","","","","","",""
"","do_trial","55","245269","0.0-39.0-0.0","1398.699999999255","","","","49","1,0,0","0","coast","3","probe-135","1","0.454937866435475","0.05704710992826842","1","","","","","","","",""
"","do_trial","56","250372","0.0-40.0-0.0","575.2000000029802","","","","49","1,0,0","0","coast","4","probe-118","0.8022518332288223","0.4341542238655328","0.05118368292561885","1","","","","","","","",""
"","do_trial","57","255808","0.0-41.0-0.0","907.6000000014901","","","","49","1,0,0","0","coast","5","probe-52","0.7939141435445484","0.2933807357798535","0.08313092629063963","1","","","","","","","",""
"","do_trial","58","260996","0.0-42.0-0.0","659.1999999992549","","","","49","1,1,0","0","coast","6","probe-114","0.792627097455719","0.23817933920446466","0.16403241933626825","1","","","","","","","",""
"","do_trial","59","266211","0.0-43.0-0.0","687.5999999977648","","","","49","0,0,0","0","coast","7","probe-35","0.4146323568126622","0.274210080919351","0.1066111848500843","0","","","","","","","",""
"","do_trial","60","271398","0.0-44.0-0.0","658.0999999977648","","","","49","1,0,0","0","coast","8","probe-138","0.5296218300470226","0.28725037483293225","0.20748135082750516","1","","","","","","","",""
"","do_trial","61","276410","0.0-45.0-0.0","484.5","","","","49","0,1,0","0","coast","9","probe-210","0.6236337092268264","0.46178203163200243","0.16324451546805674","0","","","","","","","",""
"","do_trial","62","281555","0.0-46.0-0.0","614.5","","","","49","0,1,0","0","coast","10","probe-91","0.49845990219520625","0.666773895752509","0.2952097046171965","0","","","","","","","",""
"","do_trial","63","286964","0.0-47.0-0.0","881","","","","49","0,1,0","0","coast","11","probe-68","0.3750492817480825","0.6832560820977496","0.26092289426774834","0","","","","","","","",""
"","do_trial","64","292150","0.0-48.0-0.0","658.3999999985099","","","","50","0,1,0","0","coast","12","probe-30","0.2971523102209323","0.7137262786156063","0.22188337078622844","1","","","","","","","",""
"","do_trial","65","297087","0.0-49.0-0.0","407.69999999925494","","","","50","0,1,0","0","coast","13","probe-39","0.18966120662894992","0.8611643247225114","0.29974358472196605","1","","","","","","","",""
"","do_trial","66","302104","0.0-50.0-0.0","489","","","","50","0,1,0","0","coast","14","probe-177","0.20993117554494373","0.726405704744592","0.29665570331097624","1","","","","","","","",""
"","do_trial","67","307205","0.0-51.0-0.0","573.1999999992549","","","","50","0,1,0","0","coast","15","probe-100","0.2393206367678662","0.7585615711605503","0.4448086113675867","1","","","","","","","",""
"","do_trial","68","312075","0.0-52.0-0.0","340.8999999985099","","","","50","0,0,0","0","coast","16","probe-29","0.15418300328787665","0.8960392803380325","0.453444696548367","0","","","","","","","",""
"","do_trial","69","317062","0.0-53.0-0.0","458.19999999925494","","","","50","0,1,0","0","coast","17","probe-116","0.18353219193288275","0.8621669389080411","0.22630772179931513","1","","","","","","","",""
"","do_trial","70","321867","0.0-54.0-0.0","277","","","","50","0,1,0","0","coast","18","probe-220","0.19796166997960415","0.7355320612471471","0.26657319008536673","1","","","","","","","",""
"","do_trial","71","326643","0.0-55.0-0.0","248.5","","","","50","0,1,0","0","coast","19","probe-99","0.1358775123037829","0.8418894428044967","0.3164924356040616","1","","","","","","","",""
"","do_trial","72","331562","0.0-56.0-0.0","391.3999999985099","","","","50","0,1,0","0","coast","20","probe-55","0.09799899685078581","0.9235314424359338","0.2969391534096423","1","","","","","","","",""
"","do_trial","73","336522","0.0-57.0-0.0","430.3999999985099","","","","50","0,1,1","0","coast","21","probe-239","0.13416733742195244","0.8128904742966812","0.4200968590398603","1","","","","","","","",""
"","do_trial","74","342001","0.0-58.0-0.0","952.0999999977648","","","","51","0,1,1","0","coast","22","probe-75","0.12939912105780252","0.8765188685659971","0.5543709956543934","1","","","","","","","",""
"","do_trial","75","347582","0.0-59.0-0.0","1052.6000000014901","","","","51","0,1,0","0","coast","23","probe-72","0.06291425109839674","0.7170775096832985","0.46675517148219187","0","","","","","","","",""
"","do_trial","76","352393","0.0-60.0-0.0","283.69999999925494","","","","51","0,1,1","0","coast","24","probe-217","0.12352061811752402","0.6296553077413554","0.36922616014748316","1","","","","","","","",""
"","do_trial","77","357270","0.0-61.0-0.0","349.5","","","","51","1,1,0","0","coast","25","probe-16","0.15890120473302802","0.7375648631284498","0.3797445301507924","0","","","","","","","",""
"","do_trial","78","362670","0.0-62.0-0.0","869.3000000007451","","","","51","0,1,0","0","coast","26","probe-28","0.10552451799183184","0.735580177532719","0.32597773738921276","0","","","","","","","",""
"","do_trial","79","367440","0.0-63.0-0.0","240.89999999850988","","","","50","0,1,0","0","coast","27","probe-127","0.10798051242916269","0.8308773031042362","0.3557688591593254","1","","","","","","","",""
"","do_trial","80","372292","0.0-64.0-0.0","324.9000000022352","","","","50","1,1,1","0","coast","28","probe-15","0.20089262783200162","0.7756418668586261","0.4123671208196131","1","","","","","","","",""
"","do_trial","81","377361","0.0-65.0-0.0","540.7000000029802","","","","50","0,0,0","0","coast","29","probe-190","0.16452179264182565","0.7425073267914113","0.3309636684510713","0","","","","","","","",""
"","do_trial","82","382349","0.0-66.0-0.0","459.5","","","","50","0,1,0","0","coast","30","probe-159","0.17517908686296438","0.8852851153276496","0.41781587112254587","1","","","","","","","",""
"","do_trial","83","387179","0.0-67.0-0.0","300.9000000022352","","","","50","1,1,0","0","coast","31","probe-207","0.2939529660882469","0.8185537488100724","0.4055180751678058","1","","","","","","","",""
"","do_trial","84","392899","0.0-68.0-0.0","1185.199999999255","","","","50","1,1,0","0","coast","32","probe-191","0.2509167339857286","0.8985868204220031","0.44316206629068366","1","","","","","","","",""
"","do_trial","85","397922","0.0-69.0-0.0","495.19999999925494","","","","50","1,1,1","0","coast","33","probe-44","0.15632127963386233","0.7668889447605223","0.38004573486528176","1","","","","","","","",""
"","do_trial","86","402950","0.0-70.0-0.0","498.8999999985099","","","","50","0,1,1","0","coast","34","probe-236","0.2092641826602054","0.7200122841642477","0.44264021099487977","1","","","","","","","",""
"","do_trial","87","408980","0.0-71.0-0.0","null","","","","null","0,0,0","0","coast","35","probe-183","0.05567839444195398","0.7322702827487803","0.38173408767461814","","","","","","","","",""
"","do_trial","88","414065","0.0-72.0-0.0","556.5999999977648","","","","50","0,1,0","0","coast","36","probe-224","0.12406925308052348","0.7390434568336004","0.4155168356664087","1","","","","","","","",""
"","do_trial","89","418871","0.0-73.0-0.0","275.80000000074506","","","","50","0,1,1","0","coast","37","probe-40","0.12249524845229112","0.737433522545012","0.3476682875156119","1","","","","","","","",""
"","do_trial","90","423857","0.0-74.0-0.0","458.30000000074506","","","","50","0,1,0","0","coast","38","probe-14","0.17580398670385528","0.9418055079382507","0.41606133905611686","1","","","","","","","",""
"","do_trial","91","428609","0.0-75.0-0.0","223.40000000223517","","","","50","0,1,1","0","coast","39","probe-171","0.23028956761239866","0.8233682573225986","0.39561775437772484","1","","","","","","","",""
"","do_bye","92","430112","0.0-76.0-0.0","null","","","","null","","","","","","","","","","","","","","","","",""
"","do_travel","93","436114","0.0-77.0-0.0","null","","","","null","","","","","","","","","","","","","","","","",""
"","do_welcome","94","437616","0.0-77.0-1.0","null","","","","null","","","","","","","","","","","","","","","","",""
"","do_trial","95","443854","0.0-78.0-0.0","1708.300000000745","","","","49","0,1,1","1","mountain","40","probe-97","0.13760249057111573","1","0.32688993053645393","0","","","","","","","",""
"","do_trial","96","448620","0.0-79.0-0.0","234","","","","49","0,1,0","1","mountain","41","probe-57","0.24530090276727762","1","0.36537423608039216","0","","","","","","","",""
"","do_trial","97","453434","0.0-80.0-0.0","286.1000000014901","","","","49","0,1,1","1","mountain","42","probe-19","0.22331750344721696","1","0.4674693359637159","0","","","","","","","",""
"","do_trial","98","458204","0.0-81.0-0.0","241.70000000298023","","","","50","0,1,1","1","mountain","43","probe-174","0.23050345917070295","1","0.3654144382915916","1","","","","","","","",""
"","do_trial","99","462975","0.0-82.0-0.0","243.40000000223517","","","","50","1,1,0","1","mountain","44","probe-111","0.17044087615165635","0.8348119105907551","0.3819325349140324","1","","","","","","","",""
"","do_trial","100","467767","0.0-83.0-0.0","262","","","","50","0,1,1","1","mountain","45","probe-31","0.14315211582689727","0.8197283734937476","0.4753210214016352","1","","","","","","","",""
"","do_trial","101","472587","0.0-84.0-0.0","290.80000000074506","","","","50","0,1,0","1","mountain","46","probe-109","0.1902746677558378","0.8175052335341297","0.5559766124828065","1","","","","","","","",""
"","do_trial","102","477530","0.0-85.0-0.0","413.9000000022352","","","","50","0,1,0","1","mountain","47","probe-70","0.11907720228254011","0.8651041753930301","0.5188808561843216","1","","","","","","","",""
"","do_trial","103","482320","0.0-86.0-0.0","262.30000000074506","","","","50","0,1,1","1","mountain","48","probe-161","0.1918819123608811","0.8647518128894878","0.3874920131636087","1","","","","","","","",""
"","do_trial","104","487212","0.0-87.0-0.0","363.69999999925494","","","","50","0,0,1","1","mountain","49","probe-209","0.10775208101940326","0.8211150650689045","0.3227180301805174","0","","","","","","","",""
"","do_trial","105","492020","0.0-88.0-0.0","279.69999999925494","","","","50","0,0,1","1","mountain","50","probe-235","0.4858993864071554","0.7377316254240468","0.18959825641386446","0","","","","","","","",""
"","do_trial","106","496762","0.0-89.0-0.0","213.70000000298023","","","","50","1,1,0","1","mountain","51","probe-155","0.5902789968793009","0.6762754382809699","0.05023720601471933","1","","","","","","","",""
"","do_trial","107","501504","0.0-90.0-0.0","213.90000000223517","","","","51","0,0,0","1","mountain","52","probe-149","0.7164528441651971","0.4509052055451056","0.1770896833353006","0","","","","","","","",""
"","do_trial","108","506267","0.0-91.0-0.0","234","","","","51","1,0,0","1","mountain","53","probe-22","0.7630230349894015","0.5230715731630973","0.19900776944147727","0","","","","","","","",""
"","do_trial","109","511003","0.0-92.0-0.0","207","","","","51","1,1,0","1","mountain","54","probe-197","0.8788700555558411","0.5841550047541171","0.08961015661451796","0","","","","","","","",""
"","do_trial","110","515798","0.0-93.0-0.0","266.3999999985099","","","","50","1,1,0","1","mountain","55","probe-198","0.9335670913456875","0.5265088094985745","0.28100694332323645","1","","","","","","","",""
"","do_trial","111","520577","0.0-94.0-0.0","251.90000000223517","","","","50","1,0,0","1","mountain","56","probe-205","0.7122420952489796","0.40647941359970347","0.1504642091630339","0","","","","","","","",""
"","do_trial","112","525393","0.0-95.0-0.0","288","","","","50","1,0,0","1","mountain","57","probe-225","0.7363561228212325","0.5355199436004587","0.2696263310126276","0","","","","","","","",""
"","do_trial","113","530317","0.0-96.0-0.0","394.30000000074506","","","","50","0,0,0","1","mountain","58","probe-126","0.7414159356132001","0.4768073775804856","0.24883793999544554","0","","","","","","","",""
"","do_trial","114","535126","0.0-97.0-0.0","276.9000000022352","","","","50","1,1,0","1","mountain","59","probe-123","0.8012818220509739","0.48847460625878486","0.10149856815192916","1","","","","","","","",""
"","do_trial","115","540534","0.0-98.0-0.0","879.3000000007451","","","","50","0,0,0","1","mountain","60","probe-81","0.7411624159803624","0.5783687352387477","0.24512766755128898","0","","","","","","","",""
"","do_trial","116","545367","0.0-99.0-0.0","301.80000000074506","","","","51","1,1,1","1","mountain","61","probe-36","0.8293274421009844","0.43180557550913934","0.18804720714383544","1","","","","","","","",""
"","do_trial","117","550435","0.0-100.0-0.0","540.3000000007451","","","","51","1,0,0","1","mountain","62","probe-94","0.883596783659673","0.2538897128176617","0.21607076814099316","0","","","","","","","",""
"","do_trial","118","555239","0.0-101.0-0.0","275.3999999985099","","","","49","1,1,0","1","mountain","63","probe-60","0.944316893574305","0.3310471501315405","0.16081009231997334","1","","","","","","","",""
"","do_trial","119","560130","0.0-102.0-0.0","362.30000000074506","","","","49","1,0,1","1","mountain","64","probe-219","0.8279056755453007","0.34558247239364887","0.2632133607744818","1","","","","","","","",""
"","do_trial","120","565116","0.0-103.0-0.0","456.80000000074506","","","","49","1,0,0","1","mountain","65","probe-193","0.8235760139888737","0.3039584590396581","0.24046568025885387","1","","","","","","","",""
"","do_trial","121","569955","0.0-104.0-0.0","309.1000000014901","","","","49","1,0,0","1","mountain","66","probe-38","0.8815578948768525","0.1591140590476884","0.15987582873583459","1","","","","","","","",""
"","do_trial","122","575288","0.0-105.0-0.0","804.9000000022352","","","","49","0,0,0","1","mountain","67","probe-131","0.8586092097621927","0.260740492772852","0.06265818603181769","0","","","","","","","",""
"","do_trial","123","580672","0.0-106.0-0.0","855","","","","49","1,0,0","1","mountain","68","probe-67","0.7922601357687894","0.17715796735572809","0.20341128649991289","1","","","","","","","",""
"","do_trial","124","585651","0.0-107.0-0.0","451","","","","49","1,0,0","1","mountain","69","probe-153","0.7707921764122097","0.2772824229179931","0.246066624235726","1","","","","","","","",""
"","do_trial","125","590593","0.0-108.0-0.0","414.69999999925494","","","","49","1,0,1","1","mountain","70","probe-240","0.9414834075378654","0.393084839691124","0.10963961306485832","1","","","","","","","",""
"","do_trial","126","595711","0.0-109.0-0.0","588.3999999985099","","","","49","0,1,0","1","mountain","71","probe-78","0.8156096887385615","0.3099892171364755","0.0986138695902264","0","","","","","","","",""
"","do_trial","127","601359","0.0-110.0-0.0","1119.800000000745","","","","49","1,0,0","1","mountain","72","probe-151","0.8307336982363316","0.3307421144566636","0.23336350834397174","1","","","","","","","",""
"","do_trial","128","606554","0.0-111.0-0.0","666.6999999992549","","","","49","1,0,0","1","mountain","73","probe-47","0.9280987799276447","0.23890667903893253","0.2866775043438443","1","","","","","","","",""
"","do_trial","129","611539","0.0-112.0-0.0","457.0999999977648","","","","49","1,0,0","1","mountain","74","probe-43","0.8196330464030009","0.2974865726059143","0.3211439212216399","1","","","","","","","",""
"","do_trial","130","616382","0.0-113.0-0.0","315.80000000074506","","","","49","1,0,0","1","mountain","75","probe-65","0.737219380720622","0.37556598589904655","0.13110536737837594","1","","","","","","","",""
"","do_trial","131","621866","0.0-114.0-0.0","955.9000000022352","","","","49","1,1,0","1","mountain","76","probe-150","0.936074789765987","0.31332188977300546","0.23501277296200193","1","","","","","","","",""
"","do_trial","132","626924","0.0-115.0-0.0","530.5","","","","49","1,0,0","1","mountain","77","probe-233","0.8577066795175065","0.3943337561560509","0.21420215644976714","1","","","","","","","",""
"","do_trial","133","631990","0.0-116.0-0.0","537.1000000014901","","","","49","0,0,0","1","mountain","78","probe-206","0.8506683104706612","0.2800185475818919","0.1806363878805204","0","","","","","","","",""
"","do_trial","134","636868","0.0-117.0-0.0","349.5","","","","49","1,0,0","1","mountain","79","probe-165","0.8741697770145558","0.46778413827057275","0.08268576801490816","1","","","","","","","",""
"","do_bye","135","638371","0.0-118.0-0.0","null","","","","null","","","","","","","","","","","","","","","","",""
"","do_travel","136","644373","0.0-119.0-0.0","null","","","","null","","","","","","","","","","","","","","","","",""
"","do_welcome","137","645875","0.0-119.0-1.0","null","","","","null","","","","","","","","","","","","","","","","",""
"","do_trial","138","651569","0.0-120.0-0.0","1165.699999999255","","","","51","1,1,0","2","highway","80","probe-103","1","0.5048289566106111","0.14593504701489438","0","","","","","","","",""
"","do_trial","139","656588","0.0-121.0-0.0","489.79999999701977","","","","51","1,1,0","2","highway","81","probe-188","1","0.5903753729492027","0.16224642742515244","0","","","","","","","",""
"","do_trial","140","661680","0.0-122.0-0.0","564.1999999992549","","","","50","1,1,0","2","highway","82","probe-17","1","0.5692840350578817","0.3428541458034116","1","","","","","","","",""
"","do_trial","141","666981","0.0-123.0-0.0","770.9000000022352","","","","50","1,0,0","2","highway","83","probe-152","1","0.4959050783995897","0.18194836359832875","0","","","","","","","",""
"","do_trial","142","672186","0.0-124.0-0.0","676","","","","50","1,1,0","2","highway","84","probe-237","0.938716722916076","0.4433540433687198","0.17618405907552426","1","","","","","","","",""
"","do_trial","143","676993","0.0-125.0-0.0","280","","","","50","1,0,0","2","highway","85","probe-142","0.7948860751936662","0.2647069611912592","0.3400972418424707","0","","","","","","","",""
"","do_trial","144","682458","0.0-126.0-0.0","936.3999999985099","","","","49","1,0,0","2","highway","86","probe-27","0.760255911889625","0.23412834476030003","0.19250754302973425","1","","","","","","","",""
"","do_trial","145","687625","0.0-127.0-0.0","638.8000000007451","","","","49","1,0,0","2","highway","87","probe-95","0.8962303595709775","0.23599828107998122","0.15372070298253623","1","","","","","","","",""
"","do_trial","146","692845","0.0-128.0-0.0","692.4000000022352","","","","49","0,1,0","2","highway","88","probe-203","0.7622187168571243","0.2734388288484634","0.20182871428016635","0","","","","","","","",""
"","do_trial","147","697877","0.0-129.0-0.0","501.6000000014901","","","","49","0,0,0","2","highway","89","probe-56","0.8124734191022822","0.3749479421653779","0.1911750524402178","0","","","","","","","",""
"","do_trial","148","703434","0.0-130.0-0.0","1027.6000000014901","","","","49","0,1,0","2","highway","90","probe-178","0.6108916259012914","0.7211503812519533","0.10210125389910772","0","","","","","","","",""
"","do_trial","149","708735","0.0-131.0-0.0","771.5","","","","49","0,1,0","2","highway","91","probe-132","0.5071119867320073","0.717573092969051","0.09639104269326602","0","","","","","","","",""
"","do_trial","150","714686","0.0-132.0-0.0","1420.8999999985099","","","","49","0,1,0","2","highway","92","probe-158","0.49552652142835735","0.7540691968261115","0.13144091273949587","0","","","","","","","",""
"","do_trial","151","720715","0.0-133.0-0.0","null","","","","null","0,1,0","2","highway","93","probe-143","0.4536584981361793","0.8665971230792908","0.09171640164228541","","","","","","","","",""
"","do_trial","152","725892","0.0-134.0-0.0","647.3999999985099","","","","51","1,1,0","2","highway","94","probe-211","0.474009947631722","0.7635043610183996","0.10045644735710496","0","","","","","","","",""
"","do_trial","153","731205","0.0-135.0-0.0","783","","","","51","0,1,0","2","highway","95","probe-59","0.4223014835455318","0.8325187256934723","0.11088702493315296","0","","","","","","","",""
"","do_trial","154","736481","0.0-136.0-0.0","747.7999999970198","","","","51","0,1,0","2","highway","96","probe-73","0.3122260664397505","0.9032196476252189","0.21639748688211768","0","","","","","","","",""
"","do_trial","155","742010","0.0-137.0-0.0","1001.8999999985099","","","","50","0,1,0","2","highway","97","probe-201","0.27194000036702426","0.7581955392553948","0.19654417983961675","1","","","","","","","",""
"","do_trial","156","747047","0.0-138.0-0.0","507.9000000022352","","","","50","0,1,0","2","highway","98","probe-112","0.23390691513328152","0.8061354473586404","0.2890070542706683","1","","","","","","","",""
"","do_trial","157","752259","0.0-139.0-0.0","681.5","","","","50","0,1,0","2","highway","99","probe-32","0.31008557547968546","0.904914899261181","0.18213820718433005","1","","","","","","","",""
"","do_trial","158","757755","0.0-140.0-0.0","967.6000000014901","","","","50","0,1,0","2","highway","100","probe-80","0.46365715665129975","0.8516174631250025","0.11920082581284071","1","","","","","","","",""
"","do_trial","159","762998","0.0-141.0-0.0","714.2000000029802","","","","50","1,1,1","2","highway","101","probe-215","0.36742078075930723","0.8437489666219399","0.07341381453318117","1","","","","","","","",""
"","do_trial","160","767603","0.0-142.0-0.0","76.80000000074506","","","","50","0,1,1","2","highway","102","probe-106","0.31803703446632775","0.7993582409652186","0.18975731064907844","1","","","","","","","",""
"","do_trial","161","772801","0.0-143.0-0.0","668.8000000007451","","","","50","0,1,1","2","highway","103","probe-62","0.2992762898768474","0.7460260265485138","0.20582747351206507","1","","","","","","","",""
"","do_trial","162","777926","0.0-144.0-0.0","596.2999999970198","","","","50","0,1,0","2","highway","104","probe-229","0.39533633562284026","0.947286537852237","0.1292160403317558","1","","","","","","","",""
"","do_trial","163","783214","0.0-145.0-0.0","757.5","","","","50","0,1,0","2","highway","105","probe-218","0.41931768216273685","0.837259521831248","0.11873915274205248","1","","","","","","","",""
"","do_trial","164","788570","0.0-146.0-0.0","825.5","","","","50","0,1,0","2","highway","106","probe-192","0.4768468084480326","0.8487258783707601","0.1505156498205499","1","","","","","","","",""
"","do_trial","165","793999","0.0-147.0-0.0","901.1999999992549","","","","50","1,1,0","2","highway","107","probe-134","0.4359506258924297","0.8039065801336946","0.11409286487559187","1","","","","","","","",""
"","do_trial","166","799267","0.0-148.0-0.0","740.3000000007451","","","","50","0,1,0","2","highway","108","probe-102","0.5202260296185431","0.9288605204845025","0.05565572603580047","1","","","","","","","",""
"","do_trial","167","804151","0.0-149.0-0.0","355.20000000298023","","","","50","0,1,0","2","highway","109","probe-148","0.4148889630506776","0.7742125749212736","0.11949305553557028","1","","","","","","","",""
"","do_trial","168","809085","0.0-150.0-0.0","406.1000000014901","","","","50","0,0,0","2","highway","110","probe-232","0.4365523721681611","0.8159372514051191","0.1219010806459024","0","","","","","","","",""
"","do_trial","169","814181","0.0-151.0-0.0","567.1000000014901","","","","50","1,1,1","2","highway","111","probe-157","0.5403961865257041","0.7805052166592209","0.07191755808858345","1","","","","","","","",""
"","do_trial","170","819304","0.0-152.0-0.0","593.2000000029802","","","","50","1,0,0","2","highway","112","probe-230","0.6264054700644522","0.8548380350109","0.10570440381423737","0","","","","","","","",""
"","do_trial","171","824373","0.0-153.0-0.0","541.2000000029802","","","","50","1,1,0","2","highway","113","probe-76","0.429928956622315","0.8204928946580734","0.1319755260744772","1","","","","","","","",""
"","do_trial","172","829258","0.0-154.0-0.0","356.8999999985099","","","","50","1,1,0","2","highway","114","probe-124","0.5176911582907511","0.8437479570924015","0.12548742306053465","1","","","","","","","",""
"","do_trial","173","834319","0.0-155.0-0.0","532.1000000014901","","","","50","1,1,1","2","highway","115","probe-167","0.3478773709457552","0.8333964190257669","0.09897593563344263","1","","","","","","","",""
"","do_trial","174","839526","0.0-156.0-0.0","676.8000000044703","","","","50","0,1,1","2","highway","116","probe-164","0.4002110385778397","0.8228984347567675","0.10290429790816599","1","","","","","","","",""
"","do_trial","175","844436","0.0-157.0-0.0","381.29999999701977","","","","50","1,1,0","2","highway","117","probe-228","0.5053344910090166","0.8524781738838043","0.1482821667537646","1","","","","","","","",""
"","do_trial","176","849443","0.0-158.0-0.0","479.29999999701977","","","","50","0,1,0","2","highway","118","probe-34","0.6104762666411974","0.8504214314764568","0.15780633860148433","1","","","","","","","",""
"","do_trial","177","854623","0.0-159.0-0.0","652.3000000044703","","","","50","0,1,0","2","highway","119","probe-10","0.5589751371847271","0.8723012781431099","0.07228243277349218","1","","","","","","","",""
"","do_bye","178","856127","0.0-160.0-0.0","null","","","","null","","","","","","","","","","","","","","","","",""
"","do_travel","179","862128","0.0-161.0-0.0","null","","","","null","","","","","","","","","","","","","","","","",""
"","do_welcome","180","863631","0.0-161.0-1.0","null","","","","null","","","","","","","","","","","","","","","","",""
"","do_trial","181","869803","0.0-162.0-0.0","1644.6000000014901","","","","49","1,1,0","3","countryside","120","probe-121","0.5549261457822184","1","0.05551772270005822","1","","","","","","","",""
"","do_trial","182","874776","0.0-163.0-0.0","445","","","","49","1,1,0","3","countryside","121","probe-176","0.48001745616635505","1","0.10365008638788059","1","","","","","","","",""
"","do_trial","183","879711","0.0-164.0-0.0","406.3999999985099","","","","49","1,1,0","3","countryside","122","probe-120","0.3360950084562743","1","0.1749515443448878","1","","","","","","","",""
"","do_trial","184","884493","0.0-165.0-0.0","253.10000000149012","","","","49","1,1,0","3","countryside","123","probe-195","0.4577770207011318","1","0.11893298032478063","1","","","","","","","",""
"","do_trial","185","890363","0.0-166.0-0.0","1342.1000000014901","","","","49","0,1,0","3","countryside","124","probe-41","0.30317491006117414","0.7939285885642866","0.13098003206291461","0","","","","","","","",""
"","do_trial","186","897787","0.0-167.0-0.0","2894.2000000029802","","","","49","0,1,0","3","countryside","125","probe-125","0.27313242376361707","0.7952776779051728","0.056716723092331826","0","","","","","","","",""
"","do_trial","187","903374","0.0-168.0-0.0","1059.2000000029802","","","","49","0,1,1","3","countryside","126","probe-154","0.48237689020042795","0.7706731087170544","0.163549944005852","0","","","","","","","",""
"","do_trial","188","908616","0.0-169.0-0.0","713.1000000014901","","","","49","1,1,1","3","countryside","127","probe-46","0.48952379633629994","0.7890636951226101","0.20298887430168094","1","","","","","","","",""
"","do_trial","189","913836","0.0-170.0-0.0","691.2999999970198","","","","49","0,1,0","3","countryside","128","probe-06","0.5914387008181964","0.7743398163198424","0.08864650484465074","0","","","","","","","",""
"","do_trial","190","919328","0.0-171.0-0.0","963","","","","49","1,1,0","3","countryside","129","probe-33","0.46607992460226016","0.6914742479642666","0.15161052797896632","1","","","","","","","",""
"","do_trial","191","924375","0.0-172.0-0.0","518.2000000029802","","","","49","0,1,0","3","countryside","130","probe-204","0.2804478470163971","0.5078700874423476","0.370580762942935","0","","","","","","","",""
"","do_trial","192","930025","0.0-173.0-0.0","1121.7000000029802","","","","49","0,1,0","3","countryside","131","probe-202","0.2601431803097731","0.48287639826174683","0.41753968176565714","0","","","","","","","",""
"","do_trial","193","935094","0.0-174.0-0.0","539.3999999985099","","","","51","1,0,0","3","countryside","132","probe-187","0.33038996023862616","0.47121806378333836","0.6270984769145479","0","","","","","","","",""
"","do_trial","194","940277","0.0-175.0-0.0","654.2999999970198","","","","51","1,0,1","3","countryside","133","probe-84","0.2788436317260818","0.5412145778962083","0.583318456380035","1","","","","","","","",""
"","do_trial","195","945306","0.0-176.0-0.0","501.20000000298023","","","","51","1,1,0","3","countryside","134","probe-82","0.18235531485808446","0.40109661522914386","0.6984952883382088","0","","","","","","","",""
"","do_trial","196","950214","0.0-177.0-0.0","379.8999999985099","","","","51","0,0,1","3","countryside","135","probe-96","0.08167900937587874","0.38656777501135364","0.781724539743968","1","","","","","","","",""
"","do_trial","197","955450","0.0-178.0-0.0","707.2999999970198","","","","51","1,1,1","3","countryside","136","probe-49","0.19418535276154153","0.460803454606166","0.8164072647266291","1","","","","","","","",""
"","do_trial","198","960370","0.0-179.0-0.0","391.6000000014901","","","","51","0,1,1","3","countryside","137","probe-130","0.1486471819162921","0.3949548942092285","0.8520737659108076","1","","","","","","","",""
"","do_trial","199","965413","0.0-180.0-0.0","514.3000000044703","","","","51","0,1,1","3","countryside","138","probe-223","0.19227373247718313","0.41248287912055726","0.9446122868208243","1","","","","","","","",""
"","do_trial","200","970475","0.0-181.0-0.0","533.1999999955297","","","","51","0,0,0","3","countryside","139","probe-09","0.18820724016577786","0.4104095823941211","0.8690401895290871","0","","","","","","","",""
"","do_trial","201","975365","0.0-182.0-0.0","363","","","","51","0,0,1","3","countryside","140","probe-26","0.0888571199228033","0.5211326773689912","0.8941128946540746","1","","","","","","","",""
"","do_trial","202","980483","0.0-183.0-0.0","589.6000000014901","","","","51","0,1,1","3","countryside","141","probe-140","0.1305049851679928","0.5808036118425123","0.7550290542846453","1","","","","","","","",""
"","do_trial","203","985446","0.0-184.0-0.0","434.8999999985099","","","","51","0,1,1","3","countryside","142","probe-104","0.0772394738212726","0.5381245788474065","0.7999495837012338","1","","","","","","","",""
"","do_trial","204","990354","0.0-185.0-0.0","380.20000000298023","","","","51","0,0,1","3","countryside","143","probe-213","0.093921577324774","0.5516894676755562","0.815845202805225","1","","","","","","","",""
"","do_trial","205","995168","0.0-186.0-0.0","286.1000000014901","","","","51","0,0,0","3","countryside","144","probe-93","0.06676198020620334","0.4451377839470158","0.8335457914163449","0","","","","","","","",""
"","do_trial","206","999934","0.0-187.0-0.0","236.60000000149012","","","","51","0,0,1","3","countryside","145","probe-50","0.09356524768439287","0.39943654296455655","0.7497421352734567","1","","","","","","","",""
"","do_trial","207","1004995","0.0-188.0-0.0","533.1000000014901","","","","51","0,0,1","3","countryside","146","probe-182","0.11146019926597825","0.29619897029676073","0.6101149110712027","1","","","","","","","",""
"","do_trial","208","1009847","0.0-189.0-0.0","323.70000000298023","","","","51","0,1,1","3","countryside","147","probe-146","0.1362750516790054","0.2947597163339018","0.7976858245246368","1","","","","","","","",""
"","do_trial","209","1014732","0.0-190.0-0.0","354.5","","","","51","0,0,1","3","countryside","148","probe-92","0.08112798309210752","0.34223425722786893","0.8020684975565261","1","","","","","","","",""
"","do_trial","210","1019886","0.0-191.0-0.0","625","","","","51","0,0,1","3","countryside","149","probe-222","0.06986517490977928","0.3223858661800337","0.7555041666025826","1","","","","","","","",""
"","do_trial","211","1024748","0.0-192.0-0.0","329.90000000596046","","","","51","0,0,1","3","countryside","150","probe-185","0.1107575214033901","0.3063579644247993","0.6317824029123029","1","","","","","","","",""
"","do_trial","212","1029574","0.0-193.0-0.0","297.30000000447035","","","","51","0,1,1","3","countryside","151","probe-12","0.23352872016851287","0.3660265818569679","0.8090849232899681","1","","","","","","","",""
"","do_trial","213","1034565","0.0-194.0-0.0","463.69999999552965","","","","51","0,0,1","3","countryside","152","probe-101","0.16422826986588895","0.3110969318306623","0.8825948795148947","1","","","","","","","",""
"","do_trial","214","1039446","0.0-195.0-0.0","351.80000000447035","","","","51","0,0,1","3","countryside","153","probe-69","0.06021374092093061","0.362651811265273","0.8988775512484335","1","","","","","","","",""
"","do_trial","215","1044315","0.0-196.0-0.0","338.80000000447035","","","","51","0,0,1","3","countryside","154","probe-05","0.14161975708351474","0.4293950515220775","0.7458343158690124","1","","","","","","","",""
"","do_trial","216","1049317","0.0-197.0-0.0","472.79999999701977","","","","51","0,1,1","3","countryside","155","probe-51","0.06645265210463962","0.4644567593964681","0.8387605270737605","1","","","","","","","",""
"","do_trial","217","1054224","0.0-198.0-0.0","377.6000000014901","","","","51","0,1,1","3","countryside","156","probe-226","0.12712079510919622","0.34965733273878097","0.7947966925800838","1","","","","","","","",""
"","do_trial","218","1059415","0.0-199.0-0.0","660.2999999970198","","","","51","0,1,1","3","countryside","157","probe-200","0.08854065234729497","0.3014507441573131","0.7586797703057309","1","","","","","","","",""
"","do_trial","219","1064460","0.0-200.0-0.0","517.3000000044703","","","","51","0,1,1","3","countryside","158","probe-231","0.08003600510007454","0.3246650871897993","0.7664237348035781","1","","","","","","","",""
"","do_trial","220","1069728","0.0-201.0-0.0","738","","","","51","0,1,1","3","countryside","159","probe-20","0.07305106218802479","0.3071193725575012","0.7490794700407477","1","","","","","","","",""
"","do_bye","221","1071231","0.0-202.0-0.0","null","","","","null","","","","","","","","","","","","","","","","",""
"","do_travel","222","1077233","0.0-203.0-0.0","null","","","","null","","","","","","","","","","","","","","","","",""
"","do_welcome","223","1078736","0.0-203.0-1.0","null","","","","null","","","","","","","","","","","","","","","","",""
"","do_trial","224","1084001","0.0-204.0-0.0","737.6000000014901","","","","50","0,1,1","4","city","160","probe-208","0.05042707686526446","0.3097488710412466","1","1","","","","","","","",""
"","do_trial","225","1088978","0.0-205.0-0.0","445.6000000014901","","","","50","0,1,1","4","city","161","probe-179","0.07573063981164949","0.28283303883113736","1","1","","","","","","","",""
"","do_trial","226","1094100","0.0-206.0-0.0","592.3000000044703","","","","50","0,1,1","4","city","162","probe-156","0.12910857473503765","0.32989580980044575","1","1","","","","","","","",""
"","do_trial","227","1099284","0.0-207.0-0.0","655.8999999985099","","","","50","0,1,1","4","city","163","probe-24","0.117636778953242","0.2941593037653772","1","1","","","","","","","",""
"","do_trial","228","1104390","0.0-208.0-0.0","577.2999999970198","","","","50","0,1,0","4","city","164","probe-172","0.08724684892330138","0.32417735746043214","0.8543080299727174","1","","","","","","","",""
"","do_trial","229","1109210","0.0-209.0-0.0","290.69999999552965","","","","50","1,1,1","4","city","165","probe-141","0.2632838500687304","0.32437406403159047","0.7725226015052813","1","","","","","","","",""
"","do_trial","230","1114389","0.0-210.0-0.0","650","","","","50","0,0,1","4","city","166","probe-90","0.2857432542015222","0.30567244710028657","0.7717002447821182","0","","","","","","","",""
"","do_trial","231","1119316","0.0-211.0-0.0","398.70000000298023","","","","50","1,1,1","4","city","167","probe-64","0.20256963018861182","0.35284154405071133","0.8260864288485944","1","","","","","","","",""
"","do_trial","232","1124480","0.0-212.0-0.0","635.1000000014901","","","","50","0,1,1","4","city","168","probe-170","0.0877000447914211","0.33020710608469667","0.7378333705787865","1","","","","","","","",""
"","do_trial","233","1129266","0.0-213.0-0.0","258.19999999552965","","","","50","0,1,1","4","city","169","probe-88","0.07514570926629102","0.33816659994634163","0.6892001563391762","1","","","","","","","",""
"","do_trial","234","1134143","0.0-214.0-0.0","348.1000000014901","","","","50","0,0,1","4","city","170","probe-139","0.3755707655025014","0.30408615391725585","0.5467163897246693","0","","","","","","","",""
"","do_trial","235","1139025","0.0-215.0-0.0","354.5","","","","50","1,1,0","4","city","171","probe-105","0.5709955180520223","0.34216321075974065","0.5092144399316059","1","","","","","","","",""
"","do_trial","236","1143875","0.0-216.0-0.0","321.1000000014901","","","","50","1,0,0","4","city","172","probe-238","0.730259162195062","0.2101130072743933","0.16744078490654896","0","","","","","","","",""
"","do_trial","237","1148851","0.0-217.0-0.0","447.8999999985099","","","","50","1,0,0","4","city","173","probe-147","0.8835155134717678","0.2385216449212165","0.1933417848517542","0","","","","","","","",""
"","do_trial","238","1153690","0.0-218.0-0.0","310.40000000596046","","","","50","1,0,0","4","city","174","probe-18","0.9311389617149111","0.20116652754568357","0.3634600672550742","0","","","","","","","",""
"","do_trial","239","1158842","0.0-219.0-0.0","623","","","","49","1,0,0","4","city","175","probe-119","0.9176558735366612","0.11406404335943446","0.2899900758115617","1","","","","","","","",""
"","do_trial","240","1163995","0.0-220.0-0.0","623.8000000044703","","","","49","1,0,0","4","city","176","probe-234","0.8969284155959674","0.06865566398958152","0.2838560725001255","1","","","","","","","",""
"","do_trial","241","1168799","0.0-221.0-0.0","277.19999999552965","","","","49","1,0,0","4","city","177","probe-194","0.7793469843669167","0.052100100840526714","0.25537057869416757","1","","","","","","","",""
"","do_trial","242","1173734","0.0-222.0-0.0","406.79999999701977","","","","49","1,0,0","4","city","178","probe-37","0.8491020405929317","0.09113170519219349","0.27472306214931463","1","","","","","","","",""
"","do_trial","243","1178818","0.0-223.0-0.0","556","","","","49","1,0,0","4","city","179","probe-107","0.8624518496080366","0.09944862447144769","0.3510446176876734","1","","","","","","","",""
"","do_trial","244","1184108","0.0-224.0-0.0","761.6000000014901","","","","49","1,0,1","4","city","180","probe-03","0.8523913030871569","0.07102468920303928","0.2881961727886395","1","","","","","","","",""
"","do_trial","245","1188973","0.0-225.0-0.0","337.20000000298023","","","","49","1,0,0","4","city","181","probe-77","0.7637078355096594","0.08350820025805594","0.3734591175237496","1","","","","","","","",""
"","do_trial","246","1193781","0.0-226.0-0.0","278.69999999552965","","","","49","1,0,0","4","city","182","probe-144","0.6996749434639179","0.06801433867960069","0.3100897213923921","1","","","","","","","",""
"","do_trial","247","1198479","0.0-227.0-0.0","167.60000000149012","","","","49","1,0,1","4","city","183","probe-74","0.730455388253831","0.22592281587256793","0.46990716324331927","1","","","","","","","",""
"","do_trial","248","1203257","0.0-228.0-0.0","249.20000000298023","","","","49","1,0,0","4","city","184","probe-58","0.809245066746653","0.09267101782286888","0.4849828277693588","1","","","","","","","",""
"","do_trial","249","1208142","0.0-229.0-0.0","356.29999999701977","","","","49","1,1,1","4","city","185","probe-08","0.7668548912465256","0.13261238695525535","0.5970757600434446","1","","","","","","","",""
"","do_trial","250","1212901","0.0-230.0-0.0","230.39999999850988","","","","49","1,0,0","4","city","186","probe-196","0.7306033636902728","0.1234517718163092","0.5288407332866573","1","","","","","","","",""
"","do_trial","251","1218044","0.0-231.0-0.0","614.2999999970198","","","","49","0,0,1","4","city","187","probe-184","0.7186956875854719","0.0781667983961688","0.47475323392516927","0","","","","","","","",""
"","do_trial","252","1223108","0.0-232.0-0.0","536.2999999970198","","","","49","1,0,1","4","city","188","probe-13","0.6700161790687418","0.13894637579641617","0.550019428195797","1","","","","","","","",""
"","do_trial","253","1228030","0.0-233.0-0.0","393.6000000014901","","","","49","1,1,0","4","city","189","probe-186","0.7176085735880963","0.12753427892623584","0.4729614788218193","1","","","","","","","",""
"","do_trial","254","1232830","0.0-234.0-0.0","271.80000000447035","","","","49","0,0,1","4","city","190","probe-63","0.5631095156383789","0.14037253497443666","0.3624088578106218","0","","","","","","","",""
"","do_trial","255","1238056","0.0-235.0-0.0","697.5","","","","49","0,0,1","4","city","191","probe-214","0.7040194713008087","0.06398878210670476","0.35965919386822637","0","","","","","","","",""
"","do_trial","256","1243589","0.0-236.0-0.0","1004.2000000029802","","","","49","1,0,1","4","city","192","probe-212","0.8502717277090417","0.09618821029739055","0.1626547066657871","1","","","","","","","",""
"","do_trial","257","1248682","0.0-237.0-0.0","564.7999999970198","","","","49","1,0,0","4","city","193","probe-169","0.9170475318489443","0.10380973022215421","0.38292654179585606","1","","","","","","","",""
"","do_trial","258","1254200","0.0-238.0-0.0","989.2000000029802","","","","49","1,0,1","4","city","194","probe-04","0.9412964613521715","0.09531089614268196","0.456707066274553","1","","","","","","","",""
"","do_trial","259","1259437","0.0-239.0-0.0","706","","","","49","1,1,0","4","city","195","probe-145","0.8882567645776392","0.1367351078467175","0.4374039113222928","1","","","","","","","",""
"","do_trial","260","1264418","0.0-240.0-0.0","451.5","","","","49","1,0,0","4","city","196","probe-83","0.902680722254549","0.17097144407965179","0.4128954543244215","1","","","","","","","",""
"","do_trial","261","1269322","0.0-241.0-0.0","375.3999999985099","","","","49","1,0,0","4","city","197","probe-199","0.809508680429956","0.10683622504461104","0.4363065582357912","1","","","","","","","",""
"","do_trial","262","1274541","0.0-242.0-0.0","688.4000000059605","","","","49","1,0,1","4","city","198","probe-162","0.750112855393893","0.20165426456525068","0.4512845542149689","1","","","","","","","",""
"","do_trial","263","1279684","0.0-243.0-0.0","614.3999999985099","","","","49","1,0,1","4","city","199","probe-129","0.7701353108960646","0.164509732810212","0.4808032690397539","1","","","","","","","",""
"","do_bye","264","1281187","0.0-244.0-0.0","null","","","","null","","","","","","","","","","","","","","","","",""
"","do_travel","265","1287188","0.0-245.0-0.0","null","","","","null","","","","","","","","","","","","","","","","",""
"","do_welcome","266","1288691","0.0-245.0-1.0","null","","","","null","","","","","","","","","","","","","","","","",""
"","do_trial","267","1294376","0.0-246.0-0.0","1157.5","","","","49","1,0,0","5","forest","200","probe-61","1","0.10922153557930045","0.4551487162086233","1","","","","","","","",""
"","do_trial","268","1299205","0.0-247.0-0.0","300.5","","","","49","1,1,1","5","forest","201","probe-71","1","0.14183907949389438","0.5111877387450111","1","","","","","","","",""
"","do_trial","269","1304457","0.0-248.0-0.0","723.3000000044703","","","","49","1,0,1","5","forest","202","probe-160","1","0.11715792392103025","0.468766873885485","1","","","","","","","",""
"","do_trial","270","1309418","0.0-249.0-0.0","431.69999999552965","","","","49","1,0,1","5","forest","203","probe-227","1","0.06612746437265155","0.5696589386584286","1","","","","","","","",""
"","do_trial","271","1314603","0.0-250.0-0.0","657","","","","49","1,1,1","5","forest","204","probe-66","0.8789387234605894","0.10387572726385429","0.44908779615505773","1","","","","","","","",""
"","do_trial","272","1319483","0.0-251.0-0.0","352","","","","49","0,1,1","5","forest","205","probe-07","0.8883630971237462","0.15744125472321874","0.46715933419268074","0","","","","","","","",""
"","do_trial","273","1325729","0.0-252.0-0.0","1717.9000000059605","","","","49","1,0,0","5","forest","206","probe-45","0.9024467315392437","0.06674402987299362","0.37529688402286204","1","","","","","","","",""
"","do_trial","274","1330810","0.0-253.0-0.0","551.8000000044703","","","","49","1,0,0","5","forest","207","probe-86","0.7380007540178086","0.07901225896962971","0.34664098995664794","1","","","","","","","",""
"","do_trial","275","1335788","0.0-254.0-0.0","450.80000000447035","","","","49","1,0,1","5","forest","208","probe-85","0.7208092188389328","0.07406025611757629","0.3942454092864102","1","","","","","","","",""
"","do_trial","276","1341241","0.0-255.0-0.0","924","","","","49","1,0,1","5","forest","209","probe-54","0.7006905674958332","0.14999886879978186","0.4421737938524409","1","","","","","","","",""
"","do_trial","277","1346286","0.0-256.0-0.0","517.5999999940395","","","","49","0,0,0","5","forest","210","probe-137","0.5235927051067698","0.05894801864185835","0.5724840297459419","0","","","","","","","",""
"","do_trial","278","1351512","0.0-257.0-0.0","697.2000000029802","","","","49","1,1,1","5","forest","211","probe-110","0.5492422286159625","0.08040572848022752","0.5607255862758664","1","","","","","","","",""
"","do_trial","279","1356580","0.0-258.0-0.0","538.7999999970198","","","","49","1,0,1","5","forest","212","probe-189","0.5159598795743456","0.1605980996686678","0.6799638475771966","1","","","","","","","",""
"","do_trial","280","1361624","0.0-259.0-0.0","516.5","","","","49","1,0,0","5","forest","213","probe-133","0.5688538576861388","0.19649938305185777","0.800509770335781","1","","","","","","","",""
"","do_trial","281","1366572","0.0-260.0-0.0","419.80000000447035","","","","49","0,0,1","5","forest","214","probe-181","0.5296285733148228","0.16751675320958925","0.7987326453418095","0","","","","","","","",""
"","do_trial","282","1371611","0.0-261.0-0.0","509.79999999701977","","","","49","0,0,0","5","forest","215","probe-23","0.5764663478333957","0.1531545226952464","0.8141881619023985","0","","","","","","","",""
"","do_trial","283","1376384","0.0-262.0-0.0","244.39999999850988","","","","49","1,0,1","5","forest","216","probe-108","0.4547404054138874","0.30587394261063167","0.8925475015447066","1","","","","","","","",""
"","do_trial","284","1381322","0.0-263.0-0.0","411","","","","50","0,0,0","5","forest","217","probe-48","0.3991123622372294","0.32664245344133236","0.9425729974194565","0","","","","","","","",""
"","do_trial","285","1386043","0.0-264.0-0.0","192.20000000298023","","","","50","0,0,1","5","forest","218","probe-02","0.3335063178400723","0.3522330205832715","0.9007570376893594","0","","","","","","","",""
"","do_trial","286","1390773","0.0-265.0-0.0","198.89999999850988","","","","51","0,1,1","5","forest","219","probe-11","0.3376137462813987","0.25304507478708377","0.7341186981093271","1","","","","","","","",""
"","do_trial","287","1395577","0.0-266.0-0.0","275.1000000014901","","","","51","0,0,0","5","forest","220","probe-25","0.38289075283816865","0.1900728392473778","0.655957321848247","0","","","","","","","",""
"","do_trial","288","1400328","0.0-267.0-0.0","222.60000000149012","","","","51","0,1,0","5","forest","221","probe-175","0.4703188886799519","0.3122196958958696","0.8503721476046482","0","","","","","","","",""
"","do_trial","289","1405072","0.0-268.0-0.0","216.5","","","","49","0,1,1","5","forest","222","probe-221","0.4883246445289349","0.284251124470332","0.7828199988532226","0","","","","","","","",""
"","do_trial","290","1409928","0.0-269.0-0.0","327.6000000014901","","","","49","0,1,1","5","forest","223","probe-53","0.37676951967897415","0.32672661324335944","0.7666020810287837","0","","","","","","","",""
"","do_trial","291","1414937","0.0-270.0-0.0","480.8999999985099","","","","49","0,0,1","5","forest","224","probe-136","0.5207436437927767","0.07499132148390128","0.868213366839417","0","","","","","","","",""
"","do_trial","292","1419709","0.0-271.0-0.0","238.5","","","","51","1,0,1","5","forest","225","probe-117","0.3824565424531802","0.08291218770613705","0.7888392995052768","1","","","","","","","",""
"","do_trial","293","1424699","0.0-272.0-0.0","460.6000000014901","","","","51","1,0,1","5","forest","226","probe-113","0.42403830794100544","0.12833049692669357","0.9154888022099563","1","","","","","","","",""
"","do_trial","294","1429629","0.0-273.0-0.0","400.19999999552965","","","","51","1,1,1","5","forest","227","probe-21","0.539290099706586","0.1667157900665253","0.8163133600297571","1","","","","","","","",""
"","do_trial","295","1434507","0.0-274.0-0.0","348.70000000298023","","","","51","1,0,1","5","forest","228","probe-166","0.5108609235880668","0.25106197013318915","0.7938919565652559","1","","","","","","","",""
"","do_trial","296","1439667","0.0-275.0-0.0","631.4000000059605","","","","51","0,0,1","5","forest","229","probe-01","0.6071987917008724","0.24891178808295178","0.7682518338635724","1","","","","","","","",""
"","do_trial","297","1444643","0.0-276.0-0.0","447.30000000447035","","","","51","1,0,1","5","forest","230","probe-122","0.5862760429340262","0.1943996018718877","0.7396930641589141","1","","","","","","","",""
"","do_trial","298","1449438","0.0-277.0-0.0","267.3999999985099","","","","51","1,1,0","5","forest","231","probe-163","0.42180949676343416","0.16667250920200308","0.763611729857126","0","","","","","","","",""
"","do_trial","299","1454247","0.0-278.0-0.0","280.70000000298023","","","","51","0,1,1","5","forest","232","probe-115","0.34290884888802614","0.24376771996323668","0.7777613071093638","1","","","","","","","",""
"","do_trial","300","1459298","0.0-279.0-0.0","522.3999999985099","","","","51","0,0,1","5","forest","233","probe-79","0.42953230102130613","0.05179215365117662","0.7086256915887907","1","","","","","","","",""
"","do_trial","301","1464164","0.0-280.0-0.0","337.5","","","","51","0,0,0","5","forest","234","probe-168","0.5762177547344186","0.15868748369737762","0.6208855075182674","0","","","","","","","",""
"","do_trial","302","1470193","0.0-281.0-0.0","null","","","","null","1,1,0","5","forest","235","probe-98","0.48063642599943335","0.23249545569699387","0.7867591316311695","","","","","","","","",""
"","do_trial","303","1474986","0.0-282.0-0.0","264.6000000014901","","","","51","0,1,1","5","forest","236","probe-173","0.46120430795867534","0.3612558757988244","0.7963572984622921","1","","","","","","","",""
"","do_trial","304","1480255","0.0-283.0-0.0","741.3999999985099","","","","51","0,1,1","5","forest","237","probe-216","0.5986539096164024","0.2288003652414293","0.6326220109499313","1","","","","","","","",""
"","do_trial","305","1485031","0.0-284.0-0.0","247.89999999850988","","","","51","1,0,0","5","forest","238","probe-87","0.6706391190284576","0.1902384286411538","0.5065205656293377","0","","","","","","","",""
"","do_trial","306","1489835","0.0-285.0-0.0","274.20000000298023","","","","51","1,0,1","5","forest","239","probe-180","0.579019633237722","0.09090649122100511","0.6914653538609631","1","","","","","","","",""
"","do_bye","307","1491337","0.0-286.0-0.0","null","","","","null","","","","","","","","","","","","","","","","",""
"","html-keyboard-response","308","1497040","0.0-286.0-1.0","5702.10000000149","<div class='center'>You are all done with the first part of the experiment! Thank you for participating. Tomorrow, you will recieve an invite to participate in the next phase of the experiment which you must complete by the end of the day. <p><b>[Press the space bar to end the experiment]</b></p></div>","32","","","","","","","","","","","","0,2,4,1,5,3","88,41,127,134,117,51,113,34,137,209,90,67,29,38,176,99,28,115,219,98,54,238,74,71,216,15,27,126,14,189,158,206,190,43,235,182,223,39,13,170,96,56,18,173,110,30,108,69,160,208,234,154,148,21,196,197,204,224,125,122,80,35,93,59,218,192,37,130,66,152,239,77,150,46,42,64,149,232,205,164,102,187,16,151,236,141,26,94,202,55,177,131,157,142,210,58,72,200,111,31,79,214,105,61,228,217,191,133,101,147,231,156,229,75,123,166,163,227,33,9,120,175,119,194,40,124,153,45,5,32,203,201,186,83,81,95,48,129,222,8,25,139,103,212,92,49,181,145,91,221,184,11,100,68,4,50,225,199,230,19,207,178,155,23,171,140,89,63,169,87,138,104,237,146,17,118,233,193,36,106,2,76,143,73,57,7,195,183,12,185,62,213,211,168,3,144,82,198,161,128,60,70,159,226,65,6,44,85,84,53,136,109,188,132,180,22,107,47,1,10,24,174,220,52,135,116,112,20,165,0,121,162,114,78,167,97,172,215,86,179","18,14,3,0,2,8,15,4,10,11,16,6,5,9,7,12,13,1,17","0.4918992295325438,0.42274198093517174,0.41314621752561836,0.39753241946940415,0.3059443102628736,0.34660929660436923,0.4831435985080816,0.38123862268322023,0.3380575576393624,0.40285885235628416,0.5124057415933809,0.46935702105637084,0.6097949182363059,0.8269827110696442,0.6695715752876146,0.7340968457203748,0.7201780210663584,0.6629580956795208,0.7835899468357762,0.9234528389995473,0.8133680957826417,0.7506625837240034,0.7330598164695762,0.8285524768715984,0.7246204710525908,0.9296159306321826,0.8518848848784967,0.9078670597395185,0.8754480541756903,0.8771705350589654,1,0.8777887126518472,0.8270714281524225,0.6921304844672437,0.7578956849692756,0.880590307649008,0.69291781551819,0.8447117534211926,0.9449459966294773,0.8086361502812247,0.6444523028921993,0.6320330342428692,0.654774171345503,0.4887202958771158,0.5062511241825961,0.38570803696424366,0.265221786653644,0.24703754156002747,0.37824880145495465,0.48313541490874284,0.42180427569879925,0.49294823070259347,0.40264480918213497,0.5237453557641893,0.4435854843862249,0.45013877883187514,0.4815129254324668,0.4777743519599013,0.38555980268430445,0.308513499324147,0.3589503380850821,0.31693765637039994,0.367189360359872,0.2004000560273051,0.0928206894866803,0.261354300355065,0.19993993422494363,0.4343117686688236,0.3717239498721092,0.23505351807883582,0.43957747701011807,0.6713828264605348,0.8395686366804787,0.800281453579363,0.6966225462679178,0.7133920329530054,0.7949070400084145,0.8043984268395141,0.7590698086630142,0.799497996689529,0.7046458167167508,0.7627383479953666,0.9098957974642891,0.8231307166635173,0.6790884353750336,0.6649429368480821,0.7073318149547195,0.8075539320628431,0.8761161460042917,0.8484407405697414,1,0.8980765330770438,0.8897237195713893,0.7826169085750451,0.8742092018678325,0.7749133544883396,0.9018091268419227,0.7579622412732188,0.7320555585133982,0.8568178949866477,0.6133150726496149,0.6108606245473178,0.58142842050741,0.6007826868372181,0.40025264779470265,0.4149501534147859,0.567151337681979,0.5751897325851614,0.737810475951021,0.6400519981111654,0.5424172294989544,0.42370638385345566,0.4076216805218591,0.42214626804172173,0.28251597270067413,0.432970455838446,0.41934392311630847,0.4068033779008819,0.39353764128470614,0.20247168706061242,0.11197840371918902,0.20697381126041187,0.31811452850084726,0.4110471602499542,0.3394474428246205,0.3165383130802659,0.27916574527095706,0.2659406520173289,0.2864478216726019,0.23809819562519102,0.3604593038355061,0.528736385725927,0.5911510656068444,0.5408597063471489,0.5707312340110212,0.5215824126107993,0.5064521577888105,0.40949660489704914,0.337328450344549,0.4785079952757578,0.5136674714740717,0.5613163644073454,0.5857009375276462,0.5647683089304434,0.5397347863581523,0.7199124559436564,0.715749373978053,0.6555523953021206,0.6461122551031268,0.6406295099332013,1,0.8324856506221352,0.7125918321668295,0.8800143352004821,0.8639191036741928,0.7776789454259262,0.7222221599578024,0.6935293818061837,0.7226027066390551,0.7728933667628796,0.7723973713075998,0.8827978711163624,0.6690046556412625,0.7103712358518723,0.6755640089159435,0.561573602002399,0.5278461704503223,0.5153211973645664,0.4779123010292875,0.5223600823282744,0.4366933469641907,0.4798802987789237,0.41255767985340674,0.380194782590261,0.4309823002323479,0.4141448449752607,0.4210353702992882,0.27499025281919515,0.3853686468116747,0.35363762632147877","0.06009047743294246,0.10043709763308208,0.13443461229843473,0.054756754692058686,0.07224204651311127,0.1628695236238566,0.2900249406511377,0.08578502197129333,0.14053347505412392,0.20678782431108986,0.08597175399877047,0.09663818282644324,0.10829824866697724,0.10323905501994475,0.10293199645706728,0.06684797814566364,0.12579294365831842,0.06991090261404806,0.2534315992785216,0.2342265870633811,0.26481782723011316,0.1983664551675616,0.10895912492097701,0.1952454752167528,0.18388627292832066,0.14492969372799372,0.0725981036850558,0.15363576945787422,0.1339494703161259,0.2641502435427059,0.23232610671908163,0.12329868022555221,0.1544931038745461,0.18187876145895257,0.07689473587835535,0.1270156972517344,0.1966391386909946,0.14320341590469415,0.07403905848174573,0.20488382314647133,0.21973262385620973,0.2491813961080374,0.41287494008679354,0.27176902009996917,0.25615167053498744,0.11729891100939945,0.2562854875607276,0.19348447116825418,0.10769732187835387,0.1287339129914642,0.1266659300805526,0.1914886305547779,0.1509238391760912,0.13867945949505187,0.20252024771394447,0.171252806209029,0.06304164058008756,0.1869705710922647,0.16003360116612592,0.1879897010463648,0.21002361805891348,0.27900900401242124,0.13591561257055834,0.18963305073285427,0.08853397186038633,0.12823549972785575,0.10903164762080331,0.21186914059312975,0.17435766324485338,0.15265159635722123,0.08464209516203684,0.24325519751817667,0.22489113340352565,0.07260830284871501,0.09867367336797254,0.12025757527986887,0.12352415302813426,0.17540051213460864,0.16924130879637986,0.07803016704015077,0.2724071688671851,0.23645112581311944,0.08033831101958032,0.1603308486311144,0.05740745145634444,0.06259326927148319,0.08070355625938654,0.06327768281730373,0.06826144348357993,0.18026533302527928,0.10977657827388,0.1423196991589329,0.07741075515995328,0.08262353263348655,0.10057059860203399,0.0844359263906522,0.08683680279097214,0.20818099155481448,0.05121265616428852,0.05509783094949288,0.06737190230383716,0.14964396558504628,0.18968004611282016,0.07722891220251543,0.1586830689035853,0.15943876972017293,0.16466458692759026,0.11967322978420039,0.07672879419255994,0.15758123678030656,0.2297924921115579,0.1324407371584682,0.1731550803047424,0.1008115930916868,0.08840251781644538,0.07543274667614443,0.05474973540789461,0.20016061784874695,0.161672080510197,0.055555089565120855,0.1533889245840101,0.15550771090212462,0.1224148584874617,0.18605539930522005,0.05529597791538887,0.09454292956814829,0.15420424140523942,0.06531299294117825,0.0529028306386971,0.13017513123699198,0.060626326597432945,0.08765463226018116,0.13146940117674205,0.09704132998661043,0.07304340286079045,0.22210106445278327,0.1491911424217618,0.08245766398538837,0.10994124160150012,0.05202185919968827,0.08881744371056134,0.1790296304526637,0.4351147789100678,0.38042826218864784,0.33288468917331077,0.3697192302412558,0.44740544008085464,0.36574164549803173,0.19581495076976313,0.2717203789885767,0.24355182381461263,0.21892159128436256,0.3025288621685743,0.27737250227489674,0.28278256966919657,0.3054890824278286,0.26294241265676654,0.37943599567740494,0.3198225219109569,0.2933197938002745,0.20892094119620422,0.13322413187533466,0.3215905366117847,0.16364227791698366,0.09357612074053381,0.05997787405337311,0.061999044461869754,0.07893801892428283,0.06995937929176385,0.09071259557521,0.16622359882681104,0.18854458190480192,0.16253125846085362,0.14498109373880225,0.17270304102632508,0.0705788554055259,0.22279763038968894,0.15389530766935988,0.2564687716945824,0.0815216662562653","1,0.9496813150788781,0.8717715641615412,0.7888136000515203,0.752810735031985,0.6689690316492058,0.7316754392439541,0.7625252833031319,0.7665000740920721,0.70385816052597,0.6468521712232026,0.46743025160440954,0.30941941443797333,0.44758213832000066,0.4360953913760058,0.3277816449086242,0.18131332860619753,0.25529644283943104,0.2711759249225909,0.32711913095489864,0.3662182782147778,0.32322114837718496,0.24530431201255098,0.39054967853328204,0.38504632667779953,0.45329891107926273,0.4830466478060675,0.4441567506303025,0.3963428341792844,0.32966635228644725,0.4553687912761354,0.3768539941482502,0.43149545816486345,0.5302207886793597,0.5353482146316894,0.3314448559149574,0.25360072487708185,0.3627601866118237,0.3718336105332226,0.38689343551401273,0.2625782224182306,0.3274350922043224,0.5767294206471832,0.5292160632305833,0.7234887367349793,0.5999862885287014,0.6806294264256194,0.8240866723506785,0.8072284691993074,0.7386135820190435,0.7805655137172037,0.8334628912648308,0.8786148738594229,0.9010088968515081,0.9484953585601394,0.7794885911345517,0.6910034039474563,0.7295790473127057,0.7025335284233438,0.745285941579534,1,0.8729045114663133,0.7770157690802563,0.8873533617688204,0.8345887001112603,0.9080844881916988,0.8422640251143895,0.7584550340515698,0.7808167988182557,0.7771548331038541,0.5034567089594219,0.4826868832199891,0.41691138087030916,0.4603207628685884,0.43806267524565057,0.47338883747376315,0.43418227193811126,0.5500120662091258,0.47334410054200093,0.5730856877271984,0.5103048749650815,0.43458231392608065,0.335875612385988,0.4772667339716313,0.28036500062402253,0.2848845081862689,0.34630550438506474,0.333224914051824,0.32044162779112556,0.33879026993077205,0.39584552872015105,0.35991948475121077,0.5620608370740914,0.42676532210996243,0.4615752293293234,0.3833355712477971,0.25584927208025415,0.3729714487745133,0.4173897016514334,0.5385583308572595,0.6045405066991215,0.6913201921696616,0.9274298197290464,0.8924488254947264,0.8549777782412536,0.9139500273900736,0.796349010768898,0.8128109580665211,0.8967647484975351,0.8717117563399726,0.8527815631609107,0.7345523490630818,0.7029063617030756,0.8772071860299011,0.8895769008709107,0.755996836912736,0.6180692463060515,0.6768200933996223,0.8712810634203285,0.8217545427382057,1,0.9264646866558274,0.9215464725550848,0.9210241286441985,0.903943253065769,0.8128021011257086,0.7060814176763832,0.8033411210171997,0.8658690272501569,0.9210118675254764,0.8729899907192435,0.7380015100025585,0.7497928209072053,0.7234859956229909,0.7550006102531361,0.8396245892855438,0.8333338043036957,0.7921384156832534,0.6686348489427628,0.4607175580151084,0.3359326662807757,0.30977071499694075,0.15363864679308495,0.10203726588163349,0.12624835247209595,0.19087081607517578,0.11168575204330516,0.16517784967806662,0.152480704500572,0.21335420316792827,0.08263530874673043,0.052945334406697374,0.06595572470603374,0.143083337763496,0.08623622562326645,0.05363928612505685,0.11526237931628237,0.0750025869401566,0.11186013056823267,0.09741166460226847,0.1450940848407257,0.2407929763844864,0.32453398412404133,0.5265965977857588,0.5480037346837836,0.592125793308257,0.7128550592225763,0.7823437888214452,0.8569201554450031,0.7196726678599807,0.7925274069414422,0.8245560265901432,0.7882760526546397,0.8000368163407192,0.9034080218503843,0.8652908102967442,0.8561870182009794,0.8267986709597551,0.8210392510593423,0.6677555980648241","126,128,120,167,202,163,85,47,43,89,161,88,42,41,201,127,205,169,207,82,45,206,204,165,124,40,200,162,49,209,168,48,44,46,164,166,86,160,87,121,125,203,84,83,123,208,81,129,80,122","1,6,1,3,1,1,4,1,5,4,3,1,2,4,1,3,1,1,2,1,3,2,1,1,2,3,3,4,2,1,2,3,1,1,1,2,1,3,1,2,1,1,1,2,1,1,5,1,1,1,1,1,1,1,1,3,5,1,1,5"
