success,trial_type,trial_index,time_elapsed,internal_node_id,rt,stimulus,key_press,subject_id,response,choice_outcomes,context_n,context_img_id,trial_n,probe_img_id,pR_red,pR_white,pR_black,outcome,is_valid,image_to_show,probed_trial,probed_context,correct,context_id
TRUE,fullscreen,0,3202,0.0-0.0,,,,,,,,,,,,,,,,,,,,
,pavlovia,1,3204,0.0-1.0,,,,,,,,,,,,,,,,,,,,
,html-keyboard-response,2,17963,0.0-2.0,14757.7,"<div class='center'><p>Welcome! This experiment will last ~1 hour. In this experiment, you are the head captain of a pirate ship traveling around the world to different places. You will complete several different tasks during this experiment. Here is an overview of these tasks:</p><br><p>1. Tutorial and quiz</p><p>2. Pick a pirate game in 6 different places</p><p>3. Pick a pirate game and memory game</p><p>4. Final questions and payment</p><br><p>If you complete the entire experiment, you will receive $15 and a possible bonus payment.</p><p><b>[Press the space bar to begin the tutorial]</b></p></div>",32,61181aadd3ba79ab39fd3b10,,,,,,,,,,,,,,,,
,html-keyboard-response,3,25867,0.0-3.0,7903.5,"<div class='center'><p>You are the head captain of a pirate ship.</p><p> Your pirates rob other ships as they leave the marketplace port.</p> These ships have just sold all their goods at the marketplace, so they have lots and lots of gold on them.</p><p><img src='run_exp/static/images/ship_center.png' height='400'></p><p><b>[Press the space bar to continue]</b></p></div>",32,,,,,,,,,,,,,,,,,
,html-keyboard-response,4,37964,0.0-4.0,12096.8,"<div class='center'><p>As the head captain, you do not have to rob any ships yourself.</p><p>You get to choose which pirate you want to rob the next ship. </p><p>If they are successful at robbing the ship, then you will get gold coins.</p><p> If they are not successful, then you will get no gold coins.</p><p> The more coins you collect, the more bonus money you will win. So, choose your pirate wisely.</p><p><img src='run_exp/static/images/goal.png' height='400'></p><p><b>[Press the space bar to continue]</b></p><div>",32,,,,,,,,,,,,,,,,,
,html-keyboard-response,5,47717,0.0-5.0,9752.6,"<div class='center'><p>Even the most skilled pirate will not be able to rob EVERY ship.</p><p> Some ships will have very strong defenses against attacks.</p><p> For example, blue beard, here,  is very good at robbing ships.</p><p> You can press the <b>‘1’</b> button on the keyboard to choose him.</p><p> Try choosing him 10 times to see how often he is successful at robbing ships. </p><p><img src='run_exp/static/images/blue.png' height='500'></p></div>",49,,,,,,,,,,,,,,,,,
,html-keyboard-response,6,49218,0.0-6.0,null,<br><br><br><br><p><img src='run_exp/static/images/blue_win.png' height='500'></p>,null,,,,,,,,,,,,,,,,,
,html-keyboard-response,7,49989,0.0-7.0,770.3,<br><br><br><br><p><img src='run_exp/static/images/blue.png' height='500'></p>,49,,,,,,,,,,,,,,,,,
,html-keyboard-response,8,51490,0.0-8.0,null,<br><br><br><br><p><img src='run_exp/static/images/blue_win.png' height='500'></p>,null,,,,,,,,,,,,,,,,,
,html-keyboard-response,9,51837,0.0-9.0,346.5,<br><br><br><br><p><img src='run_exp/static/images/blue.png' height='500'></p>,49,,,,,,,,,,,,,,,,,
,html-keyboard-response,10,53339,0.0-10.0,null,<br><br><br><br><p><img src='run_exp/static/images/blue_win.png' height='500'></p>,null,,,,,,,,,,,,,,,,,
,html-keyboard-response,11,53629,0.0-11.0,290.1,<br><br><br><br><p><img src='run_exp/static/images/blue.png' height='500'></p>,49,,,,,,,,,,,,,,,,,
,html-keyboard-response,12,55131,0.0-12.0,null,<br><br><br><br><p><img src='run_exp/static/images/blue_no_win.png' height='500'></p>,null,,,,,,,,,,,,,,,,,
,html-keyboard-response,13,55365,0.0-13.0,233.9,<br><br><br><br><p><img src='run_exp/static/images/blue.png' height='500'></p>,49,,,,,,,,,,,,,,,,,
,html-keyboard-response,14,56866,0.0-14.0,null,<br><br><br><br><p><img src='run_exp/static/images/blue_win.png' height='500'></p>,null,,,,,,,,,,,,,,,,,
,html-keyboard-response,15,57086,0.0-15.0,219.4,<br><br><br><br><p><img src='run_exp/static/images/blue.png' height='500'></p>,49,,,,,,,,,,,,,,,,,
,html-keyboard-response,16,58587,0.0-16.0,null,<br><br><br><br><p><img src='run_exp/static/images/blue_win.png' height='500'></p>,null,,,,,,,,,,,,,,,,,
,html-keyboard-response,17,58806,0.0-17.0,218.7,<br><br><br><br><p><img src='run_exp/static/images/blue.png' height='500'></p>,49,,,,,,,,,,,,,,,,,
,html-keyboard-response,18,60306,0.0-18.0,null,<br><br><br><br><p><img src='run_exp/static/images/blue_win.png' height='500'></p>,null,,,,,,,,,,,,,,,,,
,html-keyboard-response,19,60598,0.0-19.0,291.2,<br><br><br><br><p><img src='run_exp/static/images/blue.png' height='500'></p>,49,,,,,,,,,,,,,,,,,
,html-keyboard-response,20,62099,0.0-20.0,null,<br><br><br><br><p><img src='run_exp/static/images/blue_no_win.png' height='500'></p>,null,,,,,,,,,,,,,,,,,
,html-keyboard-response,21,62310,0.0-21.0,210.9,<br><br><br><br><p><img src='run_exp/static/images/blue.png' height='500'></p>,49,,,,,,,,,,,,,,,,,
,html-keyboard-response,22,63811,0.0-22.0,null,<br><br><br><br><p><img src='run_exp/static/images/blue_win.png' height='500'></p>,null,,,,,,,,,,,,,,,,,
,html-keyboard-response,23,64039,0.0-23.0,226.8,<br><br><br><br><p><img src='run_exp/static/images/blue.png' height='500'></p>,49,,,,,,,,,,,,,,,,,
,html-keyboard-response,24,65539,0.0-24.0,null,<br><br><br><br><p><img src='run_exp/static/images/blue_win.png' height='500'></p>,null,,,,,,,,,,,,,,,,,
,html-keyboard-response,25,68559,0.0-25.0,3019.2,"<div class='center'><p> See, he was successful at robbing the ships most of the time but not every time. </p><p><b>[Press the space bar to continue]</b></p></div>",32,,,,,,,,,,,,,,,,,
,html-keyboard-response,26,74040,0.0-26.0,5480.7,"<div class='center'><p>In the game, you will get to choose which of three pirates you want to rob the next ship. <p>Press the <b>‘1’</b> button on your keyboard to pick the pirate with the red beard.</p><p> Press <b>‘2’</b> to pick the pirate with the white beard.</p><p> Press <b>‘3’</b> to pick the pirate with the black beard.</p><p>Try picking a pirate now!</p><p><img src='run_exp/static/images/all_pirates.png' height='500'></p></div>",50,,,,,,,,,,,,,,,,,
,html-keyboard-response,27,75512,0.0-27.0-0.0,1470.6,<div class='center'><p>This pirate was successful at robbing the ship!</p><p><img src='run_exp/static/images/white_win.png' height='500'></p><p><b>[Press the space bar to continue]</b></p></div>,32,,,,,,,,,,,,,,,,,
,html-keyboard-response,28,76720,0.0-27.0-1.0,1207.8,<div class='center'><p>Now try choosing another</p><p><img src='run_exp/static/images/all_pirates.png' height='500'></p></div>,51,,,,,,,,,,,,,,,,,
,html-keyboard-response,29,77744,0.0-28.0-0.0,1023.3,<div class='center'><p>This pirate was not successful at robbing the ship!</p><p><img src='run_exp/static/images/black_no_win.png' height='500'></p><p><b>[Press the space bar to continue]</b></p></div>,32,,,,,,,,,,,,,,,,,
,html-keyboard-response,30,81152,0.0-29.0-0.0,3408.1,<div class='center'><p>You’ll stop at these 6 places on your journey.</p><p><img src='run_exp/static/images/all_contexts.png' height='500'></p><p><b>[Press the space bar to continue]</b></p></div>,32,,,,,,,,,,,,,,,,,
,html-keyboard-response,31,86761,0.0-29.0-1.0,5608.7,"<div class='center'><p>How good a pirate is at robbing ships will depend on the current place.</p><p> Some pirates will have been to the place before, and will have more experience robbing ships there.</p><p>So, they will be more successful at stealing gold and bringing it back to you.</p><p><b>[Press the space bar to continue]</b></p></div>",32,,,,,,,,,,,,,,,,,
,html-keyboard-response,32,96539,0.0-29.0-2.0,9777,"<div class='center'><p>How successful a pirate is at robbing ships can also change in a place.<p> Ships may hear about the pirates coming and will improve their defenses. This may make it more difficult to rob them.</p><p> Ships may also grow lazy and lower their defenses. This may make it easier to rob them.</p><br><p>Things are always changing on the high seas! So, try your best to pay attention!</p><p><img src='run_exp/static/images/contingency.png' height='500'></p><p><b>[Press the space bar to continue]</b></p></div>",32,,,,,,,,,,,,,,,,,
,html-keyboard-response,33,123102,0.0-29.0-3.0,26562.6,"<div class='center'><p>Once you choose a pirate to rob a ship, you’ll be shown the ship they are robbing.</p><p>The ship will have a picture of the item they sold at the marketplace.</p><p> Try your best to remember the ship and where you saw the ship.</p><p> You’ll have to remember this for later, and remembering this correctly will help you win more bonus money!</p><p>You can remember the ship by remembering the item they sold at the marketplace</p><p>A helpful strategy is to try to come up with a story of the chosen pirate and ship’s item interacting with the scene.</p><p> For example, a ship might have sold travel mugs and you could imagine red beard walking through the city with a travel mug. </p><p>Or imagine an apple falling from a tree into white beard's hands in the forest.</p><p><img src='run_exp/static/images/example_probe.png' height='500'></p><p><b>[Press the space bar to continue]</b></p></div>",32,,,,,,,,,,,,,,,,,
,html-keyboard-response,34,129238,0.0-29.0-4.0,6136.2,"<div class='center'><p>If you don’t make your choice fast enough, you’ll have to wait a few seconds before you can make another one. </p><p>You can’t win more gold. You just have to sit and wait.</p><p><img src='run_exp/static/images/hurry_up.png' height='500'></p><p><b>[Press the space bar to continue]</b></p></div>",32,,,,,,,,,,,,,,,,,
,html-keyboard-response,35,166395,0.0-29.0-5.0,37156.2,"<div class='center'><p>Again, you have two important things to do: </p><b><p> 1. Pick the pirate who you think will be most successful at robbing the next ship.</p></b><b><p> 2. Remember where a pirate robbed a ship.</p> </b><p>Both are important in determining how much bonus money you’ll win.</p><br><p>Let’s try a practice game. The game will start by showing you the pirates. First pick a pirate using the <b> 1, 2, 3 </b> buttons on your keyboard. When you are shown a ship, try to remember the place you’re in by making up a story.</p><p> You only have 3 seconds to pick a pirate, so please make a choice quickly! If you are too slow, you’ll have to wait a bit during the time out.</p><p> Don’t feel rushed, but please do try to make a choice every time.</p><p>How good a pirate is at robbing a ship will change depending on the place they are in and how good the defenses are of the ship.</p> <p>This is just a practice game, so you’re not playing for money. </p><p>You’ll receive a bag which may or may not contain gold coins.</p><p> In the real game, though, you’ll be able to see whether or not you received the gold coins.</p><p> Good luck, remember press <b>'1'</b> to choose red beard, <b>'2'</b> to choose white beard, and <b>'3'</b> to choose black beard</p><p><b>[Press the space bar to begin the practice game]</b></p></div>",32,,,,,,,,,,,,,,,,,
,do_trial_prac,36,171793,0.0-29.0-6.0,892.9,,,,51,,,,,,,,,,,,,,,
,do_trial_prac,37,177064,0.0-29.0-7.0,767.9,,,,51,,,,,,,,,,,,,,,
,do_trial_prac,38,181912,0.0-29.0-8.0,345.4,,,,51,,,,,,,,,,,,,,,
,do_trial_prac,39,186729,0.0-29.0-9.0,313.8,,,,51,,,,,,,,,,,,,,,
,do_trial_prac,40,191579,0.0-29.0-10.0,346,,,,51,,,,,,,,,,,,,,,
,html-keyboard-response,41,197687,0.0-29.0-11.0,6107.8,"<div class='center'><p>Great job on the practice game!</p><p> Now, you will be asked you some true or false questions to make sure you really understand the rules of the game.</p><p> Press <b>'1'</b> on the keyboard for true and press <b>'2'</b> for false.</p><p><b>[Press the space bar to begin the quiz]</b></p></div>",32,,,,,,,,,,,,,,,,,
,html-keyboard-response,42,202431,0.0-29.0-12.0,4743.8,<div class='center'><p>You win bonus money by making choices as fast as possible.</p><p>Press 1 for true and press  2 for false.</p></div>,50,,,,,,,,,,,,,,,,,
,html-keyboard-response,43,203487,0.0-30.0-0.0,1055.8,<br><br><br><br><p>That's correct!</p> <p><b>[press the space bar to continue with the quiz]</b></p>,32,,,,,,,,,,,,,,,,,
,html-keyboard-response,44,207944,0.0-30.0-1.0,4456.2,<div class='center'><p>You press the <b>‘3’</b> button on the keyboard to choose the red bearded pirate? </p><p>Press 1 for true and press  2 for false.</p></div>,50,,,,,,,,,,,,,,,,,
,html-keyboard-response,45,208608,0.0-31.0-0.0,663.5,<br><br><br><br><p>That's correct!</p> <p><b>[press the space bar to continue with the quiz]</b></p>,32,,,,,,,,,,,,,,,,,
,html-keyboard-response,46,210689,0.0-31.0-1.0,2080.3,<div class='center'><p>A pirate will always be equally successful at robbing ships in each place</p><p>Press 1 for true and press  2 for false.</p></div>,50,,,,,,,,,,,,,,,,,
,html-keyboard-response,47,211320,0.0-32.0-0.0,631.4,<br><br><br><br><p>That's correct!</p> <p><b>[press the space bar to continue with the quiz]</b></p>,32,,,,,,,,,,,,,,,,,
,html-keyboard-response,48,215457,0.0-32.0-1.0,4136.1,<div class='center'><p>You should remember the place where a pirate robbed a ship.</p><p>Press 1 for true and press  2 for false.</p></div>,49,,,,,,,,,,,,,,,,,
,html-keyboard-response,49,216378,0.0-33.0-0.0,914.4,<br><br><br><br><p>That's correct!</p> <p><b>[press the space bar to continue with the quiz]</b></p>,32,,,,,,,,,,,,,,,,,
,html-keyboard-response,50,225675,0.0-34.0-0.0,9296.6,<br><br><br><br><p>Good job! You’re now ready to move on to the real game!</p> <p><br>[press the space bar to begin!]</br></p>,32,,,,,,,,,,,,,,,,,
,do_welcome,51,227178,0.0-35.0-0.0,null,,,,null,,,,,,,,,,,,,,,
,do_trial,52,233463,0.0-36.0-0.0,748.8,,,,50,"1,0,0",0,highway,0,probe-106,1,0.4,0.1,0,,,,,,
,do_trial,53,239320,0.0-37.0-0.0,321.1,,,,50,"1,1,0",0,highway,1,probe-134,1,0.46533733,0.118992906,1,,,,,,
,do_trial,54,245153,0.0-38.0-0.0,297.3,,,,50,"1,1,1",0,highway,2,probe-127,1,0.473423157,0.055978253,1,,,,,,
,do_trial,55,251170,0.0-39.0-0.0,481.9,,,,50,"1,0,0",0,highway,3,probe-197,1,0.443601669,0.069238182,0,,,,,,
,do_trial,56,257083,0.0-40.0-0.0,377.8,,,,50,"1,0,1",0,highway,4,probe-202,0.94412705,0.384094179,0.148264518,0,,,,,,
,do_trial,57,263011,0.0-41.0-0.0,392.7,,,,51,"1,0,0",0,highway,5,probe-45,0.835427825,0.316581983,0.147430961,0,,,,,,
,do_trial,58,268988,0.0-42.0-0.0,441.3,,,,49,"1,0,0",0,highway,6,probe-14,0.716328992,0.381961173,0.129554833,1,,,,,,
,do_trial,59,275012,0.0-43.0-0.0,489,,,,49,"0,0,0",0,highway,7,probe-182,0.68409002,0.356885378,0.181564142,0,,,,,,
,do_trial,60,280837,0.0-44.0-0.0,289.5,,,,49,"1,1,0",0,highway,8,probe-164,0.737805563,0.272285367,0.081353593,1,,,,,,
,do_trial,61,286727,0.0-45.0-0.0,353.8,,,,49,"1,0,0",0,highway,9,probe-227,0.762236645,0.234213954,0.054193231,1,,,,,,
,do_trial,62,292536,0.0-46.0-0.0,272.6,,,,49,"1,1,0",0,highway,10,probe-126,0.528232917,0.603941802,0.223577441,1,,,,,,
,do_trial,63,298679,0.0-47.0-0.0,608.3,,,,49,"0,1,1",0,highway,11,probe-179,0.410835448,0.603905674,0.344578404,0,,,,,,
,do_trial,64,304537,0.0-48.0-0.0,322.2,,,,49,"1,1,0",0,highway,12,probe-186,0.301609893,0.78385907,0.434874375,1,,,,,,
,do_trial,65,310393,0.0-49.0-0.0,321.2,,,,49,"1,0,0",0,highway,13,probe-125,0.114965421,0.751691936,0.460263602,1,,,,,,
,do_trial,66,316378,0.0-50.0-0.0,450.2,,,,49,"0,0,0",0,highway,14,probe-237,0.168536913,0.72544991,0.395804363,0,,,,,,
,do_trial,67,322203,0.0-51.0-0.0,290,,,,49,"0,1,0",0,highway,15,probe-88,0.240091717,0.790649055,0.204470162,0,,,,,,
,do_trial,68,328012,0.0-52.0-0.0,274.5,,,,49,"0,1,1",0,highway,16,probe-29,0.204674708,0.888185166,0.180092271,0,,,,,,
,do_trial,69,333707,0.0-53.0-0.0,160.4,,,,49,"0,0,0",0,highway,17,probe-47,0.098564702,0.892824496,0.328281489,0,,,,,,
,do_trial,70,339621,0.0-54.0-0.0,377.6,,,,50,"0,1,0",0,highway,18,probe-96,0.082434706,0.941572477,0.390788215,1,,,,,,
,do_trial,71,345485,0.0-55.0-0.0,329.1,,,,50,"0,1,1",0,highway,19,probe-35,0.053974468,0.891430625,0.546883375,1,,,,,,
,do_trial,72,351366,0.0-56.0-0.0,345.6,,,,50,"0,1,0",0,highway,20,probe-71,0.083279845,0.948919064,0.542308409,1,,,,,,
,do_trial,73,357319,0.0-57.0-0.0,417.8,,,,50,"0,0,1",0,highway,21,probe-17,0.147439823,0.833310759,0.373560087,0,,,,,,
,do_trial,74,364040,0.0-58.0-0.0,1186.3,,,,50,"0,1,0",0,highway,22,probe-61,0.193116357,0.920667623,0.40857392,1,,,,,,
,do_trial,75,369904,0.0-59.0-0.0,329.6,,,,50,"1,1,0",0,highway,23,probe-103,0.15271582,0.92149806,0.288263709,1,,,,,,
,do_trial,76,376033,0.0-60.0-0.0,593.6,,,,50,"0,1,0",0,highway,24,probe-65,0.162424976,0.87587195,0.231270665,1,,,,,,
,do_trial,77,381970,0.0-61.0-0.0,402.2,,,,50,"0,0,0",0,highway,25,probe-75,0.239468158,0.805930184,0.402447859,0,,,,,,
,do_trial,78,387819,0.0-62.0-0.0,313.2,,,,50,"0,1,1",0,highway,26,probe-142,0.195980083,0.797468353,0.312867321,1,,,,,,
,do_trial,79,393715,0.0-63.0-0.0,360.9,,,,50,"0,1,1",0,highway,27,probe-152,0.108670717,0.742001998,0.281904553,1,,,,,,
,do_trial,80,399564,0.0-64.0-0.0,313.3,,,,50,"0,1,0",0,highway,28,probe-224,0.112763767,0.712932196,0.458262514,1,,,,,,
,do_trial,81,405484,0.0-65.0-0.0,385.4,,,,50,"0,1,1",0,highway,29,probe-67,0.092102972,0.710714779,0.464903777,1,,,,,,
,do_trial,82,411509,0.0-66.0-0.0,490.4,,,,50,"0,0,1",0,highway,30,probe-43,0.082454526,0.673862102,0.449257492,0,,,,,,
,do_trial,83,417406,0.0-67.0-0.0,361.9,,,,50,"0,1,0",0,highway,31,probe-233,0.127554331,0.670548705,0.410438606,1,,,,,,
,do_trial,84,423319,0.0-68.0-0.0,378.2,,,,50,"0,0,0",0,highway,32,probe-38,0.250211867,0.642660998,0.454915846,0,,,,,,
,do_trial,85,429143,0.0-69.0-0.0,290,,,,50,"0,1,0",0,highway,33,probe-85,0.216416434,0.761149381,0.425524296,1,,,,,,
,do_trial,86,435200,0.0-70.0-0.0,521.6,,,,50,"0,1,0",0,highway,34,probe-101,0.189143579,0.848507423,0.309338945,1,,,,,,
,do_trial,87,441090,0.0-71.0-0.0,353.7,,,,50,"0,1,1",0,highway,35,probe-28,0.199334994,0.825595359,0.426766377,1,,,,,,
,do_trial,88,447105,0.0-72.0-0.0,480.4,,,,50,"0,1,0",0,highway,36,probe-86,0.129641037,0.720171429,0.229784363,1,,,,,,
,do_trial,89,453106,0.0-73.0-0.0,466.3,,,,50,"0,1,0",0,highway,37,probe-167,0.052120763,0.893292844,0.199277817,1,,,,,,
,do_trial,90,458939,0.0-74.0-0.0,298.1,,,,50,"0,1,0",0,highway,38,probe-81,0.069205963,0.904117736,0.21767786,1,,,,,,
,do_trial,91,464804,0.0-75.0-0.0,329.6,,,,50,"0,1,0",0,highway,39,probe-100,0.197065095,0.875606358,0.244092582,1,,,,,,
,do_bye,92,466307,0.0-76.0-0.0,null,,,,null,,,,,,,,,,,,,,,
,do_travel,93,472309,0.0-77.0-0.0,null,,,,null,,,,,,,,,,,,,,,
,do_welcome,94,473814,0.0-77.0-1.0,null,,,,null,,,,,,,,,,,,,,,
,do_trial,95,481102,0.0-78.0-0.0,1753.2,,,,51,"0,1,0",1,coast,40,probe-60,0.227812923,1,0.330620168,0,,,,,,
,do_trial,96,486918,0.0-79.0-0.0,281.5,,,,51,"0,1,1",1,coast,41,probe-204,0.23447083,1,0.357024247,1,,,,,,
,do_trial,97,493759,0.0-80.0-0.0,1304.1,,,,51,"0,1,1",1,coast,42,probe-196,0.120274215,1,0.218962411,1,,,,,,
,do_trial,98,500825,0.0-81.0-0.0,1530.2,,,,51,"1,1,0",1,coast,43,probe-209,0.162545725,1,0.361325886,0,,,,,,
,do_trial,99,506673,0.0-82.0-0.0,313.8,,,,51,"0,1,0",1,coast,44,probe-157,0.091681982,0.938704372,0.271831413,0,,,,,,
,do_trial,100,512418,0.0-83.0-0.0,209.8,,,,49,"0,1,0",1,coast,45,probe-124,0.116650382,0.78511071,0.333720597,0,,,,,,
,do_trial,101,518163,0.0-84.0-0.0,209.5,,,,50,"0,1,1",1,coast,46,probe-68,0.063489674,0.831616657,0.396097754,1,,,,,,
,do_trial,102,523963,0.0-85.0-0.0,265,,,,50,"0,1,1",1,coast,47,probe-141,0.057561675,0.844472781,0.500140213,1,,,,,,
,do_trial,103,529773,0.0-86.0-0.0,274.1,,,,50,"0,1,0",1,coast,48,probe-33,0.063560334,0.859799477,0.525249729,1,,,,,,
,do_trial,104,535589,0.0-87.0-0.0,280.6,,,,50,"0,1,0",1,coast,49,probe-24,0.113879084,0.765681954,0.434701515,1,,,,,,
,do_trial,105,541318,0.0-88.0-0.0,194.1,,,,50,"0,1,1",1,coast,50,probe-215,0.135470325,0.676797181,0.61972167,1,,,,,,
,do_trial,106,547134,0.0-89.0-0.0,281.2,,,,50,"0,1,0",1,coast,51,probe-03,0.087828376,0.663333743,0.584068407,1,,,,,,
,do_trial,107,553063,0.0-90.0-0.0,393.6,,,,50,"0,1,0",1,coast,52,probe-69,0.085652135,0.661878327,0.639228179,1,,,,,,
,do_trial,108,558880,0.0-91.0-0.0,281.9,,,,50,"0,0,1",1,coast,53,probe-198,0.073956645,0.660992482,0.788809146,0,,,,,,
,do_trial,109,564681,0.0-92.0-0.0,265.5,,,,50,"0,1,1",1,coast,54,probe-211,0.113419765,0.559591773,0.832197578,1,,,,,,
,do_trial,110,570569,0.0-93.0-0.0,352.5,,,,50,"1,0,1",1,coast,55,probe-168,0.207143255,0.545338627,0.723032059,0,,,,,,
,do_trial,111,576538,0.0-94.0-0.0,433,,,,50,"1,0,1",1,coast,56,probe-148,0.063614557,0.490241182,0.70928682,0,,,,,,
,do_trial,112,582458,0.0-95.0-0.0,385.4,,,,50,"0,0,1",1,coast,57,probe-239,0.149081984,0.487847146,0.816406722,0,,,,,,
,do_trial,113,588272,0.0-96.0-0.0,273.7,,,,51,"0,0,0",1,coast,58,probe-99,0.23874218,0.530018683,0.806583076,0,,,,,,
,do_trial,114,593852,0.0-97.0-0.0,44.5,,,,49,"0,1,0",1,coast,59,probe-172,0.193306519,0.447448955,0.664293595,0,,,,,,
,do_trial,115,599540,0.0-98.0-0.0,153.2,,,,50,"0,1,0",1,coast,60,probe-08,0.217611668,0.463310643,0.840451321,1,,,,,,
,do_trial,116,605285,0.0-99.0-0.0,209.5,,,,50,"0,1,1",1,coast,61,probe-66,0.099285049,0.618710038,0.865785224,1,,,,,,
,do_trial,117,611126,0.0-100.0-0.0,305.9,,,,50,"0,1,1",1,coast,62,probe-189,0.062444154,0.520075999,0.721447669,1,,,,,,
,do_trial,118,616766,0.0-101.0-0.0,105.4,,,,50,"0,1,0",1,coast,63,probe-154,0.191892131,0.51488011,0.672689755,1,,,,,,
,do_trial,119,622535,0.0-102.0-0.0,233.7,,,,50,"0,0,1",1,coast,64,probe-108,0.26724371,0.404456535,0.815757461,0,,,,,,
,do_trial,120,628335,0.0-103.0-0.0,265.8,,,,50,"1,0,1",1,coast,65,probe-158,0.248295282,0.421410795,0.863077609,0,,,,,,
,do_trial,121,634096,0.0-104.0-0.0,226.6,,,,50,"0,1,1",1,coast,66,probe-44,0.286512454,0.33694995,0.791940523,1,,,,,,
,do_trial,122,639997,0.0-105.0-0.0,353.2,,,,50,"0,0,1",1,coast,67,probe-98,0.414489896,0.44143696,0.89968362,0,,,,,,
,do_trial,123,645533,0.0-106.0-0.0,0.1,,,,50,"0,0,1",1,coast,68,probe-135,0.247304545,0.250453715,0.844246526,0,,,,,,
,do_trial,124,651683,0.0-107.0-0.0,614.9,,,,51,"0,1,1",1,coast,69,probe-214,0.144973696,0.237251775,0.789581617,1,,,,,,
,do_trial,125,657523,0.0-108.0-0.0,305.8,,,,51,"1,1,0",1,coast,70,probe-53,0.207691586,0.485022227,0.772329874,0,,,,,,
,do_trial,126,663324,0.0-109.0-0.0,265.7,,,,51,"0,0,1",1,coast,71,probe-219,0.157010761,0.391066677,0.727808085,1,,,,,,
,do_trial,127,669213,0.0-110.0-0.0,353.3,,,,51,"0,0,1",1,coast,72,probe-15,0.052217507,0.4881033,0.809785244,1,,,,,,
,do_trial,128,675310,0.0-111.0-0.0,561.7,,,,51,"1,0,1",1,coast,73,probe-114,0.129144939,0.350153185,0.64117172,1,,,,,,
,do_trial,129,681214,0.0-112.0-0.0,369.1,,,,51,"0,0,1",1,coast,74,probe-110,0.153534705,0.347897914,0.839711589,1,,,,,,
,do_trial,130,687183,0.0-113.0-0.0,434.3,,,,51,"0,0,1",1,coast,75,probe-46,0.197933806,0.377200615,0.859364249,1,,,,,,
,do_trial,131,693040,0.0-114.0-0.0,322,,,,51,"0,1,1",1,coast,76,probe-11,0.201005672,0.238160899,0.894442785,1,,,,,,
,do_trial,132,698936,0.0-115.0-0.0,362.3,,,,51,"0,1,1",1,coast,77,probe-131,0.213838651,0.260285281,0.869803511,1,,,,,,
,do_trial,133,705594,0.0-116.0-0.0,1122.2,,,,51,"0,0,1",1,coast,78,probe-130,0.197064995,0.401994896,0.731902229,1,,,,,,
,do_trial,134,711777,0.0-117.0-0.0,649,,,,51,"0,1,1",1,coast,79,probe-90,0.231085814,0.378028547,0.604616492,1,,,,,,
,do_bye,135,713281,0.0-118.0-0.0,null,,,,null,,,,,,,,,,,,,,,
,do_travel,136,719282,0.0-119.0-0.0,null,,,,null,,,,,,,,,,,,,,,
,do_welcome,137,720785,0.0-119.0-1.0,null,,,,null,,,,,,,,,,,,,,,
,do_trial,138,726988,0.0-120.0-0.0,668.5,,,,50,"0,1,1",2,forest,80,probe-112,0.246782627,0.362420441,1,1,,,,,,
,do_trial,139,732764,0.0-121.0-0.0,241.2,,,,50,"0,0,1",2,forest,81,probe-40,0.289397095,0.341547793,1,0,,,,,,
,do_trial,140,738582,0.0-122.0-0.0,282,,,,49,"0,1,1",2,forest,82,probe-21,0.143636453,0.404217271,1,0,,,,,,
,do_trial,141,744229,0.0-123.0-0.0,112.4,,,,51,"1,0,1",2,forest,83,probe-94,0.276273314,0.393691155,1,1,,,,,,
,do_trial,142,749765,0.0-124.0-0.0,0.2,,,,51,"0,1,1",2,forest,84,probe-229,0.160296508,0.349387588,0.86056174,1,,,,,,
,do_trial,143,755735,0.0-125.0-0.0,435.5,,,,51,"0,0,0",2,forest,85,probe-137,0.136558301,0.494194773,0.785907992,0,,,,,,
,do_trial,144,761576,0.0-126.0-0.0,305.8,,,,51,"0,1,1",2,forest,86,probe-220,0.080410629,0.611805158,0.681020823,1,,,,,,
,do_trial,145,767581,0.0-127.0-0.0,457.5,,,,51,"0,0,0",2,forest,87,probe-70,0.112817157,0.594917229,0.702761508,0,,,,,,
,do_trial,146,773362,0.0-128.0-0.0,245.6,,,,51,"0,1,1",2,forest,88,probe-149,0.07494399,0.608269025,0.83884883,1,,,,,,
,do_trial,147,779146,0.0-129.0-0.0,249.2,,,,51,"0,1,1",2,forest,89,probe-180,0.107869996,0.441454759,0.712188751,1,,,,,,
,do_trial,148,784914,0.0-130.0-0.0,234,,,,51,"1,0,1",2,forest,90,probe-174,0.399799764,0.248872312,0.60208443,1,,,,,,
,do_trial,149,790708,0.0-131.0-0.0,259,,,,51,"1,1,0",2,forest,91,probe-50,0.486493942,0.251117743,0.521968414,0,,,,,,
,do_trial,150,796524,0.0-132.0-0.0,281.3,,,,51,"0,0,1",2,forest,92,probe-216,0.740132985,0.198818156,0.571382986,1,,,,,,
,do_trial,151,802373,0.0-133.0-0.0,313.5,,,,51,"1,0,0",2,forest,93,probe-218,0.85451023,0.087854073,0.625668522,0,,,,,,
,do_trial,152,808158,0.0-134.0-0.0,249.9,,,,51,"1,0,1",2,forest,94,probe-32,0.767315942,0.086693984,0.649443367,1,,,,,,
,do_trial,153,814007,0.0-135.0-0.0,313,,,,51,"1,0,0",2,forest,95,probe-217,0.728117439,0.050331827,0.502422853,0,,,,,,
,do_trial,154,819799,0.0-136.0-0.0,257.1,,,,51,"1,1,0",2,forest,96,probe-192,0.92736878,0.143669879,0.474100761,0,,,,,,
,do_trial,155,825560,0.0-137.0-0.0,226,,,,49,"1,0,0",2,forest,97,probe-232,0.876009579,0.068441684,0.374220985,1,,,,,,
,do_trial,156,831185,0.0-138.0-0.0,88.7,,,,49,"1,0,1",2,forest,98,probe-62,0.909535078,0.106589774,0.427293241,1,,,,,,
,do_trial,157,837009,0.0-139.0-0.0,289.3,,,,49,"1,0,0",2,forest,99,probe-165,0.867066011,0.055205003,0.479654524,1,,,,,,
,do_trial,158,842874,0.0-140.0-0.0,329.5,,,,49,"1,0,1",2,forest,100,probe-93,0.841021441,0.057300102,0.532113415,1,,,,,,
,do_trial,159,848714,0.0-141.0-0.0,305.5,,,,49,"1,0,0",2,forest,101,probe-55,0.742687161,0.06096169,0.49264889,1,,,,,,
,do_trial,160,854435,0.0-142.0-0.0,185.6,,,,49,"1,0,0",2,forest,102,probe-171,0.905451016,0.077113724,0.472218322,1,,,,,,
,do_trial,161,860333,0.0-143.0-0.0,362.6,,,,49,"1,0,0",2,forest,103,probe-107,0.764201705,0.150318888,0.453926399,1,,,,,,
,do_trial,162,865868,0.0-144.0-0.0,0.1,,,,49,"1,0,1",2,forest,104,probe-187,0.716520226,0.110936578,0.536117224,1,,,,,,
,do_trial,163,871589,0.0-145.0-0.0,186.8,,,,49,"1,0,1",2,forest,105,probe-144,0.754826714,0.089202344,0.525541764,1,,,,,,
,do_trial,164,877343,0.0-146.0-0.0,218.6,,,,49,"1,0,1",2,forest,106,probe-37,0.771665563,0.23772738,0.475810944,1,,,,,,
,do_trial,165,883184,0.0-147.0-0.0,305.4,,,,49,"0,0,0",2,forest,107,probe-41,0.752004192,0.184321957,0.394451758,0,,,,,,
,do_trial,166,888992,0.0-148.0-0.0,273,,,,49,"0,0,1",2,forest,108,probe-27,0.709708262,0.276487995,0.391215908,0,,,,,,
,do_trial,167,894713,0.0-149.0-0.0,185.4,,,,50,"1,0,1",2,forest,109,probe-140,0.781975528,0.245532291,0.53395759,0,,,,,,
,do_trial,168,900248,0.0-150.0-0.0,0,,,,50,"1,0,0",2,forest,110,probe-91,0.834332766,0.091409165,0.431302974,0,,,,,,
,do_trial,169,905875,0.0-151.0-0.0,90.7,,,,51,"1,0,1",2,forest,111,probe-120,0.766170584,0.074418597,0.391629301,1,,,,,,
,do_trial,170,911410,0.0-152.0-0.0,0.9,,,,51,"1,0,0",2,forest,112,probe-54,0.707546387,0.167476223,0.29557724,0,,,,,,
,do_trial,171,917140,0.0-153.0-0.0,194.4,,,,51,"0,0,1",2,forest,113,probe-236,0.588949726,0.102188095,0.391813256,1,,,,,,
,do_trial,172,922755,0.0-154.0-0.0,79.9,,,,51,"1,1,1",2,forest,114,probe-104,0.620238975,0.0601325,0.363721098,1,,,,,,
,do_trial,173,928685,0.0-155.0-0.0,394.9,,,,51,"0,0,0",2,forest,115,probe-87,0.642663185,0.143287492,0.30976415,0,,,,,,
,do_trial,174,934493,0.0-156.0-0.0,273,,,,51,"1,0,0",2,forest,116,probe-155,0.717319101,0.141410481,0.385070891,0,,,,,,
,do_trial,175,940126,0.0-157.0-0.0,96.9,,,,49,"1,0,1",2,forest,117,probe-194,0.774533536,0.158865074,0.405953871,1,,,,,,
,do_trial,176,945934,0.0-158.0-0.0,273.4,,,,49,"1,0,1",2,forest,118,probe-138,0.930825599,0.123691702,0.412296663,1,,,,,,
,do_trial,177,951904,0.0-159.0-0.0,434.2,,,,49,"1,0,0",2,forest,119,probe-136,0.928594903,0.136221513,0.297762594,1,,,,,,
,do_bye,178,953407,0.0-160.0-0.0,null,,,,null,,,,,,,,,,,,,,,
,do_travel,179,959409,0.0-161.0-0.0,null,,,,null,,,,,,,,,,,,,,,
,do_welcome,180,960912,0.0-161.0-1.0,null,,,,null,,,,,,,,,,,,,,,
,do_trial,181,967145,0.0-162.0-0.0,697.5,,,,49,"1,0,1",3,city,120,probe-175,1,0.118192854,0.401087086,1,,,,,,
,do_trial,182,973026,0.0-163.0-0.0,345.2,,,,49,"1,0,0",3,city,121,probe-159,1,0.140967975,0.475157461,1,,,,,,
,do_trial,183,978842,0.0-164.0-0.0,281.5,,,,49,"1,0,0",3,city,122,probe-240,1,0.074601013,0.610666381,1,,,,,,
,do_trial,184,984772,0.0-165.0-0.0,394,,,,49,"1,0,1",3,city,123,probe-116,1,0.091352483,0.491468751,1,,,,,,
,do_trial,185,990556,0.0-166.0-0.0,249.3,,,,49,"1,0,1",3,city,124,probe-79,0.846763944,0.05493016,0.42077308,1,,,,,,
,do_trial,186,996364,0.0-167.0-0.0,273,,,,49,"1,0,0",3,city,125,probe-117,0.771307011,0.133111882,0.432562362,1,,,,,,
,do_trial,187,1002222,0.0-168.0-0.0,322.4,,,,49,"1,0,1",3,city,126,probe-222,0.790881462,0.135430146,0.462536766,1,,,,,,
,do_trial,188,1008054,0.0-169.0-0.0,297.1,,,,49,"0,0,0",3,city,127,probe-221,0.669599905,0.125631924,0.446934079,0,,,,,,
,do_trial,189,1013806,0.0-170.0-0.0,218.4,,,,49,"1,0,1",3,city,128,probe-10,0.782697843,0.168982164,0.402587367,1,,,,,,
,do_trial,190,1019615,0.0-171.0-0.0,273.2,,,,49,"1,0,0",3,city,129,probe-80,0.775339061,0.077832941,0.328487099,1,,,,,,
,do_trial,191,1025560,0.0-172.0-0.0,410.2,,,,49,"0,1,0",3,city,130,probe-06,0.693068447,0.419173547,0.199269627,0,,,,,,
,do_trial,192,1031392,0.0-173.0-0.0,297.5,,,,49,"1,1,0",3,city,131,probe-238,0.389202366,0.631189111,0.083163319,1,,,,,,
,do_trial,193,1036929,0.0-174.0-0.0,1.7,,,,49,"1,0,0",3,city,132,probe-133,0.450336409,0.792626254,0.076692749,1,,,,,,
,do_trial,194,1042578,0.0-175.0-0.0,114,,,,49,"0,1,0",3,city,133,probe-02,0.331886742,0.798190099,0.126822901,0,,,,,,
,do_trial,195,1048355,0.0-176.0-0.0,241.5,,,,49,"1,1,0",3,city,134,probe-95,0.456045392,0.792819266,0.110670371,1,,,,,,
,do_trial,196,1054164,0.0-177.0-0.0,273.8,,,,49,"0,1,0",3,city,135,probe-153,0.234416959,0.810069599,0.248249647,0,,,,,,
,do_trial,197,1059773,0.0-178.0-0.0,73.7,,,,49,"0,1,1",3,city,136,probe-146,0.351483316,0.698165631,0.230097023,0,,,,,,
,do_trial,198,1065317,0.0-179.0-0.0,9.4,,,,50,"0,0,0",3,city,137,probe-208,0.281187783,0.638582537,0.078229449,0,,,,,,
,do_trial,199,1071126,0.0-180.0-0.0,273.5,,,,50,"0,1,0",3,city,138,probe-213,0.485940398,0.582291051,0.126775125,1,,,,,,
,do_trial,200,1076958,0.0-181.0-0.0,297.5,,,,50,"0,1,0",3,city,139,probe-210,0.366083782,0.741835908,0.304279953,1,,,,,,
,do_trial,201,1082887,0.0-182.0-0.0,394.3,,,,50,"1,1,0",3,city,140,probe-109,0.40183928,0.799458007,0.159531518,1,,,,,,
,do_trial,202,1088712,0.0-183.0-0.0,289.5,,,,50,"0,1,0",3,city,141,probe-64,0.423183808,0.81698467,0.063912503,1,,,,,,
,do_trial,203,1094606,0.0-184.0-0.0,353.9,,,,50,"1,0,0",3,city,142,probe-113,0.40179211,0.766311827,0.1116967,0,,,,,,
,do_trial,204,1100434,0.0-185.0-0.0,291.8,,,,50,"1,1,0",3,city,143,probe-191,0.301424939,0.90640677,0.064510256,1,,,,,,
,do_trial,205,1106378,0.0-186.0-0.0,408.9,,,,50,"1,0,1",3,city,144,probe-176,0.339623858,0.754976586,0.068961715,0,,,,,,
,do_trial,206,1112244,0.0-187.0-0.0,329.6,,,,50,"0,1,0",3,city,145,probe-203,0.37928781,0.57923901,0.058387498,1,,,,,,
,do_trial,207,1118069,0.0-188.0-0.0,289.9,,,,50,"1,1,1",3,city,146,probe-195,0.42775194,0.803845325,0.123949205,1,,,,,,
,do_trial,208,1123909,0.0-189.0-0.0,304.6,,,,50,"0,0,0",3,city,147,probe-151,0.442509921,0.887368694,0.053531596,0,,,,,,
,do_trial,209,1129885,0.0-190.0-0.0,441.3,,,,50,"1,1,0",3,city,148,probe-162,0.352340225,0.947127646,0.233219861,1,,,,,,
,do_trial,210,1136118,0.0-191.0-0.0,697.8,,,,50,"0,1,0",3,city,149,probe-123,0.304326734,0.888529877,0.177245007,1,,,,,,
,do_trial,211,1142313,0.0-192.0-0.0,650.4,,,,50,"1,1,0",3,city,150,probe-161,0.447213808,0.800452574,0.148391492,1,,,,,,
,do_trial,212,1148168,0.0-193.0-0.0,319.5,,,,50,"1,1,0",3,city,151,probe-150,0.501017058,0.81595739,0.141233079,1,,,,,,
,do_trial,213,1154344,0.0-194.0-0.0,641.5,,,,50,"1,1,0",3,city,152,probe-19,0.512189413,0.702997068,0.11427244,1,,,,,,
,do_trial,214,1161297,0.0-195.0-0.0,1417.5,,,,50,"0,1,0",3,city,153,probe-20,0.480792108,0.823159334,0.201002426,1,,,,,,
,do_trial,215,1166977,0.0-196.0-0.0,145.8,,,,50,"0,1,0",3,city,154,probe-231,0.437403758,0.897766867,0.058006509,1,,,,,,
,do_trial,216,1173043,0.0-197.0-0.0,530.5,,,,50,"0,1,0",3,city,155,probe-201,0.437176295,0.899806678,0.079143609,1,,,,,,
,do_trial,217,1179251,0.0-198.0-0.0,673.6,,,,50,"1,1,0",3,city,156,probe-226,0.525202816,0.907343345,0.101280591,1,,,,,,
,do_trial,218,1185259,0.0-199.0-0.0,473.8,,,,50,"1,1,0",3,city,157,probe-56,0.581346616,0.856229231,0.070495381,1,,,,,,
,do_trial,219,1191309,0.0-200.0-0.0,514,,,,50,"0,1,0",3,city,158,probe-230,0.482248916,0.739581422,0.070102655,1,,,,,,
,do_trial,220,1197109,0.0-201.0-0.0,265.4,,,,50,"1,1,0",3,city,159,probe-18,0.468880803,0.757708795,0.053016724,1,,,,,,
,do_bye,221,1198612,0.0-202.0-0.0,null,,,,null,,,,,,,,,,,,,,,
,do_travel,222,1204614,0.0-203.0-0.0,null,,,,null,,,,,,,,,,,,,,,
,do_welcome,223,1206117,0.0-203.0-1.0,null,,,,null,,,,,,,,,,,,,,,
,do_trial,224,1212015,0.0-204.0-0.0,362.8,,,,50,"0,1,0",4,mountain,160,probe-48,0.46632777,1,0.062409081,1,,,,,,
,do_trial,225,1219073,0.0-205.0-0.0,1522.3,,,,50,"0,1,1",4,mountain,161,probe-92,0.362138094,1,0.070294071,1,,,,,,
,do_trial,226,1225305,0.0-206.0-0.0,696.5,,,,50,"0,1,0",4,mountain,162,probe-89,0.292957677,1,0.093099634,1,,,,,,
,do_trial,227,1231145,0.0-207.0-0.0,305.6,,,,50,"0,1,1",4,mountain,163,probe-07,0.434027248,1,0.146158162,1,,,,,,
,do_trial,228,1237250,0.0-208.0-0.0,570.5,,,,50,"1,1,1",4,mountain,164,probe-42,0.387435415,0.85244432,0.123536324,1,,,,,,
,do_trial,229,1243059,0.0-209.0-0.0,273.3,,,,50,"1,1,0",4,mountain,165,probe-25,0.377385253,0.794104777,0.108758461,1,,,,,,
,do_trial,230,1249235,0.0-210.0-0.0,641.9,,,,50,"0,1,0",4,mountain,166,probe-181,0.331367042,0.884715203,0.118830471,1,,,,,,
,do_trial,231,1255156,0.0-211.0-0.0,386.6,,,,50,"1,1,0",4,mountain,167,probe-84,0.336583696,0.941072973,0.17360877,1,,,,,,
,do_trial,232,1261077,0.0-212.0-0.0,385.3,,,,50,"1,0,0",4,mountain,168,probe-01,0.407115073,0.905692106,0.200320729,0,,,,,,
,do_trial,233,1267078,0.0-213.0-0.0,466,,,,50,"0,1,1",4,mountain,169,probe-190,0.212573479,0.948913887,0.363123631,1,,,,,,
,do_trial,234,1272919,0.0-214.0-0.0,305.9,,,,50,"0,1,1",4,mountain,170,probe-225,0.108404671,0.670290924,0.519884598,1,,,,,,
,do_trial,235,1278999,0.0-215.0-0.0,545.2,,,,50,"0,1,1",4,mountain,171,probe-63,0.082518846,0.476917699,0.57354109,1,,,,,,
,do_trial,236,1284776,0.0-216.0-0.0,241.3,,,,50,"0,1,1",4,mountain,172,probe-30,0.109233646,0.515595944,0.625154331,1,,,,,,
,do_trial,237,1290320,0.0-217.0-0.0,10,,,,50,"0,1,1",4,mountain,173,probe-170,0.093382562,0.466631403,0.682169007,1,,,,,,
,do_trial,238,1296217,0.0-218.0-0.0,361.5,,,,50,"0,0,1",4,mountain,174,probe-178,0.071161327,0.414602793,0.764736736,0,,,,,,
,do_trial,239,1302226,0.0-219.0-0.0,474.1,,,,50,"0,0,1",4,mountain,175,probe-147,0.127650554,0.427741372,0.809237258,0,,,,,,
,do_trial,240,1307939,0.0-220.0-0.0,177.9,,,,51,"0,0,1",4,mountain,176,probe-74,0.151727287,0.372538357,0.919057787,1,,,,,,
,do_trial,241,1313812,0.0-221.0-0.0,337.3,,,,51,"0,0,1",4,mountain,177,probe-235,0.16753563,0.123576623,0.945125431,1,,,,,,
,do_trial,242,1319892,0.0-222.0-0.0,545.8,,,,51,"0,0,1",4,mountain,178,probe-04,0.129391102,0.359276841,0.797066862,1,,,,,,
,do_trial,243,1325724,0.0-223.0-0.0,297.4,,,,51,"0,0,1",4,mountain,179,probe-16,0.073884055,0.487629349,0.812275383,1,,,,,,
,do_trial,244,1331525,0.0-224.0-0.0,266.4,,,,51,"0,0,1",4,mountain,180,probe-76,0.092565933,0.531632278,0.844906285,1,,,,,,
,do_trial,245,1337478,0.0-225.0-0.0,418,,,,51,"0,0,1",4,mountain,181,probe-105,0.064410951,0.350008105,0.879394366,1,,,,,,
,do_trial,246,1343535,0.0-226.0-0.0,521.9,,,,51,"0,1,1",4,mountain,182,probe-05,0.1685079,0.392329834,0.91512349,1,,,,,,
,do_trial,247,1349353,0.0-227.0-0.0,282.6,,,,51,"0,0,1",4,mountain,183,probe-31,0.226572459,0.36657625,0.90954801,1,,,,,,
,do_trial,248,1355280,0.0-228.0-0.0,392.6,,,,51,"0,1,1",4,mountain,184,probe-59,0.07524396,0.41541739,0.814855415,1,,,,,,
,do_trial,249,1361129,0.0-229.0-0.0,314.4,,,,51,"0,0,1",4,mountain,185,probe-205,0.073207719,0.321171278,0.746303063,1,,,,,,
,do_trial,250,1367106,0.0-230.0-0.0,441.9,,,,51,"0,0,1",4,mountain,186,probe-51,0.057788981,0.444373287,0.669584264,1,,,,,,
,do_trial,251,1373228,0.0-231.0-0.0,586.2,,,,51,"0,0,1",4,mountain,187,probe-228,0.138059594,0.344275397,0.607392068,1,,,,,,
,do_trial,252,1379275,0.0-232.0-0.0,512.7,,,,51,"0,0,0",4,mountain,188,probe-73,0.134489037,0.275402516,0.474411004,0,,,,,,
,do_trial,253,1385124,0.0-233.0-0.0,314.2,,,,51,"0,0,0",4,mountain,189,probe-200,0.072798505,0.406801384,0.527140427,0,,,,,,
,do_trial,254,1390892,0.0-234.0-0.0,234,,,,49,"0,0,1",4,mountain,190,probe-156,0.090973019,0.429216101,0.693230607,0,,,,,,
,do_trial,255,1396542,0.0-235.0-0.0,114.7,,,,49,"0,1,0",4,mountain,191,probe-173,0.071065492,0.3760698,0.880493858,0,,,,,,
,do_trial,256,1402207,0.0-236.0-0.0,129.3,,,,50,"0,0,1",4,mountain,192,probe-111,0.210304823,0.429094925,0.708012168,0,,,,,,
,do_trial,257,1408063,0.0-237.0-0.0,321.6,,,,50,"1,1,1",4,mountain,193,probe-223,0.19401934,0.34994114,0.77513047,1,,,,,,
,do_trial,258,1413952,0.0-238.0-0.0,353.1,,,,50,"0,0,0",4,mountain,194,probe-49,0.100739419,0.344308117,0.727634032,0,,,,,,
,do_trial,259,1419769,0.0-239.0-0.0,281.7,,,,50,"0,0,0",4,mountain,195,probe-57,0.091334906,0.456920693,0.693610172,0,,,,,,
,do_trial,260,1425521,0.0-240.0-0.0,217.1,,,,51,"0,1,1",4,mountain,196,probe-166,0.188117561,0.398893774,0.70119062,1,,,,,,
,do_trial,261,1431345,0.0-241.0-0.0,288.9,,,,51,"0,1,1",4,mountain,197,probe-115,0.073508173,0.435776464,0.76789493,1,,,,,,
,do_trial,262,1437219,0.0-242.0-0.0,337.1,,,,51,"1,0,0",4,mountain,198,probe-185,0.146414903,0.255929213,0.816317657,0,,,,,,
,do_trial,263,1442851,0.0-243.0-0.0,96.9,,,,51,"0,0,1",4,mountain,199,probe-184,0.158242624,0.484638971,0.79675972,1,,,,,,
,do_bye,264,1444354,0.0-244.0-0.0,null,,,,null,,,,,,,,,,,,,,,
,do_travel,265,1450356,0.0-245.0-0.0,null,,,,null,,,,,,,,,,,,,,,
,do_welcome,266,1451859,0.0-245.0-1.0,null,,,,null,,,,,,,,,,,,,,,
,do_trial,267,1458917,0.0-246.0-0.0,1523.5,,,,51,"0,1,1",5,countryside,200,probe-122,0.150631618,0.394206925,1,1,,,,,,
,do_trial,268,1464726,0.0-247.0-0.0,273.6,,,,51,"0,0,1",5,countryside,201,probe-143,0.063722073,0.467029441,1,1,,,,,,
,do_trial,269,1470583,0.0-248.0-0.0,321.8,,,,51,"0,0,1",5,countryside,202,probe-58,0.095638501,0.53582109,1,1,,,,,,
,do_trial,270,1476552,0.0-249.0-0.0,433.6,,,,51,"0,1,1",5,countryside,203,probe-177,0.230670387,0.461395736,1,1,,,,,,
,do_trial,271,1482536,0.0-250.0-0.0,448.9,,,,51,"0,0,1",5,countryside,204,probe-183,0.20000129,0.347908906,0.93284455,1,,,,,,
,do_trial,272,1488409,0.0-251.0-0.0,336.8,,,,51,"0,0,1",5,countryside,205,probe-26,0.06198834,0.32068207,0.884844059,1,,,,,,
,do_trial,273,1494170,0.0-252.0-0.0,225.7,,,,51,"0,1,1",5,countryside,206,probe-169,0.232694234,0.479554781,0.868091281,1,,,,,,
,do_trial,274,1499995,0.0-253.0-0.0,289,,,,51,"0,1,1",5,countryside,207,probe-78,0.14149307,0.476561008,0.882809527,1,,,,,,
,do_trial,275,1506075,0.0-254.0-0.0,545.8,,,,51,"1,0,1",5,countryside,208,probe-97,0.108191776,0.562095189,0.807124367,1,,,,,,
,do_trial,276,1512365,0.0-255.0-0.0,753.6,,,,51,"0,1,0",5,countryside,209,probe-132,0.117003857,0.457698859,0.710056453,0,,,,,,
,do_trial,277,1518182,0.0-256.0-0.0,282,,,,51,"0,0,0",5,countryside,210,probe-145,0.358713066,0.258901542,0.446517627,0,,,,,,
,do_trial,278,1523949,0.0-257.0-0.0,232,,,,49,"0,1,0",5,countryside,211,probe-22,0.513017508,0.392085712,0.342136342,0,,,,,,
,do_trial,279,1529750,0.0-258.0-0.0,266.1,,,,49,"1,1,0",5,countryside,212,probe-206,0.674906741,0.492545254,0.175795898,1,,,,,,
,do_trial,280,1535574,0.0-259.0-0.0,288.2,,,,49,"1,0,0",5,countryside,213,probe-118,0.766946405,0.426550153,0.128450134,1,,,,,,
,do_trial,281,1541391,0.0-260.0-0.0,281.5,,,,49,"1,0,0",5,countryside,214,probe-13,0.849974424,0.487132101,0.170899678,1,,,,,,
,do_trial,282,1547224,0.0-261.0-0.0,297.5,,,,49,"1,0,0",5,countryside,215,probe-160,0.679030824,0.437532462,0.112010457,1,,,,,,
,do_trial,283,1553081,0.0-262.0-0.0,322.2,,,,49,"0,0,0",5,countryside,216,probe-34,0.656399073,0.404657052,0.146794614,0,,,,,,
,do_trial,284,1558721,0.0-263.0-0.0,104.8,,,,49,"1,1,0",5,countryside,217,probe-207,0.832493522,0.410345656,0.105072739,1,,,,,,
,do_trial,285,1564539,0.0-264.0-0.0,282,,,,49,"0,1,0",5,countryside,218,probe-82,0.786524149,0.541862167,0.184179312,0,,,,,,
,do_trial,286,1570338,0.0-265.0-0.0,264.4,,,,49,"1,0,0",5,countryside,219,probe-83,0.6753278,0.523074477,0.181943802,1,,,,,,
,do_trial,287,1576292,0.0-266.0-0.0,418.6,,,,49,"0,0,0",5,countryside,220,probe-121,0.711996382,0.481882372,0.233878247,0,,,,,,
,do_trial,288,1582164,0.0-267.0-0.0,336.2,,,,49,"1,1,0",5,countryside,221,probe-128,0.736541712,0.557589829,0.11156979,1,,,,,,
,do_trial,289,1588222,0.0-268.0-0.0,520.4,,,,49,"1,0,0",5,countryside,222,probe-139,0.659707991,0.543998959,0.072119891,1,,,,,,
,do_trial,290,1594142,0.0-269.0-0.0,385.4,,,,49,"1,1,0",5,countryside,223,probe-193,0.78456423,0.492143125,0.071534371,1,,,,,,
,do_trial,291,1600023,0.0-270.0-0.0,345.9,,,,49,"1,0,0",5,countryside,224,probe-12,0.868696938,0.485464481,0.10282531,1,,,,,,
,do_trial,292,1605879,0.0-271.0-0.0,320.7,,,,49,"1,0,1",5,countryside,225,probe-119,0.892251757,0.35828364,0.066878051,1,,,,,,
,do_trial,293,1611983,0.0-272.0-0.0,569.7,,,,49,"1,0,0",5,countryside,226,probe-188,0.859164742,0.39616419,0.082444962,1,,,,,,
,do_trial,294,1617776,0.0-273.0-0.0,257.8,,,,49,"0,0,1",5,countryside,227,probe-36,0.633910449,0.24536899,0.119105534,0,,,,,,
,do_trial,295,1625353,0.0-274.0-0.0,2042,,,,49,"0,0,0",5,countryside,228,probe-52,0.666788272,0.325572766,0.074271878,0,,,,,,
,do_trial,296,1631034,0.0-275.0-0.0,146,,,,50,"1,0,0",5,countryside,229,probe-23,0.707676438,0.457418596,0.127362813,0,,,,,,
,do_trial,297,1636668,0.0-276.0-0.0,98,,,,50,"1,1,0",5,countryside,230,probe-129,0.735313241,0.431426102,0.140851973,1,,,,,,
,do_trial,298,1642492,0.0-277.0-0.0,288.9,,,,50,"1,0,0",5,countryside,231,probe-212,0.795251592,0.378117537,0.102402976,0,,,,,,
,do_trial,299,1648293,0.0-278.0-0.0,265.7,,,,50,"0,1,0",5,countryside,232,probe-72,0.741137299,0.44547031,0.109337679,1,,,,,,
,do_trial,300,1654141,0.0-279.0-0.0,311.3,,,,50,"1,0,0",5,countryside,233,probe-234,0.846661632,0.40301237,0.138159307,0,,,,,,
,do_trial,301,1660005,0.0-280.0-0.0,329.4,,,,50,"1,0,0",5,countryside,234,probe-199,0.857792752,0.283047917,0.18664577,0,,,,,,
,do_trial,302,1665598,0.0-281.0-0.0,57.6,,,,51,"1,0,0",5,countryside,235,probe-39,0.712625072,0.244990592,0.129953685,0,,,,,,
,do_trial,303,1671359,0.0-282.0-0.0,226.1,,,,51,"1,0,0",5,countryside,236,probe-09,0.673370736,0.413102425,0.106274322,0,,,,,,
,do_trial,304,1676984,0.0-283.0-0.0,88.8,,,,49,"1,1,0",5,countryside,237,probe-102,0.653379007,0.3283909,0.126375562,1,,,,,,
,do_trial,305,1682864,0.0-284.0-0.0,346.1,,,,49,"1,1,0",5,countryside,238,probe-77,0.56071229,0.424042516,0.200429727,1,,,,,,
,do_trial,306,1688727,0.0-285.0-0.0,313.4,,,,49,"1,0,0",5,countryside,239,probe-163,0.718289878,0.364315719,0.103085689,1,,,,,,
,do_bye,307,1690230,0.0-286.0-0.0,null,,,,null,,,,,,,,,,,,,,,
,html-keyboard-response,308,1768424,0.0-286.0-1.0,78191.9,"<div class='center'><p>You may take a break now!</p><p> Stretch for a little bit. Get a glass of water.</p><p> You have two minutes to rest. Then, the game will automatically move on.</p><p>If you’d like to get started on the second half of the experiment sooner, then press the <b>space bar</b></p></div>",32,,,,,,,,,,,,,,,,,
,html-keyboard-response,309,1776064,0.0-286.0-2.0,7640.1,"<div class='center'><p>You’ve arrived at the final destination of your journey! Unfortunately, it’s very foggy out, so you won’t be able to see it in the distance like in previous places you've visited.</p><p>You’ll still be deciding which pirates you want to rob ships. However, because of the fog you also won’t be able to see the ship in the distance. </p><p><b>[Press the space bar to continue]</b></p></div>",32,,,,,,,,,,,,,,,,,
,html-keyboard-response,310,1802124,0.0-286.0-3.0,26059.5,"<div class='center'><p> Sometimes you’ll be asked if you’ve seen a ship before (see the example below). You will use the 5, 6, 7, 8 buttons on your keyboard to respond. </p><p> If you definitely did not see the ship, pick the the big red thumbs down by pressing <b>5</b>.</p><p> If you don’t think you saw it but aren’t sure, then pick the small red thumbs down by pressing <b>6</b>.</p><p> If you think you might have seen it, then pick the small green thumbs up by pressing <b>7</b>.</p><p> If you definitely did see this ship before, then pick the big thumb green thumbs up by pressing <b>8</b>.</p><p> If you recall correctly, then you’ll get a gold coin!</p><p><b>[Press the space bar to begin the next phase of the experiment]</b></p><p><img src='run_exp/static/images/example_recog_trial.png' height='500'></p></div>",32,,,,,,,,,,,,,,,,,
,do_welcome,311,1803627,0.0-286.0-4.0,null,,,,null,,,,,,,,,,,,,,,
,do_trial,312,1808681,0.0-287.0-0.0,1518.4,,,,49,"1,0,0",6,blank,240,null,1,0.294821654,0.161178644,1,,,,,,
,do_trial,313,1812865,0.0-288.0-0.0,649.2,,,,49,"1,0,1",6,blank,241,null,0.873217175,0.294659897,0.176455093,1,,,,,,
,do_trial,314,1816665,0.0-289.0-0.0,265.2,,,,49,"1,0,1",6,blank,242,null,0.827865522,0.490526284,0.097002575,1,,,,,,
,do_trial,315,1820529,0.0-290.0-0.0,329.6,,,,49,"0,0,1",6,blank,243,null,0.770928676,0.405797775,0.086384308,0,,,,,,
,do_recog,316,1825019,0.0-291.0-0.0,2985.6,,,,54,,,,244,probe-94,,,,,1,[object Object],83,2,0,
,do_trial,317,1830603,0.0-292.0-0.0,2048.4,,,,49,"1,0,0",6,blank,245,null,0.834586517,0.381561932,0.101149678,1,,,,,,
,do_recog,318,1834476,0.0-293.0-0.0,2369.1,,,,53,,,,246,probe-24,,,,,1,[object Object],49,1,0,
,do_trial,319,1838524,0.0-294.0-0.0,513.2,,,,49,"1,1,0",6,blank,247,null,0.806600189,0.412578163,0.06750089,1,,,,,,
,do_trial,320,1842549,0.0-295.0-0.0,489.6,,,,49,"1,0,0",6,blank,248,null,0.796497648,0.364406799,0.0938228,1,,,,,,
,do_recog,321,1846069,0.0-296.0-0.0,2016,,,,53,,,,249,probe-252,,,,,0,[object Object],null,null,1,
,do_trial,322,1850005,0.0-297.0-0.0,400.6,,,,49,"1,0,0",6,blank,250,null,0.799551749,0.364145072,0.117092051,1,,,,,,
,do_recog,323,1852910,0.0-298.0-0.0,1401.5,,,,55,,,,251,probe-180,,,,,1,[object Object],89,2,1,
,do_trial,324,1856894,0.0-299.0-0.0,448.8,,,,49,"1,0,0",6,blank,252,null,0.899164276,0.226224866,0.163896389,1,,,,,,
,do_trial,325,1860807,0.0-300.0-0.0,377.8,,,,49,"1,1,0",6,blank,253,null,0.760856488,0.369863999,0.116786912,1,,,,,,
,do_trial,326,1864704,0.0-301.0-0.0,360.5,,,,49,"1,0,0",6,blank,254,null,0.48190925,0.568061037,0.236984975,1,,,,,,
,do_trial,327,1868648,0.0-302.0-0.0,408.4,,,,49,"0,1,0",6,blank,255,null,0.159565186,0.571715209,0.232047647,0,,,,,,
,do_recog,328,1874653,0.0-303.0-0.0,null,,,,null,,,,256,probe-243,,,,,0,[object Object],null,null,0,
,do_trial,329,1878729,0.0-304.0-0.0,540.2,,,,49,"0,0,0",6,blank,257,null,0.062243353,0.612681057,0.321196758,0,,,,,,
,do_trial,330,1882586,0.0-305.0-0.0,321.1,,,,50,"0,1,0",6,blank,258,null,0.151991058,0.620495218,0.369269477,1,,,,,,
,do_trial,331,1886834,0.0-306.0-0.0,713.1,,,,50,"0,1,1",6,blank,259,null,0.09313259,0.567162104,0.438718034,1,,,,,,
,do_trial,332,1890772,0.0-307.0-0.0,402.3,,,,50,"0,1,1",6,blank,260,null,0.114414279,0.5829799,0.375920655,1,,,,,,
,do_recog,333,1893628,0.0-308.0-0.0,1351.1,,,,56,,,,261,probe-229,,,,,1,[object Object],84,2,1,
,do_trial,334,1897555,0.0-309.0-0.0,392.1,,,,50,"0,1,0",6,blank,262,null,0.088072157,0.686456668,0.363082389,1,,,,,,
,do_recog,335,1900693,0.0-310.0-0.0,1633.1,,,,56,,,,263,probe-42,,,,,1,[object Object],164,4,1,
,do_trial,336,1904519,0.0-311.0-0.0,279.6,,,,50,"0,1,0",6,blank,264,null,0.05925138,0.760883561,0.325786169,1,,,,,,
,do_recog,337,1907445,0.0-312.0-0.0,1422.1,,,,56,,,,265,probe-01,,,,,1,[object Object],168,4,1,
,do_trial,338,1911474,0.0-313.0-0.0,481.6,,,,50,"0,0,0",6,blank,266,null,0.223605044,0.768885432,0.397049704,0,,,,,,
,do_recog,339,1914454,0.0-314.0-0.0,1475.9,,,,53,,,,267,probe-220,,,,,1,[object Object],86,2,0,
,do_trial,340,1918263,0.0-315.0-0.0,273.1,,,,50,"1,1,1",6,blank,268,null,0.28881916,0.75775422,0.481308221,1,,,,,,
,do_trial,341,1922166,0.0-316.0-0.0,368.5,,,,50,"0,1,1",6,blank,269,null,0.318537425,0.829794839,0.522989833,1,,,,,,
,do_trial,342,1926031,0.0-317.0-0.0,329.3,,,,50,"0,1,1",6,blank,270,null,0.279849189,0.928759867,0.488758301,1,,,,,,
,do_trial,343,1929920,0.0-318.0-0.0,353.5,,,,50,"0,1,1",6,blank,271,null,0.126185009,0.9432945,0.525987796,1,,,,,,
,do_recog,344,1933616,0.0-319.0-0.0,2192.6,,,,55,,,,272,probe-116,,,,,1,[object Object],123,3,1,
,do_trial,345,1937704,0.0-320.0-0.0,554,,,,50,"1,1,1",6,blank,273,null,0.07408045,0.948822356,0.504833636,1,,,,,,
,do_recog,346,1941040,0.0-321.0-0.0,1832.8,,,,55,,,,274,probe-89,,,,,1,[object Object],162,4,1,
,do_trial,347,1945136,0.0-322.0-0.0,561.2,,,,50,"0,1,0",6,blank,275,null,0.122520876,0.902006116,0.40512908,1,,,,,,
,do_trial,348,1949002,0.0-323.0-0.0,329.6,,,,50,"0,1,1",6,blank,276,null,0.058193954,0.782852925,0.566759572,1,,,,,,
,do_trial,349,1952962,0.0-324.0-0.0,424.9,,,,50,"0,1,0",6,blank,277,null,0.147819196,0.847787312,0.432188725,1,,,,,,
,do_trial,350,1957274,0.0-325.0-0.0,777.2,,,,50,"0,1,1",6,blank,278,null,0.137482482,0.766008767,0.296116834,1,,,,,,
,do_recog,351,1960332,0.0-326.0-0.0,1552.8,,,,56,,,,279,probe-221,,,,,1,[object Object],127,3,1,
,do_trial,352,1965315,0.0-327.0-0.0,1447.8,,,,50,"0,1,0",6,blank,280,null,0.055238951,0.761939598,0.424158969,1,,,,,,
,do_recog,353,1968733,0.0-328.0-0.0,1913.7,,,,55,,,,281,probe-181,,,,,1,[object Object],166,4,1,
,do_trial,354,1972564,0.0-329.0-0.0,296.3,,,,50,"0,1,1",6,blank,282,null,0.094210464,0.811937721,0.397829438,1,,,,,,
,do_recog,355,1975404,0.0-330.0-0.0,1337.3,,,,55,,,,283,probe-255,,,,,0,[object Object],null,null,0,
,do_trial,356,1979236,0.0-331.0-0.0,297.6,,,,50,"0,1,1",6,blank,284,null,0.221505366,1,0.394339363,1,,,,,,
,do_recog,357,1982358,0.0-332.0-0.0,1617.5,,,,54,,,,285,probe-245,,,,,0,[object Object],null,null,1,
,do_trial,358,1986270,0.0-333.0-0.0,376.1,,,,50,"0,1,0",6,blank,286,null,0.173876225,0.904651733,0.462265326,1,,,,,,
,do_recog,359,1988910,0.0-334.0-0.0,1136.7,,,,56,,,,287,probe-190,,,,,1,[object Object],169,4,1,
,do_trial,360,1993006,0.0-335.0-0.0,561.5,,,,50,"0,1,0",6,blank,288,null,0.074363568,0.881050031,0.431161353,1,,,,,,
,do_recog,361,1996047,0.0-336.0-0.0,1537.1,,,,54,,,,289,probe-137,,,,,1,[object Object],85,2,0,
,do_trial,362,1999896,0.0-337.0-0.0,312.8,,,,50,"0,0,0",6,blank,290,null,0.147795976,0.88025096,0.336678992,0,,,,,,
,do_recog,363,2002529,0.0-338.0-0.0,1128.6,,,,56,,,,291,probe-68,,,,,1,[object Object],46,1,1,
,do_trial,364,2006497,0.0-339.0-0.0,432.8,,,,50,"0,1,0",6,blank,292,null,0.063984197,0.792145293,0.399876636,1,,,,,,
,do_trial,365,2010402,0.0-340.0-0.0,369.6,,,,50,"1,1,0",6,blank,293,null,0.252077503,0.876242295,0.461437771,1,,,,,,
,do_trial,366,2014282,0.0-341.0-0.0,344.7,,,,50,"0,1,1",6,blank,294,null,0.14140147,0.801360022,0.491430629,1,,,,,,
,do_trial,367,2018243,0.0-342.0-0.0,425.6,,,,50,"0,1,0",6,blank,295,null,0.12227977,0.877262036,0.485277174,1,,,,,,
,do_trial,368,2022186,0.0-343.0-0.0,392.8,,,,50,"1,1,0",6,blank,296,null,0.19765904,0.81494759,0.327800978,1,,,,,,
,do_recog,369,2025212,0.0-344.0-0.0,1521,,,,54,,,,297,probe-143,,,,,1,[object Object],201,5,0,
,do_trial,370,2029012,0.0-345.0-0.0,264.7,,,,50,"0,1,1",6,blank,298,null,0.230962672,0.878566548,0.258001237,1,,,,,,
,do_recog,371,2031781,0.0-346.0-0.0,1264.9,,,,54,,,,299,probe-222,,,,,1,[object Object],126,3,0,
,do_trial,372,2037116,0.0-347.0-0.0,1800.1,,,,50,"1,1,0",6,blank,300,null,0.315462159,0.796313533,0.360501204,1,,,,,,
,do_recog,373,2040653,0.0-348.0-0.0,2033,,,,54,,,,301,probe-40,,,,,1,[object Object],81,2,0,
,do_trial,374,2044493,0.0-349.0-0.0,305.3,,,,50,"0,0,0",6,blank,302,null,0.258977708,0.872832671,0.259116388,0,,,,,,
,do_recog,375,2047622,0.0-350.0-0.0,1625,,,,53,,,,303,probe-92,,,,,1,[object Object],161,4,0,
,do_trial,376,2051523,0.0-351.0-0.0,352.8,,,,50,"0,1,1",6,blank,304,null,0.505199823,0.578886074,0.277838297,1,,,,,,
,do_recog,377,2054207,0.0-352.0-0.0,1180.4,,,,55,,,,305,probe-159,,,,,1,[object Object],121,3,1,
,do_trial,378,2058086,0.0-353.0-0.0,344.9,,,,50,"1,0,1",6,blank,306,null,0.643179655,0.442557224,0.206047529,0,,,,,,
,do_recog,379,2060584,0.0-354.0-0.0,992.8,,,,56,,,,307,probe-97,,,,,1,[object Object],208,5,1,
,do_trial,380,2064543,0.0-355.0-0.0,424.4,,,,51,"1,1,0",6,blank,308,null,0.704195591,0.521075002,0.141979283,0,,,,,,
,do_trial,381,2068535,0.0-356.0-0.0,457,,,,51,"1,1,0",6,blank,309,null,0.893724457,0.653025169,0.206692171,0,,,,,,
,do_trial,382,2072472,0.0-357.0-0.0,401.5,,,,49,"0,1,1",6,blank,310,null,0.851494118,0.62123078,0.12212812,0,,,,,,
,do_trial,383,2076489,0.0-358.0-0.0,481.2,,,,49,"1,0,0",6,blank,311,null,0.790249014,0.551944849,0.20595625,1,,,,,,
,do_recog,384,2079378,0.0-359.0-0.0,1385.6,,,,55,,,,312,probe-209,,,,,1,[object Object],43,1,1,
,do_trial,385,2083145,0.0-360.0-0.0,232.4,,,,49,"1,1,0",6,blank,313,null,0.67468185,0.444529529,0.113729091,1,,,,,,
,do_trial,386,2087185,0.0-361.0-0.0,506.2,,,,49,"1,0,0",6,blank,314,null,0.751525757,0.355924045,0.188824824,1,,,,,,
,do_recog,387,2090195,0.0-362.0-0.0,1505.6,,,,54,,,,315,probe-112,,,,,1,[object Object],80,2,0,
,do_trial,388,2094875,0.0-363.0-0.0,1144.9,,,,49,"1,0,0",6,blank,316,null,0.721962445,0.383177893,0.139873205,1,,,,,,
,do_trial,389,2098979,0.0-364.0-0.0,569.1,,,,49,"1,0,0",6,blank,317,null,0.838589396,0.405256324,0.162551696,1,,,,,,
,do_trial,390,2102924,0.0-365.0-0.0,409.6,,,,49,"1,0,0",6,blank,318,null,0.886916227,0.385859218,0.20467524,1,,,,,,
,do_trial,391,2106884,0.0-366.0-0.0,424.5,,,,49,"1,0,0",6,blank,319,null,0.769029499,0.179686372,0.108325607,1,,,,,,
,do_recog,392,2109589,0.0-367.0-0.0,1201.4,,,,56,,,,320,probe-169,,,,,1,[object Object],206,5,1,
,do_trial,393,2113517,0.0-368.0-0.0,391.2,,,,49,"1,0,0",6,blank,321,null,0.877540041,0.173597092,0.124737216,1,,,,,,
,do_trial,394,2117366,0.0-369.0-0.0,313.2,,,,49,"1,0,0",6,blank,322,null,0.832225738,0.110254825,0.202722992,1,,,,,,
,do_trial,395,2121527,0.0-370.0-0.0,625.3,,,,49,"0,0,0",6,blank,323,null,0.856329776,0.302907091,0.166155177,0,,,,,,
,do_recog,396,2124607,0.0-371.0-0.0,1577.2,,,,54,,,,324,probe-196,,,,,1,[object Object],42,1,0,
,do_trial,397,2128647,0.0-372.0-0.0,505.5,,,,49,"1,1,0",6,blank,325,null,0.908231321,0.394216515,0.124558117,1,,,,,,
,do_trial,398,2132624,0.0-373.0-0.0,440.7,,,,49,"0,0,0",6,blank,326,null,0.865255043,0.38393887,0.123065844,0,,,,,,
,do_recog,399,2135809,0.0-374.0-0.0,1681.1,,,,53,,,,327,probe-241,,,,,0,[object Object],null,null,1,
,do_trial,400,2139616,0.0-375.0-0.0,273,,,,49,"1,0,0",6,blank,328,null,0.907739253,0.412880867,0.155529626,1,,,,,,
,do_recog,401,2142753,0.0-376.0-0.0,1633.2,,,,53,,,,329,probe-204,,,,,1,[object Object],41,1,0,
,do_trial,402,2146835,0.0-377.0-0.0,545.2,,,,49,"1,0,0",6,blank,330,null,1,0.421358766,0.091278038,1,,,,,,
,do_trial,403,2150770,0.0-378.0-0.0,400.3,,,,49,"0,1,0",6,blank,331,null,0.882515315,0.622408841,0.067306587,0,,,,,,
,do_trial,404,2154659,0.0-379.0-0.0,353.9,,,,49,"1,1,0",6,blank,332,null,0.778943818,0.421499912,0.089060028,1,,,,,,
,do_trial,405,2158523,0.0-380.0-0.0,328.6,,,,49,"1,1,0",6,blank,333,null,0.743402309,0.488985524,0.108597469,1,,,,,,
,do_trial,406,2162308,0.0-381.0-0.0,249.7,,,,49,"0,1,0",6,blank,334,null,0.800837471,0.442356805,0.134451316,0,,,,,,
,do_recog,407,2165212,0.0-382.0-0.0,1400.5,,,,56,,,,335,probe-25,,,,,1,[object Object],165,4,1,
,do_trial,408,2169133,0.0-383.0-0.0,385.5,,,,49,"1,0,1",6,blank,336,null,0.693620577,0.452199224,0.30190555,1,,,,,,
,do_recog,409,2171910,0.0-384.0-0.0,1272.7,,,,55,,,,337,probe-124,,,,,1,[object Object],45,1,1,
,do_trial,410,2175718,0.0-385.0-0.0,272.6,,,,49,"1,0,0",6,blank,338,null,0.840974249,0.250557004,0.237451689,1,,,,,,
,do_trial,411,2179637,0.0-386.0-0.0,383.2,,,,49,"1,0,0",6,blank,339,null,0.851720428,0.280585686,0.111863884,1,,,,,,
,do_trial,412,2183622,0.0-387.0-0.0,449,,,,49,"0,1,0",6,blank,340,null,0.768975104,0.33049307,0.050979529,0,,,,,,
,do_trial,413,2187525,0.0-388.0-0.0,354.1,,,,49,"1,0,0",6,blank,341,null,0.863012976,0.378411196,0.052407242,1,,,,,,
,do_recog,414,2190535,0.0-389.0-0.0,1506,,,,55,,,,342,probe-183,,,,,1,[object Object],204,5,1,
,do_trial,415,2194407,0.0-390.0-0.0,337.1,,,,49,"0,1,1",6,blank,343,null,0.686539584,0.190625466,0.228858677,0,,,,,,
,do_recog,416,2196960,0.0-391.0-0.0,1049.6,,,,56,,,,344,probe-78,,,,,1,[object Object],207,5,1,
,do_trial,417,2200904,0.0-392.0-0.0,408.4,,,,49,"1,1,0",6,blank,345,null,0.49788474,0.274311968,0.449128443,1,,,,,,
,do_recog,418,2203681,0.0-393.0-0.0,1272.8,,,,55,,,,346,probe-33,,,,,1,[object Object],48,1,1,
,do_trial,419,2207521,0.0-394.0-0.0,304.9,,,,49,"1,0,0",6,blank,347,null,0.537300897,0.354746203,0.684637075,1,,,,,,
,do_trial,420,2211394,0.0-395.0-0.0,337.6,,,,49,"0,1,1",6,blank,348,null,0.405747067,0.234978057,0.705775307,0,,,,,,
,do_trial,421,2215210,0.0-396.0-0.0,280.8,,,,49,"0,1,1",6,blank,349,null,0.539278767,0.276574726,0.64442495,0,,,,,,
,do_trial,422,2219093,0.0-397.0-0.0,344.7,,,,50,"1,0,0",6,blank,350,null,0.559352182,0.224042712,0.684733824,0,,,,,,
,do_trial,423,2222964,0.0-398.0-0.0,334.8,,,,50,"0,0,1",6,blank,351,null,0.477879933,0.065993683,0.675945782,0,,,,,,
,do_trial,424,2226907,0.0-399.0-0.0,408.2,,,,51,"0,0,0",6,blank,352,null,0.433796351,0.057286353,0.663871454,0,,,,,,
,do_recog,425,2230324,0.0-400.0-0.0,1913.6,,,,55,,,,353,probe-60,,,,,1,[object Object],40,1,1,
,do_trial,426,2234164,0.0-401.0-0.0,305.5,,,,51,"0,0,0",6,blank,354,null,0.372447651,0.080270348,0.571234042,0,,,,,,
,do_trial,427,2238156,0.0-402.0-0.0,456.7,,,,49,"0,0,1",6,blank,355,null,0.46393025,0.053776183,0.72271021,0,,,,,,
,do_recog,428,2241110,0.0-403.0-0.0,1449.7,,,,54,,,,356,probe-240,,,,,1,[object Object],122,3,0,
,do_trial,429,2245023,0.0-404.0-0.0,376.6,,,,49,"1,0,1",6,blank,357,null,0.412256559,0.1500986,0.736478758,1,,,,,,
,do_recog,430,2247974,0.0-405.0-0.0,1448.3,,,,56,,,,358,probe-70,,,,,1,[object Object],87,2,1,
,do_trial,431,2251783,0.0-406.0-0.0,272.9,,,,49,"1,0,1",6,blank,359,null,0.547867751,0.162906384,0.779550008,1,,,,,,
,do_recog,432,2254775,0.0-407.0-0.0,1488.3,,,,54,,,,360,probe-175,,,,,1,[object Object],120,3,0,
,do_trial,433,2258784,0.0-408.0-0.0,472.6,,,,49,"1,0,1",6,blank,361,null,0.521827234,0.231432679,0.795103069,1,,,,,,
,do_trial,434,2262752,0.0-409.0-0.0,433.2,,,,49,"0,0,1",6,blank,362,null,0.464813724,0.200444725,0.762206526,0,,,,,,
,do_trial,435,2266657,0.0-410.0-0.0,369.1,,,,49,"0,1,1",6,blank,363,null,0.514554819,0.326360089,0.825823568,0,,,,,,
,do_trial,436,2270530,0.0-411.0-0.0,337.2,,,,50,"0,0,0",6,blank,364,null,0.573483423,0.250443233,0.80422807,0,,,,,,
,do_recog,437,2273210,0.0-412.0-0.0,1176.3,,,,56,,,,365,probe-122,,,,,1,[object Object],200,5,1,
,do_trial,438,2277058,0.0-413.0-0.0,312.5,,,,50,"1,0,1",6,blank,366,null,0.605037112,0.098585792,0.873533945,0,,,,,,
,do_recog,439,2280386,0.0-414.0-0.0,1825.3,,,,54,,,,367,probe-79,,,,,1,[object Object],124,3,0,
,do_trial,440,2284234,0.0-415.0-0.0,313,,,,51,"1,0,0",6,blank,368,null,0.407007956,0.088909842,0.90327927,0,,,,,,
,do_trial,441,2288115,0.0-416.0-0.0,345.2,,,,51,"0,0,1",6,blank,369,null,0.475208008,0.086278947,0.847340783,1,,,,,,
,do_trial,442,2292060,0.0-417.0-0.0,408.5,,,,51,"1,0,1",6,blank,370,null,0.551565808,0.197259891,0.770255184,1,,,,,,
,do_trial,443,2295973,0.0-418.0-0.0,377.5,,,,51,"1,0,1",6,blank,371,null,0.467767826,0.11779574,1,1,,,,,,
,do_recog,444,2298700,0.0-419.0-0.0,1223.7,,,,56,,,,372,probe-26,,,,,1,[object Object],205,5,1,
,do_trial,445,2302564,0.0-420.0-0.0,329,,,,51,"1,0,1",6,blank,373,null,0.555097293,0.095068242,0.838151026,1,,,,,,
,do_recog,446,2305502,0.0-421.0-0.0,1433.4,,,,54,,,,374,probe-177,,,,,1,[object Object],203,5,0,
,do_trial,447,2309502,0.0-422.0-0.0,463.8,,,,51,"1,0,1",6,blank,375,null,0.452289218,0.103213595,0.789398727,1,,,,,,
,do_recog,448,2312254,0.0-423.0-0.0,1248.3,,,,54,,,,376,probe-80,,,,,1,[object Object],129,3,0,
,do_trial,449,2316143,0.0-424.0-0.0,352.9,,,,51,"0,0,1",6,blank,377,null,0.314852306,0.205845809,0.74851267,1,,,,,,
,do_recog,450,2318975,0.0-425.0-0.0,1328.6,,,,56,,,,378,probe-84,,,,,1,[object Object],167,4,1,
,do_trial,451,2322967,0.0-426.0-0.0,457,,,,51,"0,0,1",6,blank,379,null,0.241259501,0.174483805,0.731176804,1,,,,,,
,do_trial,452,2327225,0.0-427.0-0.0,722.4,,,,51,"0,1,1",6,blank,380,null,0.260841903,0.23404233,0.763724403,1,,,,,,
,do_trial,453,2331273,0.0-428.0-0.0,512.5,,,,51,"0,1,1",6,blank,381,null,0.36361398,0.181569565,0.831800394,1,,,,,,
,do_trial,454,2335168,0.0-429.0-0.0,360.3,,,,51,"0,0,1",6,blank,382,null,0.377209368,0.31085253,0.763700095,1,,,,,,
,do_recog,455,2337937,0.0-430.0-0.0,1264.8,,,,56,,,,383,probe-117,,,,,1,[object Object],125,3,1,
,do_trial,456,2341843,0.0-431.0-0.0,369.8,,,,51,"1,0,1",6,blank,384,null,0.332601801,0.264866534,0.89391392,1,,,,,,
,do_trial,457,2345745,0.0-432.0-0.0,367.8,,,,51,"0,0,1",6,blank,385,null,0.315481996,0.268482288,0.932004431,1,,,,,,
,do_trial,458,2349611,0.0-433.0-0.0,329.1,,,,51,"0,0,1",6,blank,386,null,0.444996689,0.075293976,0.63726239,1,,,,,,
,do_trial,459,2353475,0.0-434.0-0.0,328.8,,,,51,"1,0,0",6,blank,387,null,0.589777675,0.180464927,0.476343263,0,,,,,,
,do_recog,460,2356019,0.0-435.0-0.0,1041.3,,,,56,,,,388,probe-132,,,,,1,[object Object],209,5,1,
,do_trial,461,2359901,0.0-436.0-0.0,345.4,,,,51,"1,0,1",6,blank,389,null,0.757127839,0.121713834,0.370096822,1,,,,,,
,do_recog,462,2363717,0.0-437.0-0.0,2312.1,,,,54,,,,390,probe-249,,,,,0,[object Object],null,null,1,
,do_trial,463,2367637,0.0-438.0-0.0,385,,,,51,"1,0,1",6,blank,391,null,0.726920034,0.226281915,0.355898233,1,,,,,,
,do_recog,464,2370102,0.0-439.0-0.0,960.1,,,,56,,,,392,probe-141,,,,,1,[object Object],47,1,1,
,do_trial,465,2374350,0.0-440.0-0.0,712.5,,,,51,"0,0,1",6,blank,393,null,0.624843464,0.173912338,0.366037907,1,,,,,,
,do_recog,466,2377182,0.0-441.0-0.0,1328.4,,,,54,,,,394,probe-149,,,,,1,[object Object],88,2,0,
,do_trial,467,2381039,0.0-442.0-0.0,320.5,,,,51,"0,0,1",6,blank,395,null,0.765669528,0.135081263,0.439152621,1,,,,,,
,do_recog,468,2383751,0.0-443.0-0.0,1208.5,,,,54,,,,396,probe-58,,,,,1,[object Object],202,5,0,
,do_trial,469,2387783,0.0-444.0-0.0,497.3,,,,51,"0,0,0",6,blank,397,null,0.828536979,0.060840974,0.284151278,0,,,,,,
,do_recog,470,2390752,0.0-445.0-0.0,1465.3,,,,54,,,,398,probe-157,,,,,1,[object Object],44,1,0,
,do_trial,471,2394641,0.0-446.0-0.0,352.6,,,,51,"1,0,1",6,blank,399,null,0.809995668,0.220064502,0.329409366,1,,,,,,
,do_trial,472,2398673,0.0-447.0-0.0,496.3,,,,51,"1,1,0",6,blank,400,null,0.758532366,0.223920952,0.345076415,0,,,,,,
,do_trial,473,2402657,0.0-448.0-0.0,448.4,,,,51,"0,0,1",6,blank,401,null,0.821038969,0.190917491,0.391333875,1,,,,,,
,do_recog,474,2405338,0.0-449.0-0.0,1177.3,,,,54,,,,402,probe-254,,,,,0,[object Object],null,null,1,
,do_trial,475,2409225,0.0-450.0-0.0,352.6,,,,51,"1,0,1",6,blank,403,null,0.790751487,0.176797739,0.340288994,1,,,,,,
,do_recog,476,2412315,0.0-451.0-0.0,1585.3,,,,54,,,,404,probe-48,,,,,1,[object Object],160,4,0,
,do_trial,477,2416186,0.0-452.0-0.0,336.6,,,,51,"1,0,0",6,blank,405,null,0.876774386,0.104950564,0.441025031,0,,,,,,
,do_recog,478,2418971,0.0-453.0-0.0,1281.8,,,,54,,,,406,probe-21,,,,,1,[object Object],82,2,0,
,do_trial,479,2422804,0.0-454.0-0.0,296.8,,,,51,"1,1,0",6,blank,407,null,0.920050832,0.055414271,0.473772994,0,,,,,,
,do_recog,480,2425500,0.0-455.0-0.0,1191.9,,,,56,,,,408,probe-07,,,,,1,[object Object],163,4,1,
,do_trial,481,2429468,0.0-456.0-0.0,433.2,,,,51,"0,0,0",6,blank,409,null,0.847102593,0.160288651,0.404467288,0,,,,,,
,do_trial,482,2433444,0.0-457.0-0.0,440.9,,,,49,"1,0,1",6,blank,410,null,0.91141949,0.189253911,0.371491758,1,,,,,,
,do_trial,483,2437404,0.0-458.0-0.0,424.7,,,,49,"1,0,1",6,blank,411,null,0.843484775,0.113971512,0.383433865,1,,,,,,
,do_recog,484,2440077,0.0-459.0-0.0,1169.5,,,,56,,,,412,probe-10,,,,,1,[object Object],128,3,1,
,do_trial,485,2443878,0.0-460.0-0.0,265.4,,,,49,"1,0,0",6,blank,413,null,0.814637209,0.097022583,0.519544109,1,,,,,,
,do_recog,486,2446734,0.0-461.0-0.0,1352.7,,,,54,,,,414,probe-253,,,,,0,[object Object],null,null,1,
,do_trial,487,2450550,0.0-462.0-0.0,281.9,,,,49,"1,0,1",6,blank,415,null,0.801828471,0.086163936,0.486908988,1,,,,,,
,do_trial,488,2454487,0.0-463.0-0.0,401.5,,,,49,"1,0,0",6,blank,416,null,0.769257162,0.104635491,0.348191939,1,,,,,,
,do_recog,489,2457072,0.0-464.0-0.0,1080.7,,,,54,,,,417,probe-257,,,,,0,[object Object],null,null,1,
,do_trial,490,2460912,0.0-465.0-0.0,305.4,,,,49,"0,0,1",6,blank,418,null,0.73495899,0.077783106,0.474141334,0,,,,,,
,do_recog,491,2463913,0.0-466.0-0.0,1497.1,,,,55,,,,419,probe-256,,,,,0,[object Object],null,null,0,
,do_pick_best_pirate,492,2465206,0.0-467.0-0.0,288,,,,49,,,,,,,,,,,,,,,
,do_pick_best_pirate,493,2468629,0.0-468.0-0.0,2419.4,,,,50,,,,,,,,,,,,,,,
,do_pick_best_pirate,494,2472246,0.0-469.0-0.0,2612.9,,,,50,,,,,,,,,,,,,,,
,do_pick_best_pirate,495,2477086,0.0-470.0-0.0,3836.9,,,,51,,,,,,,,,,,,,,,
,do_pick_best_pirate,496,2482502,0.0-471.0-0.0,4412.3,,,,51,,,,,,,,,,,,,,,
,do_pick_best_pirate,497,2484840,0.0-472.0-0.0,1333.3,,,,49,,,,,,,,,,,,,,,
,html-keyboard-response,498,2489208,0.0-473.0-0.0,4367.3,<div class='center'>You are all done with the experiment! You made $15 plus $3 in bonus payment!! Thank you for participating. You will recieve your payment within 3 days<p><b>[Press the space bar to end the experiment]</b></p></div>,32,,,,,,,,,,,,,,,,,