"success","trial_type","trial_index","time_elapsed","internal_node_id","rt","stimulus","key_press","subject_id","response","choice_outcomes","context_n","context_img_id","trial_n","probe_img_id","pR_red","pR_white","pR_black","outcome","contextArray_ind","validImageProbes","invalidImageProbes","pRew_Red","pRew_White","pRew_Black","availableForMemProbe","choice_blocks"
"true","fullscreen","0","8574","0.0-0.0","","","","","","","","","","","","","","","","","","","","","",""
"","pavlovia","1","8580","0.0-1.0","","","","","","","","","","","","","","","","","","","","","",""
"","html-keyboard-response","2","22357","0.0-2.0","13774.990000063553","<div class='center'><p>Welcome! This is the first day of the experiment which will last ~30 minutes. In this experiment, you are the head captain of a pirate ship traveling around the world to different places. You will complete several different tasks during this experiment. Here is an overview of these tasks:</p><br><p>Day 1</p><p>1. Tutorial and quiz</p><p>2. Pick a pirate game in 6 different places</p><br><p>Day 2</p><p>3. Pick a pirate game and memory game</p><p>4. Final questions and payment</p><br><p>If you complete the entire experiment, you will receive $15 and a possible bonus payment.</p><p><b>[Press the space bar to begin the tutorial]</b></p></div>","32","60ff1a48cd19812e615ab0fa","","","","","","","","","","","","","","","","","",""
"","html-keyboard-response","3","30954","0.0-3.0","8595.860000001267","<div class='center'><p>You are the head captain of a pirate ship.</p><p> Your pirates rob other ships as they leave the marketplace port.</p> These ships have just sold all their goods at the marketplace, so they have lots and lots of gold on them.</p><p><img src='run_exp/static/images/ship_center.png' height='400'></p><p><b>[Press the space bar to continue]</b></p></div>","32","","","","","","","","","","","","","","","","","","",""
"","html-keyboard-response","4","41789","0.0-4.0","10833.180000074208","<div class='center'><p>As the head captain, you do not have to rob any ships yourself.</p><p>You get to choose which pirate you want to rob the next ship. </p><p>If they are successful at robbing the ship, then you will get gold coins.</p><p> If they are not successful, then you will get no gold coins.</p><p> The more coins you collect, the more bonus money you will win. So, choose your pirate wisely.</p><p><img src='run_exp/static/images/goal.png' height='400'></p><p><b>[Press the space bar to continue]</b></p><div>","32","","","","","","","","","","","","","","","","","","",""
"","html-keyboard-response","5","55843","0.0-5.0","14040.319999912754","<div class='center'><p>Even the most skilled pirate will not be able to rob EVERY ship.</p><p> Some ships will have very strong defenses against attacks.</p><p> For example, blue beard, here,  is very good at robbing ships.</p><p> You can press the <b>‘1’</b> button on the keyboard to choose him.</p><p> Try choosing him 10 times to see how often he is successful at robbing ships. </p><p><img src='run_exp/static/images/blue.png' height='500'></p></div>","49","","","","","","","","","","","","","","","","","","",""
"","html-keyboard-response","6","57351","0.0-6.0","null","<br><br><br><br><p><img src='run_exp/static/images/blue_win.png' height='500'></p>","null","","","","","","","","","","","","","","","","","","",""
"","html-keyboard-response","7","59066","0.0-7.0","1712.3400000855327","<br><br><br><br><p><img src='run_exp/static/images/blue.png' height='500'></p>","49","","","","","","","","","","","","","","","","","","",""
"","html-keyboard-response","8","60572","0.0-8.0","null","<br><br><br><br><p><img src='run_exp/static/images/blue_win.png' height='500'></p>","null","","","","","","","","","","","","","","","","","","",""
"","html-keyboard-response","9","61083","0.0-9.0","508.9199999347329","<br><br><br><br><p><img src='run_exp/static/images/blue.png' height='500'></p>","49","","","","","","","","","","","","","","","","","","",""
"","html-keyboard-response","10","62588","0.0-10.0","null","<br><br><br><br><p><img src='run_exp/static/images/blue_win.png' height='500'></p>","null","","","","","","","","","","","","","","","","","","",""
"","html-keyboard-response","11","63500","0.0-11.0","910.0750000216067","<br><br><br><br><p><img src='run_exp/static/images/blue.png' height='500'></p>","49","","","","","","","","","","","","","","","","","","",""
"","html-keyboard-response","12","65007","0.0-12.0","null","<br><br><br><br><p><img src='run_exp/static/images/blue_no_win.png' height='500'></p>","null","","","","","","","","","","","","","","","","","","",""
"","html-keyboard-response","13","67708","0.0-13.0","2698.8250000867993","<br><br><br><br><p><img src='run_exp/static/images/blue.png' height='500'></p>","49","","","","","","","","","","","","","","","","","","",""
"","html-keyboard-response","14","69215","0.0-14.0","null","<br><br><br><br><p><img src='run_exp/static/images/blue_win.png' height='500'></p>","null","","","","","","","","","","","","","","","","","","",""
"","html-keyboard-response","15","69516","0.0-15.0","300.1749999821186","<br><br><br><br><p><img src='run_exp/static/images/blue.png' height='500'></p>","49","","","","","","","","","","","","","","","","","","",""
"","html-keyboard-response","16","71019","0.0-16.0","null","<br><br><br><br><p><img src='run_exp/static/images/blue_win.png' height='500'></p>","null","","","","","","","","","","","","","","","","","","",""
"","html-keyboard-response","17","72356","0.0-17.0","1335.1099998690188","<br><br><br><br><p><img src='run_exp/static/images/blue.png' height='500'></p>","49","","","","","","","","","","","","","","","","","","",""
"","html-keyboard-response","18","73862","0.0-18.0","null","<br><br><br><br><p><img src='run_exp/static/images/blue_win.png' height='500'></p>","null","","","","","","","","","","","","","","","","","","",""
"","html-keyboard-response","19","75415","0.0-19.0","1551.6250000800937","<br><br><br><br><p><img src='run_exp/static/images/blue.png' height='500'></p>","49","","","","","","","","","","","","","","","","","","",""
"","html-keyboard-response","20","76921","0.0-20.0","null","<br><br><br><br><p><img src='run_exp/static/images/blue_no_win.png' height='500'></p>","null","","","","","","","","","","","","","","","","","","",""
"","html-keyboard-response","21","80574","0.0-21.0","3650.419999845326","<br><br><br><br><p><img src='run_exp/static/images/blue.png' height='500'></p>","49","","","","","","","","","","","","","","","","","","",""
"","html-keyboard-response","22","82078","0.0-22.0","null","<br><br><br><br><p><img src='run_exp/static/images/blue_win.png' height='500'></p>","null","","","","","","","","","","","","","","","","","","",""
"","html-keyboard-response","23","83313","0.0-23.0","1234.0450000483543","<br><br><br><br><p><img src='run_exp/static/images/blue.png' height='500'></p>","49","","","","","","","","","","","","","","","","","","",""
"","html-keyboard-response","24","84819","0.0-24.0","null","<br><br><br><br><p><img src='run_exp/static/images/blue_win.png' height='500'></p>","null","","","","","","","","","","","","","","","","","","",""
"","html-keyboard-response","25","88766","0.0-25.0","3944.9599999934435","<div class='center'><p> See, he was successful at robbing the ships most of the time but not every time. </p><p><b>[Press the space bar to continue]</b></p></div>","32","","","","","","","","","","","","","","","","","","",""
"","html-keyboard-response","26","93735","0.0-26.0","4967.854999937117","<div class='center'><p>In the game, you will get to choose which of three pirates you want to rob the next ship. <p>Press the <b>‘1’</b> button on your keyboard to pick the pirate with the red beard.</p><p> Press <b>‘2’</b> to pick the pirate with the white beard.</p><p> Press <b>‘3’</b> to pick the pirate with the black beard.</p><p>Try picking a pirate now!</p><p><img src='run_exp/static/images/all_pirates.png' height='500'></p></div>","50","","","","","","","","","","","","","","","","","","",""
"","html-keyboard-response","27","96364","0.0-27.0-0.0","2625.3249999135733","<div class='center'><p>This pirate was successful at robbing the ship!</p><p><img src='run_exp/static/images/white_win.png' height='500'></p><p><b>[Press the space bar to continue]</b></p></div>","32","","","","","","","","","","","","","","","","","","",""
"","html-keyboard-response","28","97617","0.0-27.0-1.0","1251.7600001301616","<div class='center'><p>Now try choosing another</p><p><img src='run_exp/static/images/all_pirates.png' height='500'></p></div>","51","","","","","","","","","","","","","","","","","","",""
"","html-keyboard-response","29","98944","0.0-28.0-0.0","1325.1950000412762","<div class='center'><p>This pirate was not successful at robbing the ship!</p><p><img src='run_exp/static/images/black_no_win.png' height='500'></p><p><b>[Press the space bar to continue]</b></p></div>","32","","","","","","","","","","","","","","","","","","",""
"","html-keyboard-response","30","103566","0.0-29.0-0.0","4620.864999946207","<div class='center'><p>You’ll stop at these 6 places on your journey.</p><p><img src='run_exp/static/images/all_contexts.png' height='500'></p><p><b>[Press the space bar to continue]</b></p></div>","32","","","","","","","","","","","","","","","","","","",""
"","html-keyboard-response","31","119056","0.0-29.0-1.0","15488.649999955669","<div class='center'><p>How good a pirate is at robbing ships will depend on the current place.</p><p> Some pirates will have been to the place before, and will have more experience robbing ships there.</p><p>So, they will be more successful at stealing gold and bringing it back to you.</p><p><b>[Press the space bar to continue]</b></p></div>","32","","","","","","","","","","","","","","","","","","",""
"","html-keyboard-response","32","131392","0.0-29.0-2.0","12334.98500008136","<div class='center'><p>How successful a pirate is at robbing ships can also change in a place.<p> Ships may hear about the pirates coming and will improve their defenses. This may make it more difficult to rob them.</p><p> Ships may also grow lazy and lower their defenses. This may make it easier to rob them.</p><br><p>Things are always changing on the high seas! So, try your best to pay attention!</p><p><img src='run_exp/static/images/contingency.png' height='500'></p><p><b>[Press the space bar to continue]</b></p></div>","32","","","","","","","","","","","","","","","","","","",""
"","html-keyboard-response","33","156170","0.0-29.0-3.0","24777.725000167266","<div class='center'><p>Once you choose a pirate to rob a ship, you’ll be shown the ship they are robbing.</p><p>The ship will have a picture of the item they sold at the marketplace.</p><p> Try your best to remember the ship and where you saw the ship.</p><p> You’ll have to remember this for later, and remembering this correctly will help you win more bonus money!</p><p>You can remember the ship by remembering the item they sold at the marketplace</p><p>A helpful strategy is to try to come up with a story of the chosen pirate and ship’s item interacting with the scene.</p><p> For example, a ship might have sold travel mugs and you could imagine red beard walking through the city with a travel mug. </p><p>Or imagine an apple falling from a tree into white beard's hands in the forest.</p><p><img src='run_exp/static/images/example_probe.png' height='500'></p><p><b>[Press the space bar to continue]</b></p></div>","32","","","","","","","","","","","","","","","","","","",""
"","html-keyboard-response","34","162434","0.0-29.0-4.0","6263.0700001027435","<div class='center'><p>If you don’t make your choice fast enough, you’ll have to wait a few seconds before you can make another one. </p><p>You can’t win more gold. You just have to sit and wait.</p><p><img src='run_exp/static/images/hurry_up.png' height='500'></p><p><b>[Press the space bar to continue]</b></p></div>","32","","","","","","","","","","","","","","","","","","",""
"","html-keyboard-response","35","212631","0.0-29.0-5.0","50194.95499995537","<div class='center'><p>Again, you have two important things to do: </p><b><p> 1. Pick the pirate who you think will be most successful at robbing the next ship.</p></b><b><p> 2. Remember where a pirate robbed a ship.</p> </b><p>Both are important in determining how much bonus money you’ll win.</p><br><p>Let’s try a practice game. The game will start by showing you the pirates. First pick a pirate using the <b> 1, 2, 3 </b> buttons on your keyboard. When you are shown a ship, try to remember the place you’re in by making up a story.</p><p> You only have 3 seconds to pick a pirate, so please make a choice quickly! If you are too slow, you’ll have to wait a bit during the time out.</p><p> Don’t feel rushed, but please do try to make a choice every time.</p><p>How good a pirate is at robbing a ship will change depending on the place they are in and how good the defenses are of the ship.</p> <p>This is just a practice game, so you’re not playing for money. </p><p>You’ll receive a bag which may or may not contain gold coins.</p><p> In the real game, though, you’ll be able to see whether or not you received the gold coins.</p><p> Good luck, remember press <b>'1'</b> to choose red beard, <b>'2'</b> to choose white beard, and <b>'3'</b> to choose black beard</p><p><b>[Press the space bar to begin the practice game]</b></p></div>","32","","","","","","","","","","","","","","","","","","",""
"","do_trial_prac","36","219225","0.0-29.0-6.0","2075.9900000412017","","","","51","","","","","","","","","","","","","","","","",""
"","do_trial_prac","37","225759","0.0-29.0-7.0","2023.0549999978393","","","","50","","","","","","","","","","","","","","","","",""
"","do_trial_prac","38","232206","0.0-29.0-8.0","1935.0950000807643","","","","49","","","","","","","","","","","","","","","","",""
"","do_trial_prac","39","238630","0.0-29.0-9.0","1914.3000000622123","","","","51","","","","","","","","","","","","","","","","",""
"","do_trial_prac","40","245072","0.0-29.0-10.0","1929.56000007689","","","","50","","","","","","","","","","","","","","","","",""
"","html-keyboard-response","41","250878","0.0-29.0-11.0","5804.745000088587","<div class='center'><p>Great job on the practice game!</p><p> Now, you will be asked you some true or false questions to make sure you really understand the rules of the game.</p><p> Press <b>'1'</b> on the keyboard for true and press <b>'2'</b> for false.</p><p><b>[Press the space bar to begin the quiz]</b></p></div>","32","","","","","","","","","","","","","","","","","","",""
"","html-keyboard-response","42","255757","0.0-29.0-12.0","4877.7749999426305","<div class='center'><p>You win bonus money by making choices as fast as possible.</p><p>Press 1 for true and press  2 for false.</p></div>","50","","","","","","","","","","","","","","","","","","",""
"","html-keyboard-response","43","257366","0.0-30.0-0.0","1607.1349999401718","<br><br><br><br><p>That's correct!</p> <p><b>[press the space bar to continue with the quiz]</b></p>","32","","","","","","","","","","","","","","","","","","",""
"","html-keyboard-response","44","263197","0.0-30.0-1.0","5830.485000042245","<div class='center'><p>You press the <b>‘3’</b> button on the keyboard to choose the red bearded pirate? </p><p>Press 1 for true and press  2 for false.</p></div>","50","","","","","","","","","","","","","","","","","","",""
"","html-keyboard-response","45","265194","0.0-31.0-0.0","1995.534999994561","<br><br><br><br><p>That's correct!</p> <p><b>[press the space bar to continue with the quiz]</b></p>","32","","","","","","","","","","","","","","","","","","",""
"","html-keyboard-response","46","269270","0.0-31.0-1.0","4075.470000039786","<div class='center'><p>A pirate will always be equally successful at robbing ships in each place</p><p>Press 1 for true and press  2 for false.</p></div>","50","","","","","","","","","","","","","","","","","","",""
"","html-keyboard-response","47","270288","0.0-32.0-0.0","1016.2049999926239","<br><br><br><br><p>That's correct!</p> <p><b>[press the space bar to continue with the quiz]</b></p>","32","","","","","","","","","","","","","","","","","","",""
"","html-keyboard-response","48","272888","0.0-32.0-1.0","2599.6099999174476","<div class='center'><p>You should remember the place where a pirate robbed a ship.</p><p>Press 1 for true and press  2 for false.</p></div>","49","","","","","","","","","","","","","","","","","","",""
"","html-keyboard-response","49","273654","0.0-33.0-0.0","754.3649999424815","<br><br><br><br><p>That's correct!</p> <p><b>[press the space bar to continue with the quiz]</b></p>","32","","","","","","","","","","","","","","","","","","",""
"","html-keyboard-response","50","278081","0.0-34.0-0.0","4424.399999901652","<br><br><br><br><p>Good job! You’re now ready to move on to the real game!</p> <p><br>[press the space bar to begin!]</br></p>","32","","","","","","","","","","","","","","","","","","",""
"","do_welcome","51","279589","0.0-35.0-0.0","null","","","","null","","","","","","","","","","","","","","","","",""
"","do_trial","52","285349","0.0-36.0-0.0","1206.6699999850243","","","","50","1,0,0","0","coast","0","probe-69","1","0.4","0.1","0","","","","","","","",""
"","do_trial","53","291107","0.0-37.0-0.0","1203.8699998520315","","","","49","1,1,0","0","coast","1","probe-22","1","0.6034791910671085","0.08447400860158831","1","","","","","","","",""
"","do_trial","54","297497","0.0-38.0-0.0","1837.44000014849","","","","51","1,1,0","0","coast","2","probe-239","1","0.5827389882313708","0.0909408463374852","0","","","","","","","",""
"","do_trial","55","304891","0.0-39.0-0.0","2843.0399999488145","","","","49","1,0,0","0","coast","3","probe-02","1","0.3786049065251303","0.09797220793496106","1","","","","","","","",""
"","do_trial","56","311965","0.0-40.0-0.0","2521.3299999013543","","","","50","1,0,0","0","coast","4","probe-191","0.8754267457743875","0.4005181184199124","0.10710266309868288","0","","","","","","","",""
"","do_trial","57","316910","0.0-41.0-0.0","392.7850001491606","","","","49","1,1,0","0","coast","5","probe-135","0.8248601399795665","0.3731626582103095","0.15340393603066088","1","","","","","","","",""
"","do_trial","58","322435","0.0-42.0-0.0","977.1650000475347","","","","49","0,0,0","0","coast","6","probe-124","0.7227052417976835","0.3886150239183385","0.15338083436674085","0","","","","","","","",""
"","do_trial","59","327411","0.0-43.0-0.0","428.46999992616475","","","","51","1,0,0","0","coast","7","probe-133","0.6072087488445743","0.46782410023854964","0.09431150790969561","0","","","","","","","",""
"","do_trial","60","333118","0.0-44.0-0.0","1155.6500000879169","","","","51","0,0,1","0","coast","8","probe-201","0.5321284768848858","0.30939714098449445","0.11315186449196674","1","","","","","","","",""
"","do_trial","61","339173","0.0-45.0-0.0","null","","","","null","0,1,0","0","coast","9","probe-20","0.6069188604985574","0.4110651982877971","0.1496548096408833","","","","","","","","",""
"","do_trial","62","344537","0.0-46.0-0.0","810.9299999196082","","","","50","0,1,0","0","coast","10","probe-167","0.5361207869990109","0.2834570391295616","0.27188272559732063","1","","","","","","","",""
"","do_trial","63","350013","0.0-47.0-0.0","925.5250000860542","","","","50","0,1,0","0","coast","11","probe-227","0.5050034954249699","0.359637491095382","0.4411512020984815","1","","","","","","","",""
"","do_trial","64","355241","0.0-48.0-0.0","677.265000063926","","","","49","1,0,1","0","coast","12","probe-194","0.3222739946351639","0.2694820937272235","0.551505965289466","1","","","","","","","",""
"","do_trial","65","360631","0.0-49.0-0.0","840.5500000808388","","","","49","0,1,1","0","coast","13","probe-89","0.38887419207628504","0.2616419294885443","0.49148936300468793","0","","","","","","","",""
"","do_trial","66","365512","0.0-50.0-0.0","327.53499993123114","","","","50","0,0,0","0","coast","14","probe-53","0.33366257321866166","0.12547222568396726","0.3740867760993609","0","","","","","","","",""
"","do_trial","67","370365","0.0-51.0-0.0","301.5799999702722","","","","51","0,1,0","0","coast","15","probe-185","0.3106940897448843","0.39580859247175254","0.5506060348729463","0","","","","","","","",""
"","do_trial","68","375383","0.0-52.0-0.0","464.96000001206994","","","","51","0,1,0","0","coast","16","probe-164","0.20768403101271957","0.3364005218863782","0.6643235939673486","0","","","","","","","",""
"","do_trial","69","380591","0.0-53.0-0.0","656.2550000380725","","","","49","0,0,1","0","coast","17","probe-60","0.38599222603142586","0.34198750112939297","0.7032930204565047","0","","","","","","","",""
"","do_trial","70","386642","0.0-54.0-0.0","null","","","","null","0,1,0","0","coast","18","probe-187","0.39915759818150454","0.2926964804396385","0.6689206879032651","","","","","","","","",""
"","do_trial","71","391612","0.0-55.0-0.0","422.275000018999","","","","50","0,0,0","0","coast","19","probe-238","0.3172677682420056","0.13918476533362178","0.6999360396031261","0","","","","","","","",""
"","do_trial","72","396565","0.0-56.0-0.0","403.30500015988946","","","","49","0,0,0","0","coast","20","probe-115","0.2763479429706505","0.10207686562223754","0.6053960787504201","0","","","","","","","",""
"","do_trial","73","402389","0.0-57.0-0.0","1274.6399999596179","","","","50","1,0,1","0","coast","21","probe-12","0.2728347204459981","0.10974010439083276","0.7706788355360493","0","","","","","","","",""
"","do_trial","74","407419","0.0-58.0-0.0","481.0500000603497","","","","51","0,0,1","0","coast","22","probe-226","0.33838114160878824","0.07462020245432373","0.7949835134420836","1","","","","","","","",""
"","do_trial","75","414086","0.0-59.0-0.0","2116.755000082776","","","","49","1,0,0","0","coast","23","probe-88","0.31058527292110816","0.1919836327686258","0.7741723073760879","1","","","","","","","",""
"","do_trial","76","419625","0.0-60.0-0.0","987.1399998664856","","","","49","1,0,1","0","coast","24","probe-122","0.2990519587563813","0.11809874619947681","0.8144721509548026","1","","","","","","","",""
"","do_trial","77","425091","0.0-61.0-0.0","914.7950001060963","","","","49","1,0,0","0","coast","25","probe-151","0.2708547219513629","0.11018339455455882","0.8416047746146933","1","","","","","","","",""
"","do_trial","78","432043","0.0-62.0-0.0","2404.229999985546","","","","49","0,0,1","0","coast","26","probe-82","0.2903006643245358","0.20101112894165318","0.8571992248646098","0","","","","","","","",""
"","do_trial","79","437907","0.0-63.0-0.0","1315.3550000861287","","","","50","0,0,1","0","coast","27","probe-131","0.33911277357655595","0.053112165699351926","0.8347668638833443","0","","","","","","","",""
"","do_trial","80","444115","0.0-64.0-0.0","1655.5900000967085","","","","49","1,0,1","0","coast","28","probe-211","0.3783636754112421","0.1119247893787177","0.8855015535317938","1","","","","","","","",""
"","do_trial","81","449580","0.0-65.0-0.0","912.1450001839548","","","","51","0,0,1","0","coast","29","probe-233","0.34569785739729886","0.11704511610182453","0.8951530787341602","1","","","","","","","",""
"","do_trial","82","455634","0.0-66.0-0.0","null","","","","null","1,0,0","0","coast","30","probe-141","0.3566959136466752","0.12263710535988208","0.790995262477269","","","","","","","","",""
"","do_trial","83","463005","0.0-67.0-0.0","2821.0950000211596","","","","49","1,0,1","0","coast","31","probe-128","0.45576638428790034","0.15981950329433328","0.8451171548958344","1","","","","","","","",""
"","do_trial","84","468709","0.0-68.0-0.0","1153.8799998816103","","","","49","1,0,1","0","coast","32","probe-23","0.4102980161572863","0.08218058249697449","0.8801910674222682","1","","","","","","","",""
"","do_trial","85","474409","0.0-69.0-0.0","1148.0199999641627","","","","49","0,0,1","0","coast","33","probe-70","0.3434588342624835","0.19453379258557932","0.7252888456906569","0","","","","","","","",""
"","do_trial","86","479878","0.0-70.0-0.0","918.3549999725074","","","","49","0,0,1","0","coast","34","probe-86","0.36767041489917274","0.20717941226214046","0.6303796470503346","0","","","","","","","",""
"","do_trial","87","485082","0.0-71.0-0.0","652.8950000647455","","","","50","0,0,1","0","coast","35","probe-36","0.3496588925367709","0.201977243507164","0.6628397845832531","0","","","","","","","",""
"","do_trial","88","490680","0.0-72.0-0.0","1053.7400001194328","","","","50","1,0,1","0","coast","36","probe-138","0.3996270380513866","0.05816340734049062","0.8634410884735961","0","","","","","","","",""
"","do_trial","89","495613","0.0-73.0-0.0","381.82000000961125","","","","49","0,0,0","0","coast","37","probe-204","0.42784900972591766","0.076594154018367","0.842921299606998","0","","","","","","","",""
"","do_trial","90","500716","0.0-74.0-0.0","555.5600000079721","","","","49","0,0,1","0","coast","38","probe-103","0.5162957885390697","0.1550274039297294","0.9293387175921263","0","","","","","","","",""
"","do_trial","91","506590","0.0-75.0-0.0","1325.8599999826401","","","","51","1,0,1","0","coast","39","probe-162","0.5585103226793703","0.24578866193970605","0.8447950542902607","1","","","","","","","",""
"","do_bye","92","508099","0.0-76.0-0.0","null","","","","null","","","","","","","","","","","","","","","","",""
"","do_travel","93","514103","0.0-77.0-0.0","null","","","","null","","","","","","","","","","","","","","","","",""
"","do_welcome","94","515611","0.0-77.0-1.0","null","","","","null","","","","","","","","","","","","","","","","",""
"","do_trial","95","522478","0.0-78.0-0.0","2316.744999960065","","","","49","1,1,1","1","forest","40","probe-183","0.42511296738254317","0.3461312338830917","1","1","","","","","","","",""
"","do_trial","96","528000","0.0-79.0-0.0","970.2699999324977","","","","49","0,0,1","1","forest","41","probe-27","0.38707526042102414","0.3308420519599642","1","0","","","","","","","",""
"","do_trial","97","532934","0.0-80.0-0.0","385.4400001000613","","","","50","1,0,1","1","forest","42","probe-160","0.382833398438652","0.30406019451360405","1","0","","","","","","","",""
"","do_trial","98","538435","0.0-81.0-0.0","952.3050000425428","","","","50","0,0,1","1","forest","43","probe-33","0.40023443166757394","0.18403987637494804","1","0","","","","","","","",""
"","do_trial","99","543241","0.0-82.0-0.0","253.69499996304512","","","","51","0,0,1","1","forest","44","probe-220","0.5106149469228048","0.17222974986641745","0.8103233457015169","1","","","","","","","",""
"","do_trial","100","548152","0.0-83.0-0.0","361.51000019162893","","","","51","1,1,1","1","forest","45","probe-214","0.4211269010090425","0.19879105645080133","0.8125086537994868","1","","","","","","","",""
"","do_trial","101","554091","0.0-84.0-0.0","1390.1049999985844","","","","51","0,0,1","1","forest","46","probe-85","0.47643506735881774","0.09521916286522256","0.8443930199712967","1","","","","","","","",""
"","do_trial","102","559111","0.0-85.0-0.0","468.67000008933246","","","","51","1,0,1","1","forest","47","probe-21","0.46731928639256803","0.15446958468700053","0.8140155645221449","1","","","","","","","",""
"","do_trial","103","564630","0.0-86.0-0.0","971.2449999060482","","","","51","1,0,1","1","forest","48","probe-209","0.39443986433137546","0.053664628404478006","0.8493720988994885","1","","","","","","","",""
"","do_trial","104","570684","0.0-87.0-0.0","null","","","","null","1,0,1","1","forest","49","probe-172","0.46576877003269745","0.12617413400134392","0.8453512191677843","","","","","","","","",""
"","do_trial","105","575696","0.0-88.0-0.0","463.43500004149973","","","","51","1,0,1","1","forest","50","probe-05","0.7053350608113721","0.06707293925691897","0.5626445360435918","1","","","","","","","",""
"","do_trial","106","581295","0.0-89.0-0.0","1050.370000069961","","","","51","1,0,1","1","forest","51","probe-110","0.8818303002993213","0.1270267153651828","0.43358892326125753","1","","","","","","","",""
"","do_trial","107","587584","0.0-90.0-0.0","1735.9850001521409","","","","51","1,0,0","1","forest","52","probe-91","0.8472950027887908","0.14449343349796062","0.3628828278814526","0","","","","","","","",""
"","do_trial","108","593214","0.0-91.0-0.0","1081.430000020191","","","","51","1,0,0","1","forest","53","probe-75","0.8683304788116967","0.11050366469176112","0.3093505045492735","0","","","","","","","",""
"","do_trial","109","599265","0.0-92.0-0.0","null","","","","null","1,1,0","1","forest","54","probe-58","0.8149472170290674","0.12092176627427513","0.340453034335723","","","","","","","","",""
"","do_trial","110","604153","0.0-93.0-0.0","339.78500007651746","","","","51","1,0,0","1","forest","55","probe-118","0.6951139678802554","0.07860016128874403","0.48939259034766436","0","","","","","","","",""
"","do_trial","111","609115","0.0-94.0-0.0","411.7850000038743","","","","49","0,0,1","1","forest","56","probe-190","0.8241774485199702","0.15403833720194912","0.4336779965395872","0","","","","","","","",""
"","do_trial","112","614088","0.0-95.0-0.0","421.17500002495944","","","","51","1,0,1","1","forest","57","probe-224","0.8248618850479494","0.08864092061405453","0.3258139400065651","1","","","","","","","",""
"","do_trial","113","621028","0.0-96.0-0.0","2387.620000168681","","","","51","0,0,1","1","forest","58","probe-09","0.8648384953832704","0.16999273542341647","0.2954785012886232","1","","","","","","","",""
"","do_trial","114","626653","0.0-97.0-0.0","1075.470000039786","","","","51","1,0,1","1","forest","59","probe-221","0.7642549506107699","0.06503476347746051","0.37744642983067545","1","","","","","","","",""
"","do_trial","115","633620","0.0-98.0-0.0","2419.80000003241","","","","51","1,0,0","1","forest","60","probe-225","0.730094851737653","0.14785692424905467","0.39855990594723784","0","","","","","","","",""
"","do_trial","116","639552","0.0-99.0-0.0","1383.834999985993","","","","51","1,1,0","1","forest","61","probe-100","0.8825400067521012","0.07342059852066425","0.34336610704379583","0","","","","","","","",""
"","do_trial","117","645103","0.0-100.0-0.0","1003.8749999366701","","","","51","1,0,0","1","forest","62","probe-231","0.9046185997922715","0.10731464121954302","0.29702326505379417","0","","","","","","","",""
"","do_trial","118","650069","0.0-101.0-0.0","414.8150000255555","","","","51","0,0,0","1","forest","63","probe-123","0.809009478519554","0.1628842464329461","0.3789846448604244","0","","","","","","","",""
"","do_trial","119","654975","0.0-102.0-0.0","355.2149999886751","","","","49","1,0,0","1","forest","64","probe-56","0.9446366273443522","0.05321727933980862","0.46076242114139626","1","","","","","","","",""
"","do_trial","120","660002","0.0-103.0-0.0","479.65500014834106","","","","51","1,0,0","1","forest","65","probe-102","0.8328332727503118","0.09599631944295149","0.5109032206809044","0","","","","","","","",""
"","do_trial","121","665094","0.0-104.0-0.0","542.2050000634044","","","","49","1,0,0","1","forest","66","probe-217","0.7579488882704974","0.14898190282203996","0.5183429694003396","1","","","","","","","",""
"","do_trial","122","670476","0.0-105.0-0.0","831.7249999381602","","","","49","1,0,0","1","forest","67","probe-199","0.7499366273675913","0.21876544622210312","0.5032546753744971","1","","","","","","","",""
"","do_trial","123","675652","0.0-106.0-0.0","626.9749999046326","","","","49","1,0,1","1","forest","68","probe-207","0.9358384336340041","0.14273254926745324","0.5734590109214296","1","","","","","","","",""
"","do_trial","124","680626","0.0-107.0-0.0","426.43500003032386","","","","49","0,0,0","1","forest","69","probe-51","0.864608863033808","0.13521722589476334","0.3845524500209131","0","","","","","","","",""
"","do_trial","125","685528","0.0-108.0-0.0","366.32000003010035","","","","51","1,0,0","1","forest","70","probe-34","0.8364981039381355","0.08040978358345421","0.44245624314560644","0","","","","","","","",""
"","do_trial","126","690386","0.0-109.0-0.0","307.1050001308322","","","","51","1,0,0","1","forest","71","probe-130","0.6526992132386082","0.07058669883568035","0.4288309955340835","0","","","","","","","",""
"","do_trial","127","695258","0.0-110.0-0.0","319.21999994665384","","","","49","0,0,0","1","forest","72","probe-173","0.662110731128015","0.10495840929378375","0.402620147467779","0","","","","","","","",""
"","do_trial","128","700305","0.0-111.0-0.0","498.20499983616173","","","","50","0,0,0","1","forest","73","probe-101","0.6882538292142628","0.06458794289066841","0.354683677054553","0","","","","","","","",""
"","do_trial","129","705170","0.0-112.0-0.0","315.195000031963","","","","49","0,0,0","1","forest","74","probe-73","0.7432635078785407","0.17220751458439676","0.3541036271285607","0","","","","","","","",""
"","do_trial","130","710446","0.0-113.0-0.0","728.7500000093132","","","","51","1,1,1","1","forest","75","probe-46","0.7906330375197231","0.19667180562281547","0.2813130423419846","1","","","","","","","",""
"","do_trial","131","715547","0.0-114.0-0.0","554.2500000447035","","","","51","1,1,0","1","forest","76","probe-127","0.778986409985495","0.20982368787932104","0.23613289340771318","0","","","","","","","",""
"","do_trial","132","721138","0.0-115.0-0.0","1042.9699998348951","","","","51","1,0,1","1","forest","77","probe-03","0.7778223386288096","0.07163659962971447","0.36125193786983395","1","","","","","","","",""
"","do_trial","133","727189","0.0-116.0-0.0","null","","","","null","1,0,1","1","forest","78","probe-136","0.9027218164583289","0.20639700055819155","0.47190718886341143","","","","","","","","",""
"","do_trial","134","733526","0.0-117.0-0.0","1789.4000001251698","","","","51","1,0,0","1","forest","79","probe-159","0.8975354888305799","0.1597329575422641","0.4636626812727897","0","","","","","","","",""
"","do_bye","135","735035","0.0-118.0-0.0","null","","","","null","","","","","","","","","","","","","","","","",""
"","do_travel","136","741043","0.0-119.0-0.0","null","","","","null","","","","","","","","","","","","","","","","",""
"","do_welcome","137","742548","0.0-119.0-1.0","null","","","","null","","","","","","","","","","","","","","","","",""
"","do_trial","138","748149","0.0-120.0-0.0","1050.5300001241267","","","","50","1,0,0","2","mountain","80","probe-11","1","0.1458195425765316","0.4347795467812917","0","","","","","","","",""
"","do_trial","139","753026","0.0-121.0-0.0","327.56999996490777","","","","50","1,0,0","2","mountain","81","probe-212","1","0.13897926634877655","0.3798837884172027","0","","","","","","","",""
"","do_trial","140","757927","0.0-122.0-0.0","348.035000031814","","","","49","1,1,0","2","mountain","82","probe-237","1","0.07413227333559105","0.4430996942982124","1","","","","","","","",""
"","do_trial","141","763031","0.0-123.0-0.0","556.7399999126792","","","","49","1,0,0","2","mountain","83","probe-41","1","0.10211447322790668","0.43098195645687154","1","","","","","","","",""
"","do_trial","142","768142","0.0-124.0-0.0","560.9149998053908","","","","49","1,0,0","2","mountain","84","probe-17","0.8538917017751609","0.1179307456587482","0.20849665363548187","1","","","","","","","",""
"","do_trial","143","773212","0.0-125.0-0.0","518.0250001139939","","","","51","1,0,1","2","mountain","85","probe-108","0.9258445630647385","0.15306234643567684","0.3505351833257446","1","","","","","","","",""
"","do_trial","144","778110","0.0-126.0-0.0","344.95499986223876","","","","51","1,0,0","2","mountain","86","probe-218","0.8009700040327272","0.14917538788418994","0.3258268349587802","0","","","","","","","",""
"","do_trial","145","783384","0.0-127.0-0.0","725.014999974519","","","","49","0,1,1","2","mountain","87","probe-99","0.7271899982228286","0.19016549784689615","0.3239950338405832","0","","","","","","","",""
"","do_trial","146","788319","0.0-128.0-0.0","383.3349999040365","","","","50","1,0,1","2","mountain","88","probe-179","0.697118919698692","0.11362748322708115","0.43490605512420893","0","","","","","","","",""
"","do_trial","147","793939","0.0-129.0-0.0","1068.0450000800192","","","","49","1,0,1","2","mountain","89","probe-157","0.7897183256921405","0.09049404373302265","0.5760491006922344","1","","","","","","","",""
"","do_trial","148","800664","0.0-130.0-0.0","2175.730000017211","","","","49","0,0,0","2","mountain","90","probe-216","0.5396410482647614","0.22879290430902388","0.7083136319961199","0","","","","","","","",""
"","do_trial","149","805452","0.0-131.0-0.0","237.08499991334975","","","","51","1,0,1","2","mountain","91","probe-87","0.4350783494662878","0.2584981518245358","0.625639043799522","1","","","","","","","",""
"","do_trial","150","811853","0.0-132.0-0.0","1848.3700000215322","","","","51","0,0,0","2","mountain","92","probe-132","0.33344689749881384","0.2627483976113381","0.49343445532475316","0","","","","","","","",""
"","do_trial","151","818001","0.0-133.0-0.0","1600.5349999759346","","","","49","0,0,1","2","mountain","93","probe-81","0.14258353089535913","0.2248928282149103","0.569433617202575","0","","","","","","","",""
"","do_trial","152","822848","0.0-134.0-0.0","294.87999994307756","","","","51","0,1,0","2","mountain","94","probe-83","0.09172131253578192","0.26601564094347424","0.6185041491209262","0","","","","","","","",""
"","do_trial","153","828597","0.0-135.0-0.0","1199.0149999037385","","","","51","0,0,0","2","mountain","95","probe-219","0.27409270393326335","0.29385294580856214","0.8461612429672447","0","","","","","","","",""
"","do_trial","154","833808","0.0-136.0-0.0","671.8850000761449","","","","49","0,1,1","2","mountain","96","probe-168","0.19175094750578656","0.11009881452646958","0.7067043485167323","0","","","","","","","",""
"","do_trial","155","838968","0.0-137.0-0.0","608.3700000308454","","","","49","0,1,1","2","mountain","97","probe-134","0.23043488041632532","0.2489317052357949","0.7224493226787426","0","","","","","","","",""
"","do_trial","156","844112","0.0-138.0-0.0","592.960000038147","","","","49","0,0,1","2","mountain","98","probe-10","0.24319811265995284","0.29903887447585814","0.746532301874165","0","","","","","","","",""
"","do_trial","157","849268","0.0-139.0-0.0","606.425000121817","","","","51","0,0,1","2","mountain","99","probe-235","0.255094130103682","0.38559973462915986","0.8398344013027506","1","","","","","","","",""
"","do_trial","158","854554","0.0-140.0-0.0","737.5699998810887","","","","51","0,1,1","2","mountain","100","probe-79","0.30978567688362524","0.32025872256071397","0.8968385367935054","1","","","","","","","",""
"","do_trial","159","859524","0.0-141.0-0.0","417.37499996088445","","","","51","1,0,0","2","mountain","101","probe-90","0.23540181674913782","0.3882440524091006","0.6822476082641237","0","","","","","","","",""
"","do_trial","160","864420","0.0-142.0-0.0","344.3649997934699","","","","49","0,0,1","2","mountain","102","probe-24","0.1928292750930405","0.39957873048509535","0.8786566587687769","0","","","","","","","",""
"","do_trial","161","869282","0.0-143.0-0.0","309.17000002227724","","","","50","0,1,0","2","mountain","103","probe-84","0.23558639534057726","0.48543126153215055","0.7541324655293433","1","","","","","","","",""
"","do_trial","162","874142","0.0-144.0-0.0","307.62499989941716","","","","50","1,1,1","2","mountain","104","probe-16","0.08120599411591287","0.41142163273362115","0.9067364024524369","1","","","","","","","",""
"","do_trial","163","879047","0.0-145.0-0.0","353.01999980583787","","","","50","0,1,0","2","mountain","105","probe-150","0.06008763583831584","0.48019862949837183","0.8971138648779475","1","","","","","","","",""
"","do_trial","164","883964","0.0-146.0-0.0","364.16500015184283","","","","50","0,0,1","2","mountain","106","probe-19","0.0922080883400735","0.361921420522405","0.7671272404663384","0","","","","","","","",""
"","do_trial","165","889469","0.0-147.0-0.0","954.7449999954551","","","","51","0,1,0","2","mountain","107","probe-44","0.08691018672814287","0.40573010149368927","0.7908874801478513","0","","","","","","","",""
"","do_trial","166","896839","0.0-148.0-0.0","2820.1399999670684","","","","49","0,1,1","2","mountain","108","probe-153","0.13535205875778852","0.3630568661383223","0.8395061519444948","0","","","","","","","",""
"","do_trial","167","901762","0.0-149.0-0.0","372.73999978788197","","","","49","0,0,1","2","mountain","109","probe-54","0.060213570404455075","0.480800491911072","0.8284770318534428","0","","","","","","","",""
"","do_trial","168","906592","0.0-150.0-0.0","277.2450000047684","","","","51","0,0,1","2","mountain","110","probe-49","0.12152336291355863","0.46752282210562796","0.7239166776270165","1","","","","","","","",""
"","do_trial","169","912377","0.0-151.0-0.0","1231.5799999050796","","","","51","0,0,0","2","mountain","111","probe-113","0.06363613986977254","0.3873762529889868","0.6635978671465582","0","","","","","","","",""
"","do_trial","170","917213","0.0-152.0-0.0","287.06500004045665","","","","50","0,0,0","2","mountain","112","probe-236","0.14908467533058048","0.41656763495050914","0.6469544121076691","0","","","","","","","",""
"","do_trial","171","922154","0.0-153.0-0.0","391.71500015072525","","","","50","0,1,1","2","mountain","113","probe-169","0.15389894873444485","0.40371693125073427","0.667519827433056","1","","","","","","","",""
"","do_trial","172","926971","0.0-154.0-0.0","268.91999994404614","","","","50","0,0,1","2","mountain","114","probe-198","0.10211414462085756","0.33359099139554765","0.7267470714605547","0","","","","","","","",""
"","do_trial","173","932152","0.0-155.0-0.0","629.6399999409914","","","","49","0,0,1","2","mountain","115","probe-213","0.1311973944320313","0.18028066902453443","0.8693800330603183","0","","","","","","","",""
"","do_trial","174","938515","0.0-156.0-0.0","1811.384999891743","","","","49","0,0,1","2","mountain","116","probe-61","0.07960414222757466","0.19338524379167987","0.8112138295596502","0","","","","","","","",""
"","do_trial","175","945040","0.0-157.0-0.0","1973.8549999892712","","","","50","0,0,1","2","mountain","117","probe-42","0.1386067194304657","0.2241889827985909","0.8168500958916485","0","","","","","","","",""
"","do_trial","176","950508","0.0-158.0-0.0","915.2750000357628","","","","49","0,1,0","2","mountain","118","probe-78","0.16224848650356855","0.35927279081727526","0.8848879788956319","0","","","","","","","",""
"","do_trial","177","955951","0.0-159.0-0.0","896.0100000258535","","","","51","0,0,1","2","mountain","119","probe-171","0.13324405398316524","0.3909841899663086","0.682566668492329","1","","","","","","","",""
"","do_bye","178","957462","0.0-160.0-0.0","null","","","","null","","","","","","","","","","","","","","","","",""
"","do_travel","179","963471","0.0-161.0-0.0","null","","","","null","","","","","","","","","","","","","","","","",""
"","do_welcome","180","964982","0.0-161.0-1.0","null","","","","null","","","","","","","","","","","","","","","","",""
"","do_trial","181","971033","0.0-162.0-0.0","null","","","","null","1,1,1","3","countryside","120","probe-64","0.23059199113087556","0.41501187047350696","1","","","","","","","","",""
"","do_trial","182","976954","0.0-163.0-0.0","1368.1199999991804","","","","49","1,0,1","3","countryside","121","probe-114","0.33095034367019666","0.3093177194329541","1","1","","","","","","","",""
"","do_trial","183","982189","0.0-164.0-0.0","684.574999846518","","","","49","0,0,1","3","countryside","122","probe-01","0.20448886710255842","0.3791085930480697","1","0","","","","","","","",""
"","do_trial","184","987244","0.0-165.0-0.0","506.8250000476837","","","","51","0,0,1","3","countryside","123","probe-107","0.19204756119661126","0.3823837909603322","1","1","","","","","","","",""
"","do_trial","185","992186","0.0-166.0-0.0","393.5999998357147","","","","51","0,1,1","3","countryside","124","probe-230","0.13260612675029732","0.5595890060238174","0.8857025175391577","1","","","","","","","",""
"","do_trial","186","997634","0.0-167.0-0.0","897.3850000184029","","","","50","0,0,0","3","countryside","125","probe-163","0.13917777332054504","0.41656024001596537","0.781250434717049","0","","","","","","","",""
"","do_trial","187","1002705","0.0-168.0-0.0","518.5949997976422","","","","50","0,1,1","3","countryside","126","probe-52","0.18062800274469978","0.4710353588813289","0.743301945870903","1","","","","","","","",""
"","do_trial","188","1008022","0.0-169.0-0.0","763.5400001890957","","","","50","0,1,1","3","countryside","127","probe-145","0.1920282377442684","0.4283847807037195","0.8282654938686002","1","","","","","","","",""
"","do_trial","189","1013280","0.0-170.0-0.0","707.7550000976771","","","","50","0,1,0","3","countryside","128","probe-178","0.2615798904067195","0.39006493438129247","0.716211688352534","1","","","","","","","",""
"","do_trial","190","1018747","0.0-171.0-0.0","916.3200000766665","","","","50","1,0,0","3","countryside","129","probe-180","0.32486316715176244","0.39707007284855733","0.8757245727663555","0","","","","","","","",""
"","do_trial","191","1023817","0.0-172.0-0.0","521.9499999657273","","","","51","1,0,1","3","countryside","130","probe-18","0.4989047683342483","0.30670159296721056","0.750375841091573","1","","","","","","","",""
"","do_trial","192","1028999","0.0-173.0-0.0","633.4049999713898","","","","51","0,0,1","3","countryside","131","probe-106","0.7180955508567947","0.22810220375850696","0.6610293498526832","1","","","","","","","",""
"","do_trial","193","1033981","0.0-174.0-0.0","432.93000012636185","","","","50","0,0,0","3","countryside","132","probe-215","0.7308800896689489","0.23435766292652968","0.6191749668212032","0","","","","","","","",""
"","do_trial","194","1039138","0.0-175.0-0.0","604.2550001293421","","","","51","1,0,1","3","countryside","133","probe-07","0.8164628877941584","0.07607931229765953","0.4689654481975486","1","","","","","","","",""
"","do_trial","195","1045481","0.0-176.0-0.0","1795.7200000528246","","","","51","1,0,1","3","countryside","134","probe-109","0.6971058739327746","0.3655311812368068","0.47168936157132846","1","","","","","","","",""
"","do_trial","196","1051536","0.0-177.0-0.0","null","","","","null","1,0,0","3","countryside","135","probe-140","0.7974814359878053","0.15159085939648326","0.3892741373709089","","","","","","","","",""
"","do_trial","197","1056896","0.0-178.0-0.0","807.9150000121444","","","","51","1,0,0","3","countryside","136","probe-32","0.79220855876053","0.24422895191737146","0.35505146382473024","0","","","","","","","",""
"","do_trial","198","1062197","0.0-179.0-0.0","753.4649998415262","","","","50","1,0,1","3","countryside","137","probe-40","0.6109755531762511","0.12140479244038875","0.3461842258033563","0","","","","","","","",""
"","do_trial","199","1067197","0.0-180.0-0.0","449.67499980702996","","","","51","1,0,0","3","countryside","138","probe-229","0.6900190164305161","0.20560682557606597","0.46720461080061465","0","","","","","","","",""
"","do_trial","200","1072203","0.0-181.0-0.0","453.7199998740107","","","","51","0,1,0","3","countryside","139","probe-66","0.7375413520031904","0.11485978001538225","0.5055457212743736","0","","","","","","","",""
"","do_trial","201","1077304","0.0-182.0-0.0","553.7500001955777","","","","51","0,0,1","3","countryside","140","probe-74","0.815998718577569","0.1089520397282816","0.5508556545357567","1","","","","","","","",""
"","do_trial","202","1082242","0.0-183.0-0.0","385.065000038594","","","","51","1,0,1","3","countryside","141","probe-192","0.7962586078169538","0.13495680996343848","0.5317793200571894","1","","","","","","","",""
"","do_trial","203","1088042","0.0-184.0-0.0","1247.84000008367","","","","51","1,1,0","3","countryside","142","probe-186","0.747726341198618","0.09838151896258202","0.5178214562624466","0","","","","","","","",""
"","do_trial","204","1093280","0.0-185.0-0.0","689.2999999690801","","","","51","1,0,1","3","countryside","143","probe-29","0.8225735000474499","0.10386567721470719","0.38220436169741656","1","","","","","","","",""
"","do_trial","205","1098968","0.0-186.0-0.0","1137.6099998597056","","","","51","1,0,1","3","countryside","144","probe-48","0.7219150101201806","0.0904982939762352","0.42000583301268735","1","","","","","","","",""
"","do_trial","206","1104638","0.0-187.0-0.0","1117.5200000870973","","","","51","0,1,0","3","countryside","145","probe-126","0.7457055249886976","0.15563369766190804","0.3539235112598126","0","","","","","","","",""
"","do_trial","207","1110012","0.0-188.0-0.0","822.1950000151992","","","","51","0,0,0","3","countryside","146","probe-196","0.7277722495687654","0.11548607432553348","0.26640763296880327","0","","","","","","","",""
"","do_trial","208","1114984","0.0-189.0-0.0","419.7400000412017","","","","49","1,0,0","3","countryside","147","probe-98","0.7876728948480276","0.10404911576732499","0.24978365384515308","1","","","","","","","",""
"","do_trial","209","1120736","0.0-190.0-0.0","1203.1300000380725","","","","49","1,0,0","3","countryside","148","probe-08","0.8312818875978321","0.1193886872342723","0.39217642012729087","1","","","","","","","",""
"","do_trial","210","1125829","0.0-191.0-0.0","545.0000001583248","","","","49","1,0,0","3","countryside","149","probe-189","0.8021548655136772","0.19078046715961908","0.5297722654780657","1","","","","","","","",""
"","do_trial","211","1131222","0.0-192.0-0.0","840.5600001569837","","","","49","0,1,1","3","countryside","150","probe-105","0.7632406533021079","0.17549488524851697","0.5189712176895543","0","","","","","","","",""
"","do_trial","212","1136506","0.0-193.0-0.0","732.8999999444932","","","","50","1,0,1","3","countryside","151","probe-112","0.784096724768897","0.10620827463067099","0.40826173341498034","0","","","","","","","",""
"","do_trial","213","1143859","0.0-194.0-0.0","2800.485000014305","","","","50","1,0,1","3","countryside","152","probe-47","0.8209489506069955","0.244946122771234","0.3042199212397289","0","","","","","","","",""
"","do_trial","214","1150210","0.0-195.0-0.0","1801.465000025928","","","","50","1,0,0","3","countryside","153","probe-137","0.7757229747737583","0.13644863258520729","0.20298655184921022","0","","","","","","","",""
"","do_trial","215","1156114","0.0-196.0-0.0","1355.259999865666","","","","51","1,0,1","3","countryside","154","probe-13","0.6221982427599076","0.21489861512642564","0.3098117847881234","1","","","","","","","",""
"","do_trial","216","1161916","0.0-197.0-0.0","1254.2600000742823","","","","51","1,0,0","3","countryside","155","probe-182","0.5572809375736786","0.20842328742280003","0.26339633788398464","0","","","","","","","",""
"","do_trial","217","1166479","0.0-198.0-0.0","11.135000037029386","","","","50","1,0,0","3","countryside","156","probe-195","0.6491895806811323","0.10096681482996057","0.05827698230818232","0","","","","","","","",""
"","do_trial","218","1173893","0.0-199.0-0.0","2861.860000062734","","","","49","0,0,0","3","countryside","157","probe-170","0.6445986441621995","0.12161680830099701","0.20412346202133944","0","","","","","","","",""
"","do_trial","219","1180027","0.0-200.0-0.0","1581.5449999645352","","","","49","1,0,0","3","countryside","158","probe-184","0.7399163728241098","0.09524772526364798","0.2796894369855347","1","","","","","","","",""
"","do_trial","220","1186080","0.0-201.0-0.0","null","","","","null","0,1,0","3","countryside","159","probe-156","0.6075688443375444","0.17308803374716658","0.2869660066555024","","","","","","","","",""
"","do_bye","221","1187592","0.0-202.0-0.0","null","","","","null","","","","","","","","","","","","","","","","",""
"","do_travel","222","1193598","0.0-203.0-0.0","null","","","","null","","","","","","","","","","","","","","","","",""
"","do_welcome","223","1195109","0.0-203.0-1.0","null","","","","null","","","","","","","","","","","","","","","","",""
"","do_trial","224","1201167","0.0-204.0-0.0","null","","","","null","1,0,1","4","city","160","probe-111","1","0.13648790355826795","0.3722228396218062","","","","","","","","",""
"","do_trial","225","1206312","0.0-205.0-0.0","597.7350000757724","","","","50","1,0,1","4","city","161","probe-93","1","0.14103319432949274","0.42038977647584647","0","","","","","","","",""
"","do_trial","226","1211875","0.0-206.0-0.0","1013.2150000426918","","","","51","1,0,1","4","city","162","probe-62","1","0.27951102205408296","0.45578432722801887","1","","","","","","","",""
"","do_trial","227","1218397","0.0-207.0-0.0","1971.970000071451","","","","51","1,0,0","4","city","163","probe-203","1","0.21991430710784904","0.4288929480603482","0","","","","","","","",""
"","do_trial","228","1223565","0.0-208.0-0.0","616.5200001560152","","","","49","1,0,1","4","city","164","probe-14","0.8644375514097833","0.22289109479975458","0.5097833816104289","1","","","","","","","",""
"","do_trial","229","1228891","0.0-209.0-0.0","774.6550000738353","","","","49","1,0,0","4","city","165","probe-144","0.7593554829979947","0.10952483088638845","0.3248348350748496","1","","","","","","","",""
"","do_trial","230","1234066","0.0-210.0-0.0","626.2099999003112","","","","49","1,1,0","4","city","166","probe-176","0.7417503378855981","0.25220148118496555","0.41180654148402623","1","","","","","","","",""
"","do_trial","231","1240123","0.0-211.0-0.0","null","","","","null","1,0,0","4","city","167","probe-222","0.8025262129721215","0.297409093769068","0.2928107993969722","","","","","","","","",""
"","do_trial","232","1245258","0.0-212.0-0.0","586.9350000284612","","","","49","1,0,1","4","city","168","probe-76","0.8254016518906501","0.13476960221771436","0.5494946171963067","1","","","","","","","",""
"","do_trial","233","1250740","0.0-213.0-0.0","930.8700000401586","","","","49","1,1,0","4","city","169","probe-119","0.8329261084085795","0.17207872037085295","0.3418300942643519","1","","","","","","","",""
"","do_trial","234","1256113","0.0-214.0-0.0","820.7149999216199","","","","49","0,0,0","4","city","170","probe-28","0.5528430320027153","0.29858858427724794","0.5889438668322335","0","","","","","","","",""
"","do_trial","235","1261438","0.0-215.0-0.0","772.2549999598414","","","","51","0,0,1","4","city","171","probe-96","0.3406901797160868","0.23363594048100134","0.5441446457660196","1","","","","","","","",""
"","do_trial","236","1267808","0.0-216.0-0.0","1819.0300001297146","","","","51","0,1,0","4","city","172","probe-57","0.12298471899848185","0.348442969005055","0.6724490138228604","0","","","","","","","",""
"","do_trial","237","1273891","0.0-217.0-0.0","1533.894999884069","","","","49","0,1,1","4","city","173","probe-92","0.054673213420761785","0.44198166832552277","0.6030454321215079","0","","","","","","","",""
"","do_trial","238","1279088","0.0-218.0-0.0","645.1850000303239","","","","49","0,0,0","4","city","174","probe-104","0.166622483481302","0.33323246412603125","0.7113457348980721","0","","","","","","","",""
"","do_trial","239","1284261","0.0-219.0-0.0","624.115000013262","","","","49","1,0,1","4","city","175","probe-37","0.14166733900446096","0.23519595357789563","0.7798320290128367","1","","","","","","","",""
"","do_trial","240","1289585","0.0-220.0-0.0","773.8250000402331","","","","49","1,0,1","4","city","176","probe-25","0.17873747020154546","0.2994740010656926","0.8476893731837034","1","","","","","","","",""
"","do_trial","241","1294843","0.0-221.0-0.0","707.060000160709","","","","49","0,0,1","4","city","177","probe-50","0.20177781672044506","0.35528610853336917","0.9294102673738562","0","","","","","","","",""
"","do_trial","242","1300089","0.0-222.0-0.0","698.5150000546128","","","","49","0,1,1","4","city","178","probe-72","0.060376230200891445","0.39132055012844275","0.8330099602670452","0","","","","","","","",""
"","do_trial","243","1305248","0.0-223.0-0.0","610.6399998534471","","","","51","0,0,1","4","city","179","probe-59","0.1475721298025127","0.2685536648637799","0.8264178345367782","1","","","","","","","",""
"","do_trial","244","1310656","0.0-224.0-0.0","862.9800002090633","","","","51","0,0,1","4","city","180","probe-197","0.20836628944282137","0.2978358205797518","0.7913782972189045","1","","","","","","","",""
"","do_trial","245","1315869","0.0-225.0-0.0","665.5749999918044","","","","51","0,0,1","4","city","181","probe-206","0.12584999382540424","0.24607756371039644","0.863330722240178","1","","","","","","","",""
"","do_trial","246","1322947","0.0-226.0-0.0","2527.1099999081343","","","","49","0,0,1","4","city","182","probe-80","0.06836756023281691","0.28748374182565517","0.792699505142309","0","","","","","","","",""
"","do_trial","247","1328183","0.0-227.0-0.0","683.1850002054125","","","","49","0,1,1","4","city","183","probe-30","0.10111588389569381","0.4723642554889589","0.8075729377465103","0","","","","","","","",""
"","do_trial","248","1333238","0.0-228.0-0.0","505.7850000448525","","","","51","0,1,1","4","city","184","probe-31","0.10809827557238628","0.43788906660376514","0.8193871240350824","1","","","","","","","",""
"","do_trial","249","1338371","0.0-229.0-0.0","580.3349998313934","","","","51","0,0,1","4","city","185","probe-68","0.20449893828907198","0.36384607572163064","0.879571423840197","1","","","","","","","",""
"","do_trial","250","1343712","0.0-230.0-0.0","789.2449998762459","","","","51","0,1,1","4","city","186","probe-240","0.14031797514828068","0.47208618231975147","0.868780326553719","1","","","","","","","",""
"","do_trial","251","1349982","0.0-231.0-0.0","1717.2600000631064","","","","51","0,0,1","4","city","187","probe-71","0.07998984256460878","0.3258810241104692","0.9183175779697466","1","","","","","","","",""
"","do_trial","252","1356004","0.0-232.0-0.0","1474.61499995552","","","","51","0,1,1","4","city","188","probe-208","0.08250659362980228","0.239995529559083","0.8334025544931721","1","","","","","","","",""
"","do_trial","253","1360892","0.0-233.0-0.0","340.3650000691414","","","","51","0,0,1","4","city","189","probe-26","0.09181256192851275","0.18277590437526464","0.8324058556573961","1","","","","","","","",""
"","do_trial","254","1365979","0.0-234.0-0.0","537.7599999774247","","","","51","0,1,1","4","city","190","probe-205","0.16899536434413728","0.19458500072646598","0.7888914433138108","1","","","","","","","",""
"","do_trial","255","1371052","0.0-235.0-0.0","520.7299999892712","","","","51","1,0,1","4","city","191","probe-94","0.1763517887622458","0.25050271715003636","0.677043052442831","1","","","","","","","",""
"","do_trial","256","1376403","0.0-236.0-0.0","800.0300000421703","","","","51","1,0,1","4","city","192","probe-155","0.1791550871984831","0.0927467719691149","0.7840301294480007","1","","","","","","","",""
"","do_trial","257","1381904","0.0-237.0-0.0","948.8699999637902","","","","51","0,0,1","4","city","193","probe-146","0.16265702100374468","0.30569899726923555","0.7572067894881386","1","","","","","","","",""
"","do_trial","258","1387336","0.0-238.0-0.0","881.7650000564754","","","","51","0,0,1","4","city","194","probe-129","0.1572331337366509","0.367431212877197","0.6297715174732555","1","","","","","","","",""
"","do_trial","259","1393119","0.0-239.0-0.0","1233.0300000030547","","","","51","0,0,1","4","city","195","probe-174","0.13215277610057385","0.4128411179862193","0.7025565501466874","1","","","","","","","",""
"","do_trial","260","1398084","0.0-240.0-0.0","412.2699999716133","","","","51","0,1,1","4","city","196","probe-149","0.2940270767160722","0.39875472486481867","0.7693842520651367","1","","","","","","","",""
"","do_trial","261","1403095","0.0-241.0-0.0","462.085000006482","","","","51","0,1,1","4","city","197","probe-177","0.3790647046364276","0.3968105391830716","0.7598405616907802","1","","","","","","","",""
"","do_trial","262","1408076","0.0-242.0-0.0","428.08500002138317","","","","51","1,1,0","4","city","198","probe-121","0.4292633430238006","0.33555443246614014","0.6392603836284954","0","","","","","","","",""
"","do_trial","263","1413279","0.0-243.0-0.0","651.175000006333","","","","49","0,0,1","4","city","199","probe-158","0.31090428358031247","0.33445425102679316","0.7629685679988188","0","","","","","","","",""
"","do_bye","264","1414786","0.0-244.0-0.0","null","","","","null","","","","","","","","","","","","","","","","",""
"","do_travel","265","1420789","0.0-245.0-0.0","null","","","","null","","","","","","","","","","","","","","","","",""
"","do_welcome","266","1422300","0.0-245.0-1.0","null","","","","null","","","","","","","","","","","","","","","","",""
"","do_trial","267","1427714","0.0-246.0-0.0","862.3399999924004","","","","51","0,1,1","5","highway","200","probe-147","0.4064329897521737","0.37744721463945696","1","1","","","","","","","",""
"","do_trial","268","1433885","0.0-247.0-0.0","1619.230000069365","","","","50","1,1,1","5","highway","201","probe-95","0.4750434943040721","0.46148179082080865","1","1","","","","","","","",""
"","do_trial","269","1438889","0.0-248.0-0.0","451.25499996356666","","","","50","1,0,1","5","highway","202","probe-55","0.3659124556153271","0.5225994958225572","1","0","","","","","","","",""
"","do_trial","270","1444889","0.0-249.0-0.0","1447.2799999639392","","","","49","1,1,1","5","highway","203","probe-38","0.33528390187286666","0.42639063244344605","1","1","","","","","","","",""
"","do_trial","271","1451021","0.0-250.0-0.0","1583.020000020042","","","","49","0,0,1","5","highway","204","probe-193","0.22544759901599307","0.4569049985613623","0.9177931056735963","0","","","","","","","",""
"","do_trial","272","1456022","0.0-251.0-0.0","449.56499990075827","","","","50","0,1,1","5","highway","205","probe-63","0.10410289975000747","0.49111857198601455","0.9262307227108509","1","","","","","","","",""
"","do_trial","273","1461608","0.0-252.0-0.0","1033.8000000920147","","","","50","0,1,1","5","highway","206","probe-139","0.13098320576936018","0.553274377956795","0.9422118269574985","1","","","","","","","",""
"","do_trial","274","1467004","0.0-253.0-0.0","845.9550000261515","","","","50","0,0,1","5","highway","207","probe-45","0.2381486911745165","0.5029873074610207","0.8262167420875042","0","","","","","","","",""
"","do_trial","275","1472681","0.0-254.0-0.0","1125.0650000292808","","","","50","1,1,1","5","highway","208","probe-117","0.15416789576388737","0.48482122242825837","0.9475891238938111","1","","","","","","","",""
"","do_trial","276","1479247","0.0-255.0-0.0","2013.594999909401","","","","50","0,1,1","5","highway","209","probe-39","0.053165804155771185","0.45449296650301607","0.9224953406362021","1","","","","","","","",""
"","do_trial","277","1483800","0.0-256.0-0.0","0.11999998241662979","","","","50","0,0,0","5","highway","210","probe-65","0.3255298865305793","0.42235623301741754","0.7252992316409942","0","","","","","","","",""
"","do_trial","278","1489393","0.0-257.0-0.0","1040.2649999596179","","","","50","0,0,1","5","highway","211","probe-04","0.3413363434788248","0.33571559649513033","0.5987021895242198","0","","","","","","","",""
"","do_trial","279","1494862","0.0-258.0-0.0","917.6049998495728","","","","51","0,0,1","5","highway","212","probe-161","0.6165768758908493","0.21603836476034768","0.5183054961376209","1","","","","","","","",""
"","do_trial","280","1500582","0.0-259.0-0.0","1170.9950000513345","","","","49","0,0,0","5","highway","213","probe-35","0.5785630471306503","0.3250009038529022","0.5017350768137734","0","","","","","","","",""
"","do_trial","281","1506354","0.0-260.0-0.0","1220.350000075996","","","","50","1,1,1","5","highway","214","probe-200","0.5494041294037587","0.29679712342826087","0.5089770648039285","1","","","","","","","",""
"","do_trial","282","1511669","0.0-261.0-0.0","764.4400000572205","","","","50","1,0,0","5","highway","215","probe-148","0.5799318368627512","0.33282518411483564","0.41655135616122396","0","","","","","","","",""
"","do_trial","283","1516878","0.0-262.0-0.0","658.5000001359731","","","","50","1,1,0","5","highway","216","probe-152","0.6789754149413775","0.3661694129414112","0.48304482395329557","1","","","","","","","",""
"","do_trial","284","1522148","0.0-263.0-0.0","719.0199999604374","","","","50","0,0,1","5","highway","217","probe-97","0.6337284266637233","0.26031400741521593","0.42818726935771273","0","","","","","","","",""
"","do_trial","285","1527213","0.0-264.0-0.0","513.1699999328703","","","","50","1,1,1","5","highway","218","probe-181","0.6381061104760147","0.241995285421911","0.6486308466991949","1","","","","","","","",""
"","do_trial","286","1532332","0.0-265.0-0.0","568.2749999687076","","","","50","0,1,0","5","highway","219","probe-15","0.8131006616494686","0.20422003429897104","0.6547084403305101","1","","","","","","","",""
"","do_trial","287","1537809","0.0-266.0-0.0","924.7449999675155","","","","50","1,1,0","5","highway","220","probe-67","0.8643954414784762","0.2347370744326652","0.5348714778037523","1","","","","","","","",""
"","do_trial","288","1544764","0.0-267.0-0.0","2402.3500001057982","","","","50","1,0,0","5","highway","221","probe-120","0.9420062691927363","0.2681398317980997","0.709663118249857","0","","","","","","","",""
"","do_trial","289","1549957","0.0-268.0-0.0","640.1949999853969","","","","50","1,0,1","5","highway","222","probe-166","0.9496634221606788","0.1480780938097449","0.5801043900055841","0","","","","","","","",""
"","do_trial","290","1556084","0.0-269.0-0.0","1578.2850000541657","","","","50","1,0,1","5","highway","223","probe-143","0.8813746618207304","0.18976643843379296","0.5941211194094419","0","","","","","","","",""
"","do_trial","291","1561862","0.0-270.0-0.0","1219.234999967739","","","","51","1,1,0","5","highway","224","probe-43","0.8849236329123521","0.09856739925197949","0.40596751718792673","0","","","","","","","",""
"","do_trial","292","1566917","0.0-271.0-0.0","507.5950000900775","","","","49","1,0,0","5","highway","225","probe-116","0.8253091049737331","0.10616905155596036","0.42049951428193405","1","","","","","","","",""
"","do_trial","293","1572626","0.0-272.0-0.0","1157.9950000159442","","","","49","0,0,0","5","highway","226","probe-210","0.7813133161735324","0.09205509245202098","0.4287552000911882","0","","","","","","","",""
"","do_trial","294","1577835","0.0-273.0-0.0","659.0550001710653","","","","49","0,0,0","5","highway","227","probe-06","0.6791902910961629","0.05344742629170009","0.333944603607739","0","","","","","","","",""
"","do_trial","295","1583130","0.0-274.0-0.0","747.8150001261383","","","","50","1,0,0","5","highway","228","probe-125","0.8185727760867263","0.10357023893926873","0.3933513672549098","0","","","","","","","",""
"","do_trial","296","1588257","0.0-275.0-0.0","577.8049998916686","","","","50","1,0,1","5","highway","229","probe-154","0.7810856506619028","0.12440415520778011","0.5578110889261985","0","","","","","","","",""
"","do_trial","297","1593518","0.0-276.0-0.0","722.4250000435859","","","","51","0,0,0","5","highway","230","probe-142","0.6073506656391768","0.1232954720588018","0.4321164785274262","0","","","","","","","",""
"","do_trial","298","1598641","0.0-277.0-0.0","572.1400000620633","","","","51","1,0,0","5","highway","231","probe-232","0.6147042457601238","0.16017636398622032","0.4057498297923125","0","","","","","","","",""
"","do_trial","299","1603758","0.0-278.0-0.0","566.3600000552833","","","","50","1,0,0","5","highway","232","probe-234","0.6965316792200973","0.06723854928594651","0.3677276473729409","0","","","","","","","",""
"","do_trial","300","1608834","0.0-279.0-0.0","528.019999852404","","","","50","1,0,0","5","highway","233","probe-175","0.651124375546749","0.07047545716547741","0.33815308381839904","0","","","","","","","",""
"","do_trial","301","1614177","0.0-280.0-0.0","786.9349999818951","","","","50","0,0,1","5","highway","234","probe-188","0.6163277621053939","0.08259993289670536","0.4706095788128121","0","","","","","","","",""
"","do_trial","302","1619511","0.0-281.0-0.0","784.3550001271069","","","","50","1,0,0","5","highway","235","probe-223","0.48868934976941064","0.056567534852219624","0.3917881649789957","0","","","","","","","",""
"","do_trial","303","1624669","0.0-282.0-0.0","611.3299999851733","","","","49","1,0,1","5","highway","236","probe-77","0.7539325376154846","0.10341994629809607","0.22570643855603703","1","","","","","","","",""
"","do_trial","304","1629631","0.0-283.0-0.0","409.6900001168251","","","","49","1,0,0","5","highway","237","probe-165","0.8545031778343442","0.1634080386033861","0.26331567294036246","1","","","","","","","",""
"","do_trial","305","1634771","0.0-284.0-0.0","589.0150000341237","","","","49","1,0,1","5","highway","238","probe-228","0.7402021243739186","0.08972036175637602","0.34830707924635657","1","","","","","","","",""
"","do_trial","306","1639779","0.0-285.0-0.0","460.32000007107854","","","","49","1,0,1","5","highway","239","probe-202","0.8870011485077264","0.12083438315060359","0.4951290131738948","1","","","","","","","",""
"","do_bye","307","1641286","0.0-286.0-0.0","null","","","","null","","","","","","","","","","","","","","","","",""
"","html-keyboard-response","308","1645898","0.0-286.0-1.0","4609.045000048354","<div class='center'>You are all done with the first part of the experiment! Thank you for participating. Tomorrow, you will recieve an invite to participate in the next phase of the experiment which you must complete by the end of the day. <p><b>[Press the space bar to end the experiment]</b></p></div>","32","","","","","","","","","","","","0,3,2,1,5,4","68,21,238,1,190,134,123,132,200,19,166,226,193,88,52,184,163,59,186,237,114,11,225,87,121,150,81,130,210,232,140,127,22,69,85,35,137,203,102,161,182,26,159,32,219,213,84,20,208,171,4,109,90,74,57,117,189,223,8,220,224,99,230,122,55,101,216,198,206,50,33,129,172,100,72,45,126,2,135,158,10,211,236,40,16,107,217,98,178,156,215,86,131,80,82,218,167,133,9,234,78,89,23,83,15,149,18,43,152,53,48,112,235,168,197,212,60,41,77,170,63,113,0,106,229,162,51,144,177,179,17,105,214,6,108,139,31,39,228,65,73,191,185,28,47,125,195,97,7,188,104,111,46,136,12,181,194,169,183,155,110,92,61,202,13,143,175,221,75,118,27,95,56,91,103,36,24,49,71,58,196,205,79,29,30,67,239,70,207,25,204,93,154,145,128,173,148,176,120,157,146,94,54,37,192,62,138,44,116,38,64,3,160,34,199,147,151,96,180,14,66,119,165,142,42,115,209,5,124,153,141,231,233,174,187,222,76,164,227,201","4,7,13,8,3,5,15,16,2,11,6,10,17,0,14,1,12,18,9","1,0.8529982323236371,0.8817250737856401,0.9229126600926165,0.8041074416005478,0.6518782896941214,0.7704785469895856,0.6695589640548164,0.7461267999545856,0.7249445637985207,0.591344009364609,0.5332352171127309,0.47680962513542857,0.580831558653346,0.45754670978087286,0.4007484576380395,0.4237002203368722,0.3747665917093028,0.3954056267654214,0.4257551438621512,0.6017161687648812,0.4539902846950809,0.5045224347099773,0.5151235387025311,0.6096916441104447,0.7151405838164321,0.3916446299216739,0.4603291113776241,0.31116100668229635,0.37290749075120255,0.36552260503804657,0.342848408406946,0.2675509852787963,0.338273125972772,0.37429457754459516,0.3904259336229324,0.44129322787732866,0.3878897965913406,0.36112855044122605,0.3286383429649938,0.350151488923189,0.26388117249230364,0.13601711166424632,0.1496620716201128,0.14407884701816534,0.0695218297981316,0.10088821344779174,0.05696150738236639,0.17477614263887176,0.0821075442415046,0.05848405655285927,0.18080014471165384,0.22298381608312354,0.24469024044296253,0.21290822449718722,0.06450529797608778,0.08827549005926855,0.12476707800711424,0.17485403130318897,0.09468987557827392,0.09065832033431179,0.08919993540129977,0.053603527986547855,0.060574924619546514,0.05702039885294965,0.12719180174388567,0.07116278859478033,0.08330488581225896,0.07032638156024625,0.05705034700802458,0.34037676695755614,0.5952446595638153,0.73323846163224,0.8538660854727488,0.9442231712184075,0.9264860750653913,0.7956007238446842,0.8973131474590282,0.910428702334427,0.9150358174521027,0.9042341215770513,0.8829954505254769,0.6984824643283305,0.6729672175955146,0.8025372279030372,0.8340248819595926,0.8580417292466826,0.9355674473892238,0.8920946404990288,0.9126237223490185,1,0.9423483758204739,0.8645082881267306,0.7313395123074687,0.7357973177401889,0.7626824158366218,0.7600618343648361,0.845765965563038,0.9350368396781846,0.9231721077871262,0.804300567609663,0.6780388685404884,0.7322687278262255,0.5992745574064218,0.5378032748755669,0.5436360062199903,0.5053265097932333,0.3505744764731354,0.44645224651637533,0.5415973099197878,0.6679886794923181,0.47445510919271067,0.4906096817514261,0.48346516374370896,0.3238837907266741,0.4058664135378395,0.533405071198186,0.4648827786343616,0.43855477795253955,0.39534500822934815,0.3810609074074267,0.41598714686096444,0.43980021309428174,0.4488881086486434,0.25988416368922695,0.4533938691740461,0.4260551681335275,0.3951535089199157,0.521494270916191,0.46680442638040825,0.40883590940044046,0.3136973380207433,0.17757690659726078,0.3916831455655791,0.371311214298727,0.42882497351007576,0.37736061281994626,0.4222581891076016,0.20724385166099335,0.3290594822129311,0.4506211525573245,0.6052949921714119,0.7037857002100506,0.7147950985104902,0.8265362748402636,0.7920924752248493,0.6811694636380864,0.7848066308911678,0.7910965195783602,0.7658377095690874,1,0.9489112688358929,0.849133462966682,0.8403155913122502,0.7788347714469257,0.7729678204762703,0.7918682768855595,0.7604843007792799,0.7008501131866691,0.8218052444022356,0.6950117271660317,0.7258601480208801,0.6540836395618363,0.5136301845376755,0.6094014790299346,0.4638220706934365,0.21781512105005466,0.48509220901657407,0.5300216578775092,0.4566956914489393,0.43041526953574,0.4654169528387787,0.42071182124313256,0.3971623001741402,0.3893263903313492,0.3356920415485115,0.3794959526187675,0.30267219536320206,0.36516525205778877,0.36550060538029633","0.10556616085429638,0.11480692448534197,0.05687220370207308,0.119058876214366,0.20049676569075062,0.20926014066281567,0.15409674934109957,0.05310242588456918,0.13915116943429678,0.13229136112313414,0.3727993685855315,0.3968034395746625,0.6197221122383305,0.584141905923635,0.7117315630233944,0.859989093583693,0.9364073863227043,0.8405132562748667,0.9051052683751546,0.8691018909200845,0.8671249109758765,0.7932166648004563,0.7683276344607154,0.7164755128556602,0.6744302101884447,0.6350575509638905,0.5497761193504027,0.7370443481761066,0.8009773617264029,0.8822366826154897,1,0.9395434396521566,0.92560620554357,0.8756571779734648,0.9388195927026167,0.8815262980459204,0.8162843928656242,0.7099361472102683,0.7004511999961054,0.7010456132772598,0.6262695272747637,0.6499522531863359,0.6625382686406844,0.6390664080088859,0.4026838133654536,0.23325208501643066,0.27527160319647476,0.36123924674188473,0.3142475932201221,0.3515771706426684,0.5128554058692645,0.3730241976463933,0.45233068230141693,0.44407457537236505,0.5076014260658505,0.3949141688236315,0.46674052649220493,0.41192366373961536,0.48020082349572896,0.26134291853537767,0.3370228709446418,0.4554814162790436,0.44034992011024693,0.2848807889254141,0.24403286383023762,0.29367379569011254,0.19547928490141014,0.3250655313773148,0.09963380806967262,0.17166596380419982,0.16732320822928212,0.23554670157621937,0.16366836930742065,0.12644874613244494,0.0980952831418468,0.12650921408126678,0.18171989868110583,0.13128030613435862,0.19716323061593866,0.16696082356304529,0.18806364922262794,0.11022315850879182,0.11786194247062014,0.12303844605419947,0.14197087960041074,0.10381804086930987,0.08265073008527356,0.06600032806797508,0.14866439505927317,0.09267936660503623,0.10094611055050988,0.053554225491935455,0.05556459938101277,0.07751010216754771,0.05200530329626593,0.07281684443936323,0.14524289047100553,0.22390185101142734,0.2585695921858474,0.0899572710572615,0.328942145712154,0.6331394901870157,0.7247739437041654,0.6759150429977906,0.7097446408081645,0.6857846756725385,0.6124552813861507,0.599661146347992,0.5425011153853209,0.6149464036746456,0.735406126251278,0.6954646298361115,0.7954586007406336,0.7902733242095105,0.7667278452529968,0.7971417276778867,0.6346193364827385,0.6449993907492122,0.7331753023775021,0.6625342388866057,1,0.8396288304028624,0.88902112279611,0.7993079396136403,0.7887524255246615,0.7481144246028039,0.6115799680479493,0.6164808901893231,0.7151234843375569,0.80025460516973,0.6715901362807115,0.7171287244264055,0.6817282971671833,0.7899391864223002,0.8611198606924414,0.9223993932499692,0.8141034941792444,0.7583328027353519,0.8123754095956867,0.5685306035987471,0.44181308519562335,0.3569994775657076,0.42186685324238504,0.38961808774561285,0.48733348873797083,0.4543364453009422,0.5971511134382848,0.4450671969917371,0.4022795092471973,0.3381626302596979,0.47383128386436585,0.47298945828519073,0.4280417767567126,0.3484611535994322,0.4140559589330939,0.46339003494890457,0.516879448422025,0.4153401024241837,0.32165760534129034,0.4237893812071774,0.36358818802793735,0.3365878424546893,0.1887980748519528,0.20389995321801876,0.21120147317144572,0.15996967795284125,0.158174893012726,0.1131323916665426,0.12293392486080391,0.11625120603391192,0.184448904350153,0.0686036889144418,0.11581928885288832,0.2228041960890683,0.16592434493380753,0.15815389066116786,0.15266306217684247,0.06180938219362975,0.07621073845398373,0.09007867540194278","0.5671609648437086,0.5705099994072371,0.45625461520510757,0.42890947792784095,0.3607841623052562,0.4745365150202425,0.4082558981638469,0.27669729302697244,0.24378525580720073,0.36759853373112433,0.33184974330080047,0.2580571927789013,0.2835359340579369,0.3335274790781327,0.2098717987716715,0.05201948142827392,0.05579750952251802,0.06738877290725691,0.16323907527218828,0.16117798195496952,0.2355145731042481,0.24533838694608281,0.17145347093201252,0.11262360408384824,0.14605600125286874,0.147704860168656,0.20914252657701782,0.052764237452604,0.20045544412338118,0.1348252633089546,0.0812587833408144,0.15035796554160094,0.16292799711445227,0.07325696541799663,0.05564026713926762,0.139021424104804,0.19940741358227393,0.11184130652713194,0.12869845558325704,0.16039544444644008,0.1997893851614461,0.32220437725645346,0.3334068110859134,0.5569096316698795,0.6221952359868083,0.6675471611734141,0.8382557689927888,0.9089129661750464,0.8967369386495035,0.6946712465883094,0.6386529651979369,0.6771668727171499,0.7001458203831296,0.6177311661185018,0.7875882702044246,0.7151306655656098,0.7283004642737824,0.657889091651663,0.5711917906632413,0.7129656420751883,1,0.8921683778009858,0.8098823671666426,0.7285416649887726,0.7855345844423738,0.7841555134960101,0.9181654538770685,0.9063460344474039,0.7693336776084525,0.7277820199267104,0.6554970241977168,0.554933945915587,0.3754000975994907,0.4101475249364031,0.44833337014795055,0.45075650043936116,0.38377754432717076,0.48484467352163974,0.3914585653402204,0.4488501627852033,0.28772161761793597,0.2962525413402243,0.23352668421019437,0.26590981636828664,0.4246455237851134,0.3823521031109714,0.4810666679535095,0.5461629889236113,0.49888430223928915,0.41284505063033505,0.3669775675651193,0.34818770858977394,0.3549739958352871,0.48802621867854334,0.41003318705155506,0.43245267197315473,0.31907789050761975,0.4242528603241766,0.4873902076914201,0.46494736536307574,0.26207923676525724,0.272306706146503,0.24847239610202054,0.3629602236293096,0.20578575864920962,0.2792214370432479,0.21615846019278714,0.10638228746236379,0.0804270642590209,0.10303651049839518,0.18761423521934933,0.17367477911633863,0.19306585471072257,0.29641024239429326,0.1702947011167843,0.16026924960987196,0.14866848265170268,0.13439429315440607,0.1801743499747339,0.10642547736900144,0.09046396281961287,0.052579596299244184,0.05772398820581831,0.10461479773974983,0.06616049190845248,0.07491768056122951,0.12415176720266953,0.15522330504781504,0.19878706223617543,0.3787436456715704,0.26063377031074175,0.2782211967605361,0.24027341003485292,0.2684433516613546,0.17386134924609153,0.09688857182870972,0.08610038821043063,0.0627856649669166,0.1409617535582533,0.09880164632572161,0.2138611658458154,0.24524240629669072,0.2221433681651452,0.2047083891178311,0.07350101065365955,0.13978681054580452,0.087614872686421,0.05241332416180397,0.1374189178795077,0.18611499317041857,0.23961744088783662,0.20693800000414952,0.07959868940234686,0.08565112018890708,0.06714839660297116,0.1234168621839153,0.06771439664715534,0.08177828597044724,0.06413676747574092,0.1590724308000803,0.1805564426207548,0.1302555232208234,0.5492450217946824,0.6756549408698215,0.7494264507327892,0.7282283108478633,0.7018868802439381,0.778292936006898,0.9156595725924853,0.8135734464976502,0.682705722193407,0.8695396781017724,0.8443017759155151,0.7890006416227326,0.848925253410103,0.9212794993105444,0.9097365753986273,0.7864013335418845,0.8578115721785027,0.8383004365380987","123,87,41,125,80,84,206,127,129,126,83,124,48,82,85,122,89,162,42,163,45,86,209,81,203,202,207,44,201,200,128,168,43,169,164,205,161,166,88,204,40,208,46,165,121,47","3,1,1,2,1,1,4,1,1,2,1,1,4,2,3,1,1,1,1,2,4,4,2,1,1,1,5,6,1,4,1,1,6,1,1,1,5,5,1,3,3,3,1,1,1,1,1,4,1,1,1,1,1,5,1,1,2,1,1,1"
