"success","trial_type","trial_index","time_elapsed","internal_node_id","interactions","blur_events","focus_events","fullscreenenter_events","fullscreenexit_events","rt","stimulus","key_press","subject_id","participant_id","age","gender","prompt","response","choice_outcomes","context_n","context_img_id","trial_n","probe_img_id","pR_red","pR_white","pR_black","outcome","contextArray_ind","validImageProbes","invalidImageProbes","pRew_Red","pRew_White","pRew_Black","availableForMemProbe","choice_blocks"
"true","fullscreen","0","3407","0.0-0.0","""event"",""trial"",""time""
""fullscreenenter"",""0"",""2489""
","
","
","""event"",""trial"",""time""
""fullscreenenter"",""0"",""2489""
","
","","","","","","","","","","","","","","","","","","","","","","","","","",""
"","pavlovia","1","3415","0.0-1.0","""event"",""trial"",""time""
""fullscreenenter"",""0"",""2489""
","
","
","""event"",""trial"",""time""
""fullscreenenter"",""0"",""2489""
","
","","","","","","","","","","","","","","","","","","","","","","","","","",""
"","instruc1","2","49120","0.0-2.0","""event"",""trial"",""time""
""fullscreenenter"",""0"",""2489""
","
","
","""event"",""trial"",""time""
""fullscreenenter"",""0"",""2489""
","
","null","run_exp/static/audio/clip_1_welcome.m4a","null","337","","20","female","<div class='center'><p>Welcome! This is the first part of the study. It will last ~30 minutes. In part 1 and part 2 of the study, you are the head captain of a pirate ship traveling around the world to different islands. You will play a few different games throughout these two parts. Here is an overview of them:</p><br><p>Part 1 (today)</p><p>1. Instructions, practice game, and quiz</p><p>2. Pick a pirate game on 6 different islands</p><br><p>Part 2 (tomorrow)</p><p>3. Pick a pirate game and memory game</p><p>4. Where did you see this ship? </p></div>","","","","","","","","","","","","","","","","","",""
"","html-keyboard-response","3","49328","0.0-3.0","""event"",""trial"",""time""
""fullscreenenter"",""0"",""2489""
","
","
","""event"",""trial"",""time""
""fullscreenenter"",""0"",""2489""
","
","193","<div class='center'><p>Welcome! This is the first part of the study. It will last ~30 minutes. In part 1 and part 2 of the study, you are the head captain of a pirate ship traveling around the world to different islands. You will play a few different games throughout these two parts. Here is an overview of them:</p><br><p>Part 1 (today)</p><p>1. Instructions, practice game, and quiz</p><p>2. Pick a pirate game on 6 different islands</p><br><p>Part 2 (tomorrow)</p><p>3. Pick a pirate game and memory game</p><p>4. Where did you see this ship? </p><p><b>[Press the space bar to continue]</b></p></div>","32","","","","","","","","","","","","","","","","","","","","","","",""
"","instruc2","4","54814","0.0-4.0","""event"",""trial"",""time""
""fullscreenenter"",""0"",""2489""
","
","
","""event"",""trial"",""time""
""fullscreenenter"",""0"",""2489""
","
","null","run_exp/static/audio/clip_2_different_places.m4a","null","","","","","<div class='center'><p>Today, you’ll visit these 6 islands on your journey. You'll be able to see these islands from your ship.</p><p><img src='run_exp/static/images/contexts/all_contexts.png' height='500'></p></div>","","","","","","","","","","","","","","","","","",""
"","html-keyboard-response","5","59530","0.0-5.0","""event"",""trial"",""time""
""fullscreenenter"",""0"",""2489""
","
","
","""event"",""trial"",""time""
""fullscreenenter"",""0"",""2489""
","
","4712.800000071526","<div class='center'><p>Today, you’ll visit these 6 islands on your journey. You'll be able to see these islands from your ship.</p><p><img src='run_exp/static/images/contexts/all_contexts.png' height='500'></p><p><b>[Press the space bar to continue]</b></p></div>","32","","","","","","","","","","","","","","","","","","","","","","",""
"","instruc3","6","69406","0.0-6.0","""event"",""trial"",""time""
""fullscreenenter"",""0"",""2489""
","
","
","""event"",""trial"",""time""
""fullscreenenter"",""0"",""2489""
","
","null","run_exp/static/audio/clip_3_goal_of_game_1.m4a","null","","","","","<div class='center'><p> The pirates on your ship will rob other ships as they leave the island.</p> These ships have just sold their goods to the islanders, so they will be filled with lots and lots of gold.</p><p><img src='run_exp/static/images/tutorial/ship_center.png' height='400'></p></div>","","","","","","","","","","","","","","","","","",""
"","html-keyboard-response","7","70899","0.0-7.0","""event"",""trial"",""time""
""fullscreenenter"",""0"",""2489""
","
","
","""event"",""trial"",""time""
""fullscreenenter"",""0"",""2489""
","
","1488.5","<div class='center'><p> The pirates on your ship will rob other ships as they leave the island.</p> These ships have just sold their goods to the islanders, so they will be filled with lots and lots of gold.</p><p><img src='run_exp/static/images/tutorial/ship_center.png' height='400'></p><p><b>[Press the space bar to continue]</b></p></div>","32","","","","","","","","","","","","","","","","","","","","","","",""
"","instruc4","8","99058","0.0-8.0","""event"",""trial"",""time""
""fullscreenenter"",""0"",""2489""
","
","
","""event"",""trial"",""time""
""fullscreenenter"",""0"",""2489""
","
","null","run_exp/static/audio/clip_4_goal_of_game_2.m4a","null","","","","","<div class='center'><p>As the head captain, you do not have to rob any ships yourself. Another pirate will be doing the robbing for you. First, you will choose a pirate to rob the next ship.</p><p><img src='run_exp/static/images/tutorial/pirates_all_crop.png' height='200'></p><p>Then, you'll see if the pirate successfully robbed the ship of their gold. If they were successful, then you'll get a stack of gold coins like this:</p><p><img src='run_exp/static/images/tutorial/reward.png' height='150'></p><p> If they were <b>not</b> successful, then you'll get no gold coins, and you'll see a big red x like this: </p><p><img src='run_exp/static/images/tutorial/reward_no.png' height='150'></p><p> How much bonus money you make is based on how many gold coins you collect.</p><div>","","","","","","","","","","","","","","","","","",""
"","html-keyboard-response","9","100691","0.0-9.0","""event"",""trial"",""time""
""fullscreenenter"",""0"",""2489""
","
","
","""event"",""trial"",""time""
""fullscreenenter"",""0"",""2489""
","
","1629","<div class='center'><p>As the head captain, you do not have to rob any ships yourself. Another pirate will be doing the robbing for you. First, you will choose a pirate to rob the next ship.</p><p><img src='run_exp/static/images/tutorial/pirates_all_crop.png' height='200'></p><p>Then, you'll see if the pirate successfully robbed the ship of their gold. If they were successful, then you'll get a stack of gold coins like this:</p><p><img src='run_exp/static/images/tutorial/reward.png' height='150'></p><p> If they were <b>not</b> successful, then you'll get no gold coins, and you'll see a big red x like this: </p><p><img src='run_exp/static/images/tutorial/reward_no.png' height='150'></p><p> How much bonus money you make is based on how many gold coins you collect.</p<p><b>[Press the space bar to continue]</b></p></div>","32","","","","","","","","","","","","","","","","","","","","","","",""
"","instruc5","10","125026","0.0-10.0","""event"",""trial"",""time""
""fullscreenenter"",""0"",""2489""
","
","
","""event"",""trial"",""time""
""fullscreenenter"",""0"",""2489""
","
","24334.200000047684","run_exp/static/audio/clip_5_probabilistic.m4a","49","","","","","<div class='center'><p>Even the most skilled pirate can not rob EVERY ship.</p><p> Some ships will have very strong protections against pirate attacks.</p><p> Blue beard, here, is very, very good at robbing ships, but he won't be successful every time he tries to rob one.</p><p> You can press the <b>‘1’</b> key on the keyboard to choose him.</p><p> Try choosing him 10 times to see how often he succeeds at robbing a ship. </p><p><img src='run_exp/static/images/tutorial/blue.png' height='500'></p></div>","","","","","","","","","","","","","","","","","",""
"","html-keyboard-response","11","126531","0.0-11.0","""event"",""trial"",""time""
""fullscreenenter"",""0"",""2489""
","
","
","""event"",""trial"",""time""
""fullscreenenter"",""0"",""2489""
","
","null","<div class='center'><p><img src='run_exp/static/images/tutorial/blue_win.png' height='500'></p></div>","null","","","","","","","","","","","","","","","","","","","","","","",""
"","html-keyboard-response","12","129035","0.0-12.0","""event"",""trial"",""time""
""fullscreenenter"",""0"",""2489""
","
","
","""event"",""trial"",""time""
""fullscreenenter"",""0"",""2489""
","
","2501.2000000476837","<div class='center'><img src='run_exp/static/images/tutorial/blue.png' height='500'></p></div>","49","","","","","","","","","","","","","","","","","","","","","","",""
"","html-keyboard-response","13","130538","0.0-13.0","""event"",""trial"",""time""
""fullscreenenter"",""0"",""2489""
","
","
","""event"",""trial"",""time""
""fullscreenenter"",""0"",""2489""
","
","null","<div class='center'><p><img src='run_exp/static/images/tutorial/blue_win.png' height='500'></p></div>","null","","","","","","","","","","","","","","","","","","","","","","",""
"","html-keyboard-response","14","133225","0.0-14.0","""event"",""trial"",""time""
""fullscreenenter"",""0"",""2489""
","
","
","""event"",""trial"",""time""
""fullscreenenter"",""0"",""2489""
","
","2685.600000023842","<div class='center'><img src='run_exp/static/images/tutorial/blue.png' height='500'></p></div>","49","","","","","","","","","","","","","","","","","","","","","","",""
"","html-keyboard-response","15","134729","0.0-15.0","""event"",""trial"",""time""
""fullscreenenter"",""0"",""2489""
","
","
","""event"",""trial"",""time""
""fullscreenenter"",""0"",""2489""
","
","null","<div class='center'><p><img src='run_exp/static/images/tutorial/blue_win.png' height='500'></p></div>","null","","","","","","","","","","","","","","","","","","","","","","",""
"","html-keyboard-response","16","145021","0.0-16.0","""event"",""trial"",""time""
""fullscreenenter"",""0"",""2489""
","
","
","""event"",""trial"",""time""
""fullscreenenter"",""0"",""2489""
","
","10290.799999952316","<div class='center'><img src='run_exp/static/images/tutorial/blue.png' height='500'></p></div>","49","","","","","","","","","","","","","","","","","","","","","","",""
"","html-keyboard-response","17","146530","0.0-17.0","""event"",""trial"",""time""
""fullscreenenter"",""0"",""2489""
","
","
","""event"",""trial"",""time""
""fullscreenenter"",""0"",""2489""
","
","null","<div class='center'><p><img src='run_exp/static/images/tutorial/blue_no_win.png' height='500'></p></div>","null","","","","","","","","","","","","","","","","","","","","","","",""
"","html-keyboard-response","18","149646","0.0-18.0","""event"",""trial"",""time""
""fullscreenenter"",""0"",""2489""
","
","
","""event"",""trial"",""time""
""fullscreenenter"",""0"",""2489""
","
","3114.7000000476837","<div class='center'><img src='run_exp/static/images/tutorial/blue.png' height='500'></p></div>","49","","","","","","","","","","","","","","","","","","","","","","",""
"","html-keyboard-response","19","151152","0.0-19.0","""event"",""trial"",""time""
""fullscreenenter"",""0"",""2489""
","
","
","""event"",""trial"",""time""
""fullscreenenter"",""0"",""2489""
","
","null","<div class='center'><p><img src='run_exp/static/images/tutorial/blue_win.png' height='500'></p></div>","null","","","","","","","","","","","","","","","","","","","","","","",""
"","html-keyboard-response","20","157599","0.0-20.0","""event"",""trial"",""time""
""fullscreenenter"",""0"",""2489""
","
","
","""event"",""trial"",""time""
""fullscreenenter"",""0"",""2489""
","
","6445.899999976158","<div class='center'><img src='run_exp/static/images/tutorial/blue.png' height='500'></p></div>","49","","","","","","","","","","","","","","","","","","","","","","",""
"","html-keyboard-response","21","159103","0.0-21.0","""event"",""trial"",""time""
""fullscreenenter"",""0"",""2489""
","
","
","""event"",""trial"",""time""
""fullscreenenter"",""0"",""2489""
","
","null","<div class='center'><p><img src='run_exp/static/images/tutorial/blue_win.png' height='500'></p></div>","null","","","","","","","","","","","","","","","","","","","","","","",""
"","html-keyboard-response","22","169168","0.0-22.0","""event"",""trial"",""time""
""fullscreenenter"",""0"",""2489""
","
","
","""event"",""trial"",""time""
""fullscreenenter"",""0"",""2489""
","
","10063.699999928474","<div class='center'><img src='run_exp/static/images/tutorial/blue.png' height='500'></p></div>","49","","","","","","","","","","","","","","","","","","","","","","",""
"","html-keyboard-response","23","170670","0.0-23.0","""event"",""trial"",""time""
""fullscreenenter"",""0"",""2489""
","
","
","""event"",""trial"",""time""
""fullscreenenter"",""0"",""2489""
","
","null","<div class='center'><p><img src='run_exp/static/images/tutorial/blue_win.png' height='500'></p></div>","null","","","","","","","","","","","","","","","","","","","","","","",""
"","html-keyboard-response","24","172911","0.0-24.0","""event"",""trial"",""time""
""fullscreenenter"",""0"",""2489""
","
","
","""event"",""trial"",""time""
""fullscreenenter"",""0"",""2489""
","
","2239.7999999523163","<div class='center'><img src='run_exp/static/images/tutorial/blue.png' height='500'></p></div>","49","","","","","","","","","","","","","","","","","","","","","","",""
"","html-keyboard-response","25","174416","0.0-25.0","""event"",""trial"",""time""
""fullscreenenter"",""0"",""2489""
","
","
","""event"",""trial"",""time""
""fullscreenenter"",""0"",""2489""
","
","null","<div class='center'><p><img src='run_exp/static/images/tutorial/blue_no_win.png' height='500'></p></div>","null","","","","","","","","","","","","","","","","","","","","","","",""
"","html-keyboard-response","26","175784","0.0-26.0","""event"",""trial"",""time""
""fullscreenenter"",""0"",""2489""
","
","
","""event"",""trial"",""time""
""fullscreenenter"",""0"",""2489""
","
","1366.5","<div class='center'><img src='run_exp/static/images/tutorial/blue.png' height='500'></p></div>","49","","","","","","","","","","","","","","","","","","","","","","",""
"","html-keyboard-response","27","177293","0.0-27.0","""event"",""trial"",""time""
""fullscreenenter"",""0"",""2489""
","
","
","""event"",""trial"",""time""
""fullscreenenter"",""0"",""2489""
","
","null","<div class='center'><p><img src='run_exp/static/images/tutorial/blue_win.png' height='500'></p></div>","null","","","","","","","","","","","","","","","","","","","","","","",""
"","html-keyboard-response","28","178235","0.0-28.0","""event"",""trial"",""time""
""fullscreenenter"",""0"",""2489""
","
","
","""event"",""trial"",""time""
""fullscreenenter"",""0"",""2489""
","
","940.3000000715256","<div class='center'><img src='run_exp/static/images/tutorial/blue.png' height='500'></p></div>","49","","","","","","","","","","","","","","","","","","","","","","",""
"","html-keyboard-response","29","179741","0.0-29.0","""event"",""trial"",""time""
""fullscreenenter"",""0"",""2489""
","
","
","""event"",""trial"",""time""
""fullscreenenter"",""0"",""2489""
","
","null","<div class='center'><p><img src='run_exp/static/images/tutorial/blue_win.png' height='500'></p></div>","null","","","","","","","","","","","","","","","","","","","","","","",""
"","instruc6","30","185784","0.0-30.0","""event"",""trial"",""time""
""fullscreenenter"",""0"",""2489""
","
","
","""event"",""trial"",""time""
""fullscreenenter"",""0"",""2489""
","
","null","run_exp/static/audio/clip_6_blue_beard_outcome.m4a","null","","","","","<div class='center'><p> See, he succeeded in robbing the ships most of the time but not every time. </p></div>","","","","","","","","","","","","","","","","","",""
"","html-keyboard-response","31","188376","0.0-31.0","""event"",""trial"",""time""
""fullscreenenter"",""0"",""2489""
","
","
","""event"",""trial"",""time""
""fullscreenenter"",""0"",""2489""
","
","2591","<div class='center'><p> See, he succeeded in robbing the ships most of the time but not every time. </p><p><b>[Press the space bar to continue]</b></p></div>","32","","","","","","","","","","","","","","","","","","","","","","",""
"","audio-keyboard-response","32","205877","0.0-32.0","""event"",""trial"",""time""
""fullscreenenter"",""0"",""2489""
","
","
","""event"",""trial"",""time""
""fullscreenenter"",""0"",""2489""
","
","17500","run_exp/static/audio/clip_7_pick_pirate.m4a","50","","","","","","","","","","","","","","","","","","","","","","",""
"","audio-keyboard-response","33","210929","0.0-33.0-0.0","""event"",""trial"",""time""
""fullscreenenter"",""0"",""2489""
","
","
","""event"",""trial"",""time""
""fullscreenenter"",""0"",""2489""
","
","5048.399999976158","run_exp/static/audio/clip_8_chosen_pirate_win.m4a","32","","","","","","","","","","","","","","","","","","","","","","",""
"","audio-keyboard-response","34","215081","0.0-33.0-1.0","""event"",""trial"",""time""
""fullscreenenter"",""0"",""2489""
","
","
","""event"",""trial"",""time""
""fullscreenenter"",""0"",""2489""
","
","4150.100000023842","run_exp/static/audio/clip_9_pick_a_pirate_again.m4a","51","","","","","","","","","","","","","","","","","","","","","","",""
"","audio-keyboard-response","35","221050","0.0-34.0-0.0","""event"",""trial"",""time""
""fullscreenenter"",""0"",""2489""
","
","
","""event"",""trial"",""time""
""fullscreenenter"",""0"",""2489""
","
","5966.799999952316","run_exp/static/audio/clip_10_chosen_pirate_loss.m4a","32","","","","","","","","","","","","","","","","","","","","","","",""
"","instruc9","36","226764","0.0-35.0-0.0","""event"",""trial"",""time""
""fullscreenenter"",""0"",""2489""
","
","
","""event"",""trial"",""time""
""fullscreenenter"",""0"",""2489""
","
","null","run_exp/static/audio/clip_11_time_out.m4a","null","","","","","<div class='center'><p>If you don’t make your choice fast enough, you’ll have to wait a few seconds before you can make another one. </p><p><img src='run_exp/static/images/miscellaneous/hurry_up.png' height='500'></p></div>","","","","","","","","","","","","","","","","","",""
"","html-keyboard-response","37","228047","0.0-35.0-1.0","""event"",""trial"",""time""
""fullscreenenter"",""0"",""2489""
","
","
","""event"",""trial"",""time""
""fullscreenenter"",""0"",""2489""
","
","1280.7999999523163","<div class='center'><p>If you don’t make your choice fast enough, you’ll have to wait a few seconds before you can make another one. </p><p><img src='run_exp/static/images/miscellaneous/hurry_up.png' height='500'></p><p><b>[Press the space bar to continue]</b></p></div>","32","","","","","","","","","","","","","","","","","","","","","","",""
"","instruc10","38","267360","0.0-35.0-2.0","""event"",""trial"",""time""
""fullscreenenter"",""0"",""2489""
","
","
","""event"",""trial"",""time""
""fullscreenenter"",""0"",""2489""
","
","null","run_exp/static/audio/clip_12_probe.m4a","null","","","","","<div class='center'><p>Once you've chosen a pirate, you’ll be shown the ship they are robbing. You will never rob the same ship twice. Ships can be told apart from one another by the image on them. These are the goods that they sell. See, this ship has a travel mug on it. </p><p> You’ll have to remember which island you saw each ship on. You will win more gold coins and hence more bonus money if you remember correctly! To help you remember, you can imagine a story. For example, here, you could imagine a mug full of water in the desert. Or, as another example, if on the forest island, your pirate robbed a ship with an apple on it, you could imagine an apple falling from a tree in the forest. </p><p><img src='run_exp/static/images/tutorial/example_probe.png' height='500'></p></div>","","","","","","","","","","","","","","","","","",""
"","html-keyboard-response","39","268692","0.0-35.0-3.0","""event"",""trial"",""time""
""fullscreenenter"",""0"",""2489""
","
","
","""event"",""trial"",""time""
""fullscreenenter"",""0"",""2489""
","
","1329.2000000476837","<div class='center'><p>Once you've chosen a pirate, you’ll be shown the ship they are robbing. You will never rob the same ship twice. Ships can be told apart from one another by the image on them. These are the goods that they sell. See, this ship has a travel mug on it. </p><p> You’ll have to remember which island you saw each ship on. You will win more gold coins and hence more bonus money if you remember correctly! To help you remember, you can imagine a story. For example, here, you could imagine a mug full of water in the desert. Or, as another example, if on the forest island, your pirate robbed a ship with an apple on it, you could imagine an apple falling from a tree in the forest. </p><p><img src='run_exp/static/images/tutorial/example_probe.png' height='500'></p><p><b>[Press the space bar to continue]</b></p></div>","32","","","","","","","","","","","","","","","","","","","","","","",""
"","instruc11","40","285300","0.0-35.0-4.0","""event"",""trial"",""time""
""fullscreenenter"",""0"",""2489""
","
","
","""event"",""trial"",""time""
""fullscreenenter"",""0"",""2489""
","
","null","run_exp/static/audio/clip_13_changepoint.m4a","null","","","","","<div class='center'><p>How successful a pirate is at robbing ships will depend on the island you’re on.</p><p> A pirate may have visited this island many times before and gained a lot of practice robbing ships there.</p><p>So, they’re more likely to be successful than a pirate who has never visited the island before.</p></div>","","","","","","","","","","","","","","","","","",""
"","html-keyboard-response","41","286963","0.0-35.0-5.0","""event"",""trial"",""time""
""fullscreenenter"",""0"",""2489""
","
","
","""event"",""trial"",""time""
""fullscreenenter"",""0"",""2489""
","
","1659.5","<div class='center'><p>How successful a pirate is at robbing ships will depend on the island you’re on.</p><p> A pirate may have visited this island many times before and gained a lot of practice robbing ships there.</p><p>So, they’re more likely to be successful than a pirate who has never visited the island before.</p><p><b>[Press the space bar to continue]</b></p></div>","32","","","","","","","","","","","","","","","","","","","","","","",""
"","instruc12","42","328286","0.0-35.0-6.0","""event"",""trial"",""time""
""fullscreenenter"",""0"",""2489""
","
","
","""event"",""trial"",""time""
""fullscreenenter"",""0"",""2489""
","
","null","run_exp/static/audio/clip_14_drift.m4a","null","","","","","<div class='center'><p>How successful a pirate is at robbing ships can also change over the time spent on the island. </p><p> Ships may hear from islanders about the pirates coming and will improve their protections against the attack. This may make it harder to rob them.</p><p> Ships may also become lazy and weaken the strength of their protections. This may make it easier to rob them.</p><br><p>Things are always changing on the high seas! So, try your best to pay attention!</p><p><img src='run_exp/static/images/tutorial/contingency.png' height='500'></p></div>","","","","","","","","","","","","","","","","","",""
"","html-keyboard-response","43","329707","0.0-35.0-7.0","""event"",""trial"",""time""
""fullscreenenter"",""0"",""2489""
","
","
","""event"",""trial"",""time""
""fullscreenenter"",""0"",""2489""
","
","1418.3999999761581","<div class='center'><p>How successful a pirate is at robbing ships can also change over the time spent on the island. </p><p> Ships may hear from islanders about the pirates coming and will improve their protections against the attack. This may make it harder to rob them.</p><p> Ships may also become lazy and weaken the strength of their protections. This may make it easier to rob them.</p><br><p>Things are always changing on the high seas! So, try your best to pay attention!</p><p><img src='run_exp/static/images/tutorial/contingency.png' height='500'></p><p><b>[Press the space bar to continue]</b></p></div>","32","","","","","","","","","","","","","","","","","","","","","","",""
"","instruc13","44","365127","0.0-35.0-8.0","""event"",""trial"",""time""
""fullscreenenter"",""0"",""2489""
","
","
","""event"",""trial"",""time""
""fullscreenenter"",""0"",""2489""
","
","null","run_exp/static/audio/clip_15_summary.m4a","null","","","","","<div class='center'><p>Let's go over the instructions quickly again. You have two important things to do: </p><b><p> 1. Pick the pirate who is the best at robbing ships on the current island. </p></b><b><p> 2. Remember on which island a ship was robbed.</p> </b><p>The amount of bonus money you can win depends on both.</p><p><br><p>Let’s try a practice game. The game will start by showing you the pirates. First, pick a pirate using the <b> 1, 2, 3 </b> keys on your keyboard. When you are shown a ship, try to remember which island you’re on by making up a story.</p><p>This is just a practice game, so you’re not playing for money. </p><p> Good luck! This game will be very difficult but try your best!</p></div>","","","","","","","","","","","","","","","","","",""
"","html-keyboard-response","45","366339","0.0-35.0-9.0","""event"",""trial"",""time""
""fullscreenenter"",""0"",""2489""
","
","
","""event"",""trial"",""time""
""fullscreenenter"",""0"",""2489""
","
","1210.5","<div class='center'><p>Let's go over the instructions quickly again. You have two important things to do: </p><b><p> 1. Pick the pirate who is the best at robbing ships on the current island. </p></b><b><p> 2. Remember on which island a ship was robbed.</p> </b><p>The amount of bonus money you can win depends on both.</p><p><br><p>Let’s try a practice game. The game will start by showing you the pirates. First, pick a pirate using the <b> 1, 2, 3 </b> keys on your keyboard. When you are shown a ship, try to remember which island you’re on by making up a story.</p><p>This is just a practice game, so you’re not playing for money. </p><p> Good luck! This game will be very difficult but try your best!</p><p><b>[Press the space bar to continue]</b></p></div>","32","","","","","","","","","","","","","","","","","","","","","","",""
"","do_welcome","46","370924","0.0-35.0-10.0","""event"",""trial"",""time""
""fullscreenenter"",""0"",""2489""
","
","
","""event"",""trial"",""time""
""fullscreenenter"",""0"",""2489""
","
","null","","","","","","","","null","","","","","","","","","","","","","","","","",""
"","do_trial","47","376940","0.0-35.0-11.0","""event"",""trial"",""time""
""fullscreenenter"",""0"",""2489""
","
","
","""event"",""trial"",""time""
""fullscreenenter"",""0"",""2489""
","
","null","","","","","","","","null","1,0,0","","","","","","","","","","","","","","","",""
"","html-keyboard-response","48","377944","0.0-36.0-0.0","""event"",""trial"",""time""
""fullscreenenter"",""0"",""2489""
","
","
","""event"",""trial"",""time""
""fullscreenenter"",""0"",""2489""
","
","null","<p></p>","null","","","","","","","","","","","","","","","","","","","","","","",""
"","do_trial","49","383406","0.0-36.0-1.0","""event"",""trial"",""time""
""fullscreenenter"",""0"",""2489""
","
","
","""event"",""trial"",""time""
""fullscreenenter"",""0"",""2489""
","
","948.9000000953674","","","","","","","","50","1,0,0","","","","","","","","","","","","","","","",""
"","html-keyboard-response","50","384415","0.0-37.0-0.0","""event"",""trial"",""time""
""fullscreenenter"",""0"",""2489""
","
","
","""event"",""trial"",""time""
""fullscreenenter"",""0"",""2489""
","
","null","<p></p>","null","","","","","","","","","","","","","","","","","","","","","","",""
"","do_trial","51","390328","0.0-37.0-1.0","""event"",""trial"",""time""
""fullscreenenter"",""0"",""2489""
","
","
","""event"",""trial"",""time""
""fullscreenenter"",""0"",""2489""
","
","1399.2000000476837","","","","","","","","51","1,1,0","","","","","","","","","","","","","","","",""
"","html-keyboard-response","52","391338","0.0-38.0-0.0","""event"",""trial"",""time""
""fullscreenenter"",""0"",""2489""
","
","
","""event"",""trial"",""time""
""fullscreenenter"",""0"",""2489""
","
","null","<p></p>","null","","","","","","","","","","","","","","","","","","","","","","",""
"","do_trial","53","396213","0.0-38.0-1.0","""event"",""trial"",""time""
""fullscreenenter"",""0"",""2489""
","
","
","""event"",""trial"",""time""
""fullscreenenter"",""0"",""2489""
","
","364.10000002384186","","","","","","","","49","1,0,1","","","","","","","","","","","","","","","",""
"","html-keyboard-response","54","397218","0.0-39.0-0.0","""event"",""trial"",""time""
""fullscreenenter"",""0"",""2489""
","
","
","""event"",""trial"",""time""
""fullscreenenter"",""0"",""2489""
","
","null","<p></p>","null","","","","","","","","","","","","","","","","","","","","","","",""
"","do_trial","55","402789","0.0-39.0-1.0","""event"",""trial"",""time""
""fullscreenenter"",""0"",""2489""
","
","
","""event"",""trial"",""time""
""fullscreenenter"",""0"",""2489""
","
","1055.6999999284744","","","","","","","","49","0,1,0","","","","","","","","","","","","","","","",""
"","html-keyboard-response","56","403796","0.0-40.0-0.0","""event"",""trial"",""time""
""fullscreenenter"",""0"",""2489""
","
","
","""event"",""trial"",""time""
""fullscreenenter"",""0"",""2489""
","
","null","<p></p>","null","","","","","","","","","","","","","","","","","","","","","","",""
"","do_trial","57","408637","0.0-40.0-1.0","""event"",""trial"",""time""
""fullscreenenter"",""0"",""2489""
","
","
","""event"",""trial"",""time""
""fullscreenenter"",""0"",""2489""
","
","330.10000002384186","","","","","","","","51","1,0,0","","","","","","","","","","","","","","","",""
"","do_bye","58","410148","0.0-41.0-0.0","""event"",""trial"",""time""
""fullscreenenter"",""0"",""2489""
","
","
","""event"",""trial"",""time""
""fullscreenenter"",""0"",""2489""
","
","null","","","","","","","","null","","","","","","","","","","","","","","","","",""
"","do_travel","59","419158","0.0-41.0-1.0","""event"",""trial"",""time""
""fullscreenenter"",""0"",""2489""
","
","
","""event"",""trial"",""time""
""fullscreenenter"",""0"",""2489""
","
","null","","","","","","","","null","","","","","","","","","","","","","","","","",""
"","do_welcome","60","423169","0.0-41.0-2.0","""event"",""trial"",""time""
""fullscreenenter"",""0"",""2489""
","
","
","""event"",""trial"",""time""
""fullscreenenter"",""0"",""2489""
","
","null","","","","","","","","null","","","","","","","","","","","","","","","","",""
"","do_trial","61","429046","0.0-41.0-3.0","""event"",""trial"",""time""
""fullscreenenter"",""0"",""2489""
","
","
","""event"",""trial"",""time""
""fullscreenenter"",""0"",""2489""
","
","1364","","","","","","","","50","1,0,0","","","","","","","","","","","","","","","",""
"","html-keyboard-response","62","430051","0.0-42.0-0.0","""event"",""trial"",""time""
""fullscreenenter"",""0"",""2489""
","
","
","""event"",""trial"",""time""
""fullscreenenter"",""0"",""2489""
","
","null","<p></p>","null","","","","","","","","","","","","","","","","","","","","","","",""
"","do_trial","63","435019","0.0-42.0-1.0","""event"",""trial"",""time""
""fullscreenenter"",""0"",""2489""
","
","
","""event"",""trial"",""time""
""fullscreenenter"",""0"",""2489""
","
","454.5","","","","","","","","51","1,0,1","","","","","","","","","","","","","","","",""
"","html-keyboard-response","64","436025","0.0-43.0-0.0","""event"",""trial"",""time""
""fullscreenenter"",""0"",""2489""
","
","
","""event"",""trial"",""time""
""fullscreenenter"",""0"",""2489""
","
","null","<p></p>","null","","","","","","","","","","","","","","","","","","","","","","",""
"","do_trial","65","441694","0.0-43.0-1.0","""event"",""trial"",""time""
""fullscreenenter"",""0"",""2489""
","
","
","""event"",""trial"",""time""
""fullscreenenter"",""0"",""2489""
","
","1154.3999999761581","","","","","","","","49","1,1,0","","","","","","","","","","","","","","","",""
"","html-keyboard-response","66","442701","0.0-44.0-0.0","""event"",""trial"",""time""
""fullscreenenter"",""0"",""2489""
","
","
","""event"",""trial"",""time""
""fullscreenenter"",""0"",""2489""
","
","null","<p></p>","null","","","","","","","","","","","","","","","","","","","","","","",""
"","do_trial","67","448452","0.0-44.0-1.0","""event"",""trial"",""time""
""fullscreenenter"",""0"",""2489""
","
","
","""event"",""trial"",""time""
""fullscreenenter"",""0"",""2489""
","
","1238.7999999523163","","","","","","","","50","0,0,1","","","","","","","","","","","","","","","",""
"","html-keyboard-response","68","449458","0.0-45.0-0.0","""event"",""trial"",""time""
""fullscreenenter"",""0"",""2489""
","
","
","""event"",""trial"",""time""
""fullscreenenter"",""0"",""2489""
","
","null","<p></p>","null","","","","","","","","","","","","","","","","","","","","","","",""
"","do_trial","69","454333","0.0-45.0-1.0","""event"",""trial"",""time""
""fullscreenenter"",""0"",""2489""
","
","
","""event"",""trial"",""time""
""fullscreenenter"",""0"",""2489""
","
","363","","","","","","","","51","1,0,1","","","","","","","","","","","","","","","",""
"","html-keyboard-response","70","458879","0.0-46.0-0.0","""event"",""trial"",""time""
""fullscreenenter"",""0"",""2489""
","
","
","""event"",""trial"",""time""
""fullscreenenter"",""0"",""2489""
","
","4542.600000023842","<div class='center'><p><img src='run_exp/static/images/tutorial/prac_best_pirate.png'  height='500'></p></div>","51","","","","","","","","","","","","","","","","","","","","","","",""
"","html-keyboard-response","71","460667","0.0-47.0-0.0","""event"",""trial"",""time""
""fullscreenenter"",""0"",""2489""
","
","
","""event"",""trial"",""time""
""fullscreenenter"",""0"",""2489""
","
","1786","<div class='center'><p>That's incorrect! Red beard was the best.</p><p><b>[Press the space bar to continue]</b></p></div>","32","","","","","","","","","","","","","","","","","","","","","","",""
"","html-keyboard-response","72","467383","0.0-47.0-1.0","""event"",""trial"",""time""
""fullscreenenter"",""0"",""2489""
","
","
","""event"",""trial"",""time""
""fullscreenenter"",""0"",""2489""
","
","6715.100000023842","<div class='center'><p><img src='run_exp/static/images/tutorial/prac_source.png'  height='500'></p></div>","50","","","","","","","","","","","","","","","","","","","","","","",""
"","html-keyboard-response","73","468943","0.0-48.0-0.0","""event"",""trial"",""time""
""fullscreenenter"",""0"",""2489""
","
","
","""event"",""trial"",""time""
""fullscreenenter"",""0"",""2489""
","
","1558.8999999761581","<div class='center'><p>That's correct! You saw this ship on the cavern island.</p><p><b>[Press the space bar to continue]</b></p></div>","32","","","","","","","","","","","","","","","","","","","","","","",""
"","quiz_beginning","74","480759","0.0-48.0-1.0","""event"",""trial"",""time""
""fullscreenenter"",""0"",""2489""
","
","
","""event"",""trial"",""time""
""fullscreenenter"",""0"",""2489""
","
","null","run_exp/static/audio/clip_16_quiz_intro.m4a","null","","","","","<div class='center'><p>Good job on the practice game! Now, you will be asked some true or false questions to make sure you really understand the rules of the game.</p><p> Press <b>'1'</b> on the keyboard for true and press <b>'2'</b> for false.</p></div>","","","","","","","","","","","","","","","","","",""
"","audio-keyboard-response","75","505160","0.0-48.0-2.0","""event"",""trial"",""time""
""fullscreenenter"",""0"",""2489""
","
","
","""event"",""trial"",""time""
""fullscreenenter"",""0"",""2489""
","
","24399.700000047684","run_exp/static/audio/clip_17_q1.m4a","49","","","","","","","","","","","","","","","","","","","","","","",""
"","correct","76","508069","0.0-49.0-0.0","""event"",""trial"",""time""
""fullscreenenter"",""0"",""2489""
","
","
","""event"",""trial"",""time""
""fullscreenenter"",""0"",""2489""
","
","null","run_exp/static/audio/clip_18_correct.m4a","null","","","","","<div class='center'><p>That's correct!</p></div>","","","","","","","","","","","","","","","","","",""
"","html-keyboard-response","77","509202","0.0-49.0-1.0","""event"",""trial"",""time""
""fullscreenenter"",""0"",""2489""
","
","
","""event"",""trial"",""time""
""fullscreenenter"",""0"",""2489""
","
","1132.5","<div class='center'><p>That's correct!</p><p><b>[Press the space bar to continue]</b></p></div>","32","","","","","","","","","","","","","","","","","","","","","","",""
"","audio-keyboard-response","78","519205","0.0-49.0-2.0","""event"",""trial"",""time""
""fullscreenenter"",""0"",""2489""
","
","
","""event"",""trial"",""time""
""fullscreenenter"",""0"",""2489""
","
","10001.700000047684","run_exp/static/audio/clip_20_q2.m4a","49","","","","","","","","","","","","","","","","","","","","","","",""
"","q2_err","79","524900","0.0-50.0-0.0","""event"",""trial"",""time""
""fullscreenenter"",""0"",""2489""
","
","
","""event"",""trial"",""time""
""fullscreenenter"",""0"",""2489""
","
","null","run_exp/static/audio/clip_21_wrong_q2.m4a","null","","","","","<div class='center'><p>That’s incorrect. Which pirate is the best may change during your time on the island.</p></div>","","","","","","","","","","","","","","","","","",""
"","html-keyboard-response","80","527210","0.0-50.0-1.0","""event"",""trial"",""time""
""fullscreenenter"",""0"",""2489""
","
","
","""event"",""trial"",""time""
""fullscreenenter"",""0"",""2489""
","
","2308.7000000476837","<div class='center'><p>That’s incorrect. Which pirate is the best may change during your time on the island.</p><p><b>[Press the space bar to continue]</b></p></div>","32","","","","","","","","","","","","","","","","","","","","","","",""
"","audio-keyboard-response","81","534397","0.0-50.0-2.0","""event"",""trial"",""time""
""fullscreenenter"",""0"",""2489""
","
","
","""event"",""trial"",""time""
""fullscreenenter"",""0"",""2489""
","
","7185.799999952316","run_exp/static/audio/clip_22_q3.m4a","50","","","","","","","","","","","","","","","","","","","","","","",""
"","correct","82","536974","0.0-51.0-0.0","""event"",""trial"",""time""
""fullscreenenter"",""0"",""2489""
","
","
","""event"",""trial"",""time""
""fullscreenenter"",""0"",""2489""
","
","null","run_exp/static/audio/clip_18_correct.m4a","null","","","","","<div class='center'><p>That's correct!</p></div>","","","","","","","","","","","","","","","","","",""
"","html-keyboard-response","83","538160","0.0-51.0-1.0","""event"",""trial"",""time""
""fullscreenenter"",""0"",""2489""
","
","
","""event"",""trial"",""time""
""fullscreenenter"",""0"",""2489""
","
","1184.8999999761581","<div class='center'><p>That's correct!</p><p><b>[Press the space bar to continue]</b></p></div>","32","","","","","","","","","","","","","","","","","","","","","","",""
"","audio-keyboard-response","84","542794","0.0-51.0-2.0","""event"",""trial"",""time""
""fullscreenenter"",""0"",""2489""
","
","
","""event"",""trial"",""time""
""fullscreenenter"",""0"",""2489""
","
","4632.5","run_exp/static/audio/clip_24_q4.m4a","49","","","","","","","","","","","","","","","","","","","","","","",""
"","correct","85","545379","0.0-52.0-0.0","""event"",""trial"",""time""
""fullscreenenter"",""0"",""2489""
","
","
","""event"",""trial"",""time""
""fullscreenenter"",""0"",""2489""
","
","null","run_exp/static/audio/clip_18_correct.m4a","null","","","","","<div class='center'><p>That's correct!</p></div>","","","","","","","","","","","","","","","","","",""
"","html-keyboard-response","86","546615","0.0-52.0-1.0","""event"",""trial"",""time""
""fullscreenenter"",""0"",""2489""
","
","
","""event"",""trial"",""time""
""fullscreenenter"",""0"",""2489""
","
","1234.5999999046326","<div class='center'><p>That's correct!</p><p><b>[Press the space bar to continue]</b></p></div>","32","","","","","","","","","","","","","","","","","","","","","","",""
"","q_all_err","87","553016","0.0-53.0-0.0","""event"",""trial"",""time""
""fullscreenenter"",""0"",""2489""
","
","
","""event"",""trial"",""time""
""fullscreenenter"",""0"",""2489""
","
","null","run_exp/static/audio/clip_26_quiz_redo.m4a","null","","","","","<div class='center'><p>Oops, you missed some questions. Now that you’ve heard the correct answers. Try the quiz again! </p></div>","","","","","","","","","","","","","","","","","",""
"","html-keyboard-response","88","554408","0.0-53.0-1.0","""event"",""trial"",""time""
""fullscreenenter"",""0"",""2489""
","
","
","""event"",""trial"",""time""
""fullscreenenter"",""0"",""2489""
","
","1390.6000000238419","<div class='center'><p>Oops, you missed some questions. Now that you’ve heard the correct answers. Try the quiz again! </p><p><b>[Press the space bar to continue]</b></p></div>","32","","","","","","","","","","","","","","","","","","","","","","",""
"","audio-keyboard-response","89","557588","0.0-53.0-2.0","""event"",""trial"",""time""
""fullscreenenter"",""0"",""2489""
","
","
","""event"",""trial"",""time""
""fullscreenenter"",""0"",""2489""
","
","3179.1999999284744","run_exp/static/audio/clip_17_q1.m4a","49","","","","","","","","","","","","","","","","","","","","","","",""
"","correct","90","560163","0.0-54.0-0.0","""event"",""trial"",""time""
""fullscreenenter"",""0"",""2489""
","
","
","""event"",""trial"",""time""
""fullscreenenter"",""0"",""2489""
","
","null","run_exp/static/audio/clip_18_correct.m4a","null","","","","","<div class='center'><p>That's correct!</p></div>","","","","","","","","","","","","","","","","","",""
"","html-keyboard-response","91","561618","0.0-54.0-1.0","""event"",""trial"",""time""
""fullscreenenter"",""0"",""2489""
","
","
","""event"",""trial"",""time""
""fullscreenenter"",""0"",""2489""
","
","1454.3999999761581","<div class='center'><p>That's correct!</p><p><b>[Press the space bar to continue]</b></p></div>","32","","","","","","","","","","","","","","","","","","","","","","",""
"","audio-keyboard-response","92","570913","0.0-54.0-2.0","""event"",""trial"",""time""
""fullscreenenter"",""0"",""2489""
","
","
","""event"",""trial"",""time""
""fullscreenenter"",""0"",""2489""
","
","9294.700000047684","run_exp/static/audio/clip_20_q2.m4a","50","","","","","","","","","","","","","","","","","","","","","","",""
"","correct","93","573495","0.0-55.0-0.0","""event"",""trial"",""time""
""fullscreenenter"",""0"",""2489""
","
","
","""event"",""trial"",""time""
""fullscreenenter"",""0"",""2489""
","
","null","run_exp/static/audio/clip_18_correct.m4a","null","","","","","<div class='center'><p>That's correct!</p></div>","","","","","","","","","","","","","","","","","",""
"","html-keyboard-response","94","574632","0.0-55.0-1.0","""event"",""trial"",""time""
""fullscreenenter"",""0"",""2489""
","
","
","""event"",""trial"",""time""
""fullscreenenter"",""0"",""2489""
","
","1135.2999999523163","<div class='center'><p>That's correct!</p><p><b>[Press the space bar to continue]</b></p></div>","32","","","","","","","","","","","","","","","","","","","","","","",""
"","audio-keyboard-response","95","581560","0.0-55.0-2.0","""event"",""trial"",""time""
""fullscreenenter"",""0"",""2489""
","
","
","""event"",""trial"",""time""
""fullscreenenter"",""0"",""2489""
","
","6927.700000047684","run_exp/static/audio/clip_22_q3.m4a","50","","","","","","","","","","","","","","","","","","","","","","",""
"","correct","96","584141","0.0-56.0-0.0","""event"",""trial"",""time""
""fullscreenenter"",""0"",""2489""
","
","
","""event"",""trial"",""time""
""fullscreenenter"",""0"",""2489""
","
","null","run_exp/static/audio/clip_18_correct.m4a","null","","","","","<div class='center'><p>That's correct!</p></div>","","","","","","","","","","","","","","","","","",""
"","html-keyboard-response","97","585289","0.0-56.0-1.0","""event"",""trial"",""time""
""fullscreenenter"",""0"",""2489""
","
","
","""event"",""trial"",""time""
""fullscreenenter"",""0"",""2489""
","
","1146.7999999523163","<div class='center'><p>That's correct!</p><p><b>[Press the space bar to continue]</b></p></div>","32","","","","","","","","","","","","","","","","","","","","","","",""
"","audio-keyboard-response","98","590178","0.0-56.0-2.0","""event"",""trial"",""time""
""fullscreenenter"",""0"",""2489""
","
","
","""event"",""trial"",""time""
""fullscreenenter"",""0"",""2489""
","
","4887.799999952316","run_exp/static/audio/clip_24_q4.m4a","49","","","","","","","","","","","","","","","","","","","","","","",""
"","correct","99","592909","0.0-57.0-0.0","""event"",""trial"",""time""
""fullscreenenter"",""0"",""2489""
","
","
","""event"",""trial"",""time""
""fullscreenenter"",""0"",""2489""
","
","null","run_exp/static/audio/clip_18_correct.m4a","null","","","","","<div class='center'><p>That's correct!</p></div>","","","","","","","","","","","","","","","","","",""
"","html-keyboard-response","100","594070","0.0-57.0-1.0","""event"",""trial"",""time""
""fullscreenenter"",""0"",""2489""
","
","
","""event"",""trial"",""time""
""fullscreenenter"",""0"",""2489""
","
","1159.6999999284744","<div class='center'><p>That's correct!</p><p><b>[Press the space bar to continue]</b></p></div>","32","","","","","","","","","","","","","","","","","","","","","","",""
"","q_all_corr","101","602785","0.0-58.0-0.0","""event"",""trial"",""time""
""fullscreenenter"",""0"",""2489""
","
","
","""event"",""trial"",""time""
""fullscreenenter"",""0"",""2489""
","
","null","run_exp/static/audio/clip_27_quiz_all_correct.m4a","null","","","","","<div class='center'><p>Good job! You’re now ready to move on to the real game! Remember this game will be difficult but don't get discouraged and try your best!</p></div>","","","","","","","","","","","","","","","","","",""
"","html-keyboard-response","102","604891","0.0-58.0-1.0","""event"",""trial"",""time""
""fullscreenenter"",""0"",""2489""
","
","
","""event"",""trial"",""time""
""fullscreenenter"",""0"",""2489""
","
","2103.7000000476837","<div class='center'><p>Good job! You’re now ready to move on to the real game! Remember this game will be difficult but don't get discouraged and try your best!</p><p><b>[Press the space bar to continue]</b></p></div>","32","","","","","","","","","","","","","","","","","","","","","","",""
"","do_welcome","103","608903","0.0-59.0-0.0","""event"",""trial"",""time""
""fullscreenenter"",""0"",""2489""
","
","
","""event"",""trial"",""time""
""fullscreenenter"",""0"",""2489""
","
","null","","","","","","","","null","","","","","","","","","","","","","","","","",""
"","do_trial","104","614859","0.0-60.0-0.0","""event"",""trial"",""time""
""fullscreenenter"",""0"",""2489""
","
","
","""event"",""trial"",""time""
""fullscreenenter"",""0"",""2489""
","
","1391.8999999761581","","","","","","","","50","1,0,0","0","forest","0","probe-14","0.6","0.3","0.1","0","","","","","","","",""
"","html-keyboard-response","105","615866","0.0-60.0-1.0","""event"",""trial"",""time""
""fullscreenenter"",""0"",""2489""
","
","
","""event"",""trial"",""time""
""fullscreenenter"",""0"",""2489""
","
","null","<p></p>","null","","","","","","","","","","","","","","","","","","","","","","",""
"","do_trial","106","621081","0.0-61.0-0.0","""event"",""trial"",""time""
""fullscreenenter"",""0"",""2489""
","
","
","""event"",""trial"",""time""
""fullscreenenter"",""0"",""2489""
","
","649.6999999284744","","","","","","","","51","1,0,0","0","forest","1","probe-151","0.6023597713688481","0.15963671285402117","0.1062284789055162","0","","","","","","","",""
"","html-keyboard-response","107","622087","0.0-61.0-1.0","""event"",""trial"",""time""
""fullscreenenter"",""0"",""2489""
","
","
","""event"",""trial"",""time""
""fullscreenenter"",""0"",""2489""
","
","null","<p></p>","null","","","","","","","","","","","","","","","","","","","","","","",""
"","do_trial","108","627045","0.0-62.0-0.0","""event"",""trial"",""time""
""fullscreenenter"",""0"",""2489""
","
","
","""event"",""trial"",""time""
""fullscreenenter"",""0"",""2489""
","
","391.7999999523163","","","","","","","","49","1,0,0","0","forest","2","probe-126","0.6235855804654105","0.20617511637947303","0.10627785083713598","1","","","","","","","",""
"","html-keyboard-response","109","628051","0.0-62.0-1.0","""event"",""trial"",""time""
""fullscreenenter"",""0"",""2489""
","
","
","""event"",""trial"",""time""
""fullscreenenter"",""0"",""2489""
","
","null","<p></p>","null","","","","","","","","","","","","","","","","","","","","","","",""
"","do_trial","110","634269","0.0-63.0-0.0","""event"",""trial"",""time""
""fullscreenenter"",""0"",""2489""
","
","
","""event"",""trial"",""time""
""fullscreenenter"",""0"",""2489""
","
","1570.2999999523163","","","","","","","","51","1,0,0","0","forest","3","probe-142","0.5558092829182771","0.23469091908083797","0.06261091848251679","0","","","","","","","",""
"","html-keyboard-response","111","635276","0.0-63.0-1.0","""event"",""trial"",""time""
""fullscreenenter"",""0"",""2489""
","
","
","""event"",""trial"",""time""
""fullscreenenter"",""0"",""2489""
","
","null","<p></p>","null","","","","","","","","","","","","","","","","","","","","","","",""
"","do_trial","112","640193","0.0-64.0-0.0","""event"",""trial"",""time""
""fullscreenenter"",""0"",""2489""
","
","
","""event"",""trial"",""time""
""fullscreenenter"",""0"",""2489""
","
","354","","","","","","","","50","1,1,1","0","forest","4","probe-03","0.4159824971729809","0.3071667526918014","0.14476060970704022","1","","","","","","","",""
"","html-keyboard-response","113","641195","0.0-64.0-1.0","""event"",""trial"",""time""
""fullscreenenter"",""0"",""2489""
","
","
","""event"",""trial"",""time""
""fullscreenenter"",""0"",""2489""
","
","null","<p></p>","null","","","","","","","","","","","","","","","","","","","","","","",""
"","do_trial","114","646523","0.0-65.0-0.0","""event"",""trial"",""time""
""fullscreenenter"",""0"",""2489""
","
","
","""event"",""trial"",""time""
""fullscreenenter"",""0"",""2489""
","
","766.4000000953674","","","","","","","","50","0,0,0","0","forest","5","probe-10","0.5155571595303734","0.5290759095919397","0.1328859865849379","0","","","","","","","",""
"","html-keyboard-response","115","647527","0.0-65.0-1.0","""event"",""trial"",""time""
""fullscreenenter"",""0"",""2489""
","
","
","""event"",""trial"",""time""
""fullscreenenter"",""0"",""2489""
","
","null","<p></p>","null","","","","","","","","","","","","","","","","","","","","","","",""
"","do_trial","116","652623","0.0-66.0-0.0","""event"",""trial"",""time""
""fullscreenenter"",""0"",""2489""
","
","
","""event"",""trial"",""time""
""fullscreenenter"",""0"",""2489""
","
","531.2000000476837","","","","","","","","49","0,1,0","0","forest","6","probe-135","0.5727802408635008","0.5505958881496191","0.27715751045394477","0","","","","","","","",""
"","html-keyboard-response","117","653629","0.0-66.0-1.0","""event"",""trial"",""time""
""fullscreenenter"",""0"",""2489""
","
","
","""event"",""trial"",""time""
""fullscreenenter"",""0"",""2489""
","
","null","<p></p>","null","","","","","","","","","","","","","","","","","","","","","","",""
"","do_trial","118","658743","0.0-67.0-0.0","""event"",""trial"",""time""
""fullscreenenter"",""0"",""2489""
","
","
","""event"",""trial"",""time""
""fullscreenenter"",""0"",""2489""
","
","549.9000000953674","","","","","","","","51","1,1,0","0","forest","7","probe-154","0.5325202377269038","0.5211022612242341","0.08667883690638484","0","","","","","","","",""
"","html-keyboard-response","119","659751","0.0-67.0-1.0","""event"",""trial"",""time""
""fullscreenenter"",""0"",""2489""
","
","
","""event"",""trial"",""time""
""fullscreenenter"",""0"",""2489""
","
","null","<p></p>","null","","","","","","","","","","","","","","","","","","","","","","",""
"","do_trial","120","664691","0.0-68.0-0.0","""event"",""trial"",""time""
""fullscreenenter"",""0"",""2489""
","
","
","""event"",""trial"",""time""
""fullscreenenter"",""0"",""2489""
","
","371.09999990463257","","","","","","","","50","0,0,0","0","forest","8","probe-105","0.4611006138584346","0.44917778066023273","0.08919082960721335","0","","","","","","","",""
"","html-keyboard-response","121","665697","0.0-68.0-1.0","""event"",""trial"",""time""
""fullscreenenter"",""0"",""2489""
","
","
","""event"",""trial"",""time""
""fullscreenenter"",""0"",""2489""
","
","null","<p></p>","null","","","","","","","","","","","","","","","","","","","","","","",""
"","do_trial","122","670678","0.0-69.0-0.0","""event"",""trial"",""time""
""fullscreenenter"",""0"",""2489""
","
","
","""event"",""trial"",""time""
""fullscreenenter"",""0"",""2489""
","
","415.89999997615814","","","","","","","","49","1,1,0","0","forest","9","probe-50","0.6251926078529876","0.465175255639146","0.07757553982177294","1","","","","","","","",""
"","html-keyboard-response","123","671685","0.0-69.0-1.0","""event"",""trial"",""time""
""fullscreenenter"",""0"",""2489""
","
","
","""event"",""trial"",""time""
""fullscreenenter"",""0"",""2489""
","
","null","<p></p>","null","","","","","","","","","","","","","","","","","","","","","","",""
"","do_trial","124","676752","0.0-70.0-0.0","""event"",""trial"",""time""
""fullscreenenter"",""0"",""2489""
","
","
","""event"",""trial"",""time""
""fullscreenenter"",""0"",""2489""
","
","503.7999999523163","","","","","","","","49","1,0,0","0","forest","10","probe-19","0.5164638025342201","0.3522525408662278","0.14906351124736528","1","","","","","","","",""
"","html-keyboard-response","125","677758","0.0-70.0-1.0","""event"",""trial"",""time""
""fullscreenenter"",""0"",""2489""
","
","
","""event"",""trial"",""time""
""fullscreenenter"",""0"",""2489""
","
","null","<p></p>","null","","","","","","","","","","","","","","","","","","","","","","",""
"","do_trial","126","682892","0.0-71.0-0.0","""event"",""trial"",""time""
""fullscreenenter"",""0"",""2489""
","
","
","""event"",""trial"",""time""
""fullscreenenter"",""0"",""2489""
","
","572.7999999523163","","","","","","","","50","1,0,0","0","forest","11","probe-27","0.6141687437824589","0.35075403015641515","0.15247023813918736","0","","","","","","","",""
"","html-keyboard-response","127","683897","0.0-71.0-1.0","""event"",""trial"",""time""
""fullscreenenter"",""0"",""2489""
","
","
","""event"",""trial"",""time""
""fullscreenenter"",""0"",""2489""
","
","null","<p></p>","null","","","","","","","","","","","","","","","","","","","","","","",""
"","do_trial","128","688902","0.0-72.0-0.0","""event"",""trial"",""time""
""fullscreenenter"",""0"",""2489""
","
","
","""event"",""trial"",""time""
""fullscreenenter"",""0"",""2489""
","
","438.7999999523163","","","","","","","","49","0,0,0","0","forest","12","probe-169","0.7093669381402415","0.2327217777854732","0.0974665194742571","0","","","","","","","",""
"","html-keyboard-response","129","689908","0.0-72.0-1.0","""event"",""trial"",""time""
""fullscreenenter"",""0"",""2489""
","
","
","""event"",""trial"",""time""
""fullscreenenter"",""0"",""2489""
","
","null","<p></p>","null","","","","","","","","","","","","","","","","","","","","","","",""
"","do_trial","130","694966","0.0-73.0-0.0","""event"",""trial"",""time""
""fullscreenenter"",""0"",""2489""
","
","
","""event"",""trial"",""time""
""fullscreenenter"",""0"",""2489""
","
","496","","","","","","","","50","1,0,0","0","forest","13","probe-195","0.6423581268888914","0.21515512400976455","0.19541925940519875","0","","","","","","","",""
"","html-keyboard-response","131","695972","0.0-73.0-1.0","""event"",""trial"",""time""
""fullscreenenter"",""0"",""2489""
","
","
","""event"",""trial"",""time""
""fullscreenenter"",""0"",""2489""
","
","null","<p></p>","null","","","","","","","","","","","","","","","","","","","","","","",""
"","do_trial","132","700927","0.0-74.0-0.0","""event"",""trial"",""time""
""fullscreenenter"",""0"",""2489""
","
","
","""event"",""trial"",""time""
""fullscreenenter"",""0"",""2489""
","
","393.5","","","","","","","","51","1,0,1","0","forest","14","probe-53","0.678744847135205","0.3205606600402024","0.07789800776993047","1","","","","","","","",""
"","html-keyboard-response","133","701934","0.0-74.0-1.0","""event"",""trial"",""time""
""fullscreenenter"",""0"",""2489""
","
","
","""event"",""trial"",""time""
""fullscreenenter"",""0"",""2489""
","
","null","<p></p>","null","","","","","","","","","","","","","","","","","","","","","","",""
"","do_trial","134","706984","0.0-75.0-0.0","""event"",""trial"",""time""
""fullscreenenter"",""0"",""2489""
","
","
","""event"",""trial"",""time""
""fullscreenenter"",""0"",""2489""
","
","433.60000002384186","","","","","","","","49","1,0,1","0","forest","15","probe-98","0.6219515395930871","0.22147288549589647","0.2219126732763133","1","","","","","","","",""
"","html-keyboard-response","135","707990","0.0-75.0-1.0","""event"",""trial"",""time""
""fullscreenenter"",""0"",""2489""
","
","
","""event"",""trial"",""time""
""fullscreenenter"",""0"",""2489""
","
","null","<p></p>","null","","","","","","","","","","","","","","","","","","","","","","",""
"","do_trial","136","713094","0.0-76.0-0.0","""event"",""trial"",""time""
""fullscreenenter"",""0"",""2489""
","
","
","""event"",""trial"",""time""
""fullscreenenter"",""0"",""2489""
","
","540.6000000238419","","","","","","","","49","1,0,1","0","forest","16","probe-140","0.5182543016216122","0.23344768427071594","0.16070334779088963","1","","","","","","","",""
"","html-keyboard-response","137","714100","0.0-76.0-1.0","""event"",""trial"",""time""
""fullscreenenter"",""0"",""2489""
","
","
","""event"",""trial"",""time""
""fullscreenenter"",""0"",""2489""
","
","null","<p></p>","null","","","","","","","","","","","","","","","","","","","","","","",""
"","do_trial","138","719388","0.0-77.0-0.0","""event"",""trial"",""time""
""fullscreenenter"",""0"",""2489""
","
","
","""event"",""trial"",""time""
""fullscreenenter"",""0"",""2489""
","
","708.6000000238419","","","","","","","","49","0,1,0","0","forest","17","probe-106","0.4011768589394909","0.3351082986076376","0.1749171140622098","0","","","","","","","",""
"","html-keyboard-response","139","720395","0.0-77.0-1.0","""event"",""trial"",""time""
""fullscreenenter"",""0"",""2489""
","
","
","""event"",""trial"",""time""
""fullscreenenter"",""0"",""2489""
","
","null","<p></p>","null","","","","","","","","","","","","","","","","","","","","","","",""
"","do_trial","140","725504","0.0-78.0-0.0","""event"",""trial"",""time""
""fullscreenenter"",""0"",""2489""
","
","
","""event"",""trial"",""time""
""fullscreenenter"",""0"",""2489""
","
","545.2999999523163","","","","","","","","51","0,0,0","0","forest","18","probe-212","0.44100122403738895","0.39304002048404485","0.1458514712052514","0","","","","","","","",""
"","html-keyboard-response","141","726506","0.0-78.0-1.0","""event"",""trial"",""time""
""fullscreenenter"",""0"",""2489""
","
","
","""event"",""trial"",""time""
""fullscreenenter"",""0"",""2489""
","
","null","<p></p>","null","","","","","","","","","","","","","","","","","","","","","","",""
"","do_trial","142","731568","0.0-79.0-0.0","""event"",""trial"",""time""
""fullscreenenter"",""0"",""2489""
","
","
","""event"",""trial"",""time""
""fullscreenenter"",""0"",""2489""
","
","524.2000000476837","","","","","","","","49","0,1,0","0","forest","19","probe-174","0.4555349073705682","0.4884127995509979","0.1321230807802872","0","","","","","","","",""
"","html-keyboard-response","143","732572","0.0-79.0-1.0","""event"",""trial"",""time""
""fullscreenenter"",""0"",""2489""
","
","
","""event"",""trial"",""time""
""fullscreenenter"",""0"",""2489""
","
","null","<p></p>","null","","","","","","","","","","","","","","","","","","","","","","",""
"","do_trial","144","737502","0.0-80.0-0.0","""event"",""trial"",""time""
""fullscreenenter"",""0"",""2489""
","
","
","""event"",""trial"",""time""
""fullscreenenter"",""0"",""2489""
","
","365","","","","","","","","50","1,0,0","0","forest","20","probe-88","0.6021169344465187","0.28841497387482434","0.11328868500621322","0","","","","","","","",""
"","html-keyboard-response","145","738508","0.0-80.0-1.0","""event"",""trial"",""time""
""fullscreenenter"",""0"",""2489""
","
","
","""event"",""trial"",""time""
""fullscreenenter"",""0"",""2489""
","
","null","<p></p>","null","","","","","","","","","","","","","","","","","","","","","","",""
"","do_trial","146","743517","0.0-81.0-0.0","""event"",""trial"",""time""
""fullscreenenter"",""0"",""2489""
","
","
","""event"",""trial"",""time""
""fullscreenenter"",""0"",""2489""
","
","437.89999997615814","","","","","","","","49","0,1,0","0","forest","21","probe-85","0.49481896628310157","0.31497971433751815","0.05976812219612176","0","","","","","","","",""
"","html-keyboard-response","147","744525","0.0-81.0-1.0","""event"",""trial"",""time""
""fullscreenenter"",""0"",""2489""
","
","
","""event"",""trial"",""time""
""fullscreenenter"",""0"",""2489""
","
","null","<p></p>","null","","","","","","","","","","","","","","","","","","","","","","",""
"","do_trial","148","749501","0.0-82.0-0.0","""event"",""trial"",""time""
""fullscreenenter"",""0"",""2489""
","
","
","""event"",""trial"",""time""
""fullscreenenter"",""0"",""2489""
","
","414.60000002384186","","","","","","","","51","1,1,0","0","forest","22","probe-187","0.5731613408906948","0.5479364154288435","0.08069988506762472","0","","","","","","","",""
"","html-keyboard-response","149","750507","0.0-82.0-1.0","""event"",""trial"",""time""
""fullscreenenter"",""0"",""2489""
","
","
","""event"",""trial"",""time""
""fullscreenenter"",""0"",""2489""
","
","null","<p></p>","null","","","","","","","","","","","","","","","","","","","","","","",""
"","do_trial","150","755441","0.0-83.0-0.0","""event"",""trial"",""time""
""fullscreenenter"",""0"",""2489""
","
","
","""event"",""trial"",""time""
""fullscreenenter"",""0"",""2489""
","
","372.2999999523163","","","","","","","","50","0,1,0","0","forest","23","probe-100","0.5389118745232998","0.38959047477388203","0.14561421759301182","1","","","","","","","",""
"","html-keyboard-response","151","756447","0.0-83.0-1.0","""event"",""trial"",""time""
""fullscreenenter"",""0"",""2489""
","
","
","""event"",""trial"",""time""
""fullscreenenter"",""0"",""2489""
","
","null","<p></p>","null","","","","","","","","","","","","","","","","","","","","","","",""
"","do_trial","152","761406","0.0-84.0-0.0","""event"",""trial"",""time""
""fullscreenenter"",""0"",""2489""
","
","
","""event"",""trial"",""time""
""fullscreenenter"",""0"",""2489""
","
","393.5","","","","","","","","49","1,0,0","0","forest","24","probe-07","0.5139727768605977","0.30582954550777247","0.10898540700706454","1","","","","","","","",""
"","html-keyboard-response","153","762411","0.0-84.0-1.0","""event"",""trial"",""time""
""fullscreenenter"",""0"",""2489""
","
","
","""event"",""trial"",""time""
""fullscreenenter"",""0"",""2489""
","
","null","<p></p>","null","","","","","","","","","","","","","","","","","","","","","","",""
"","do_trial","154","768335","0.0-85.0-0.0","""event"",""trial"",""time""
""fullscreenenter"",""0"",""2489""
","
","
","""event"",""trial"",""time""
""fullscreenenter"",""0"",""2489""
","
","1342.2999999523163","","","","","","","","49","0,1,0","0","forest","25","probe-124","0.790549723695124","0.34316481687626416","0.18622718969531488","0","","","","","","","",""
"","html-keyboard-response","155","769339","0.0-85.0-1.0","""event"",""trial"",""time""
""fullscreenenter"",""0"",""2489""
","
","
","""event"",""trial"",""time""
""fullscreenenter"",""0"",""2489""
","
","null","<p></p>","null","","","","","","","","","","","","","","","","","","","","","","",""
"","do_trial","156","774322","0.0-86.0-0.0","""event"",""trial"",""time""
""fullscreenenter"",""0"",""2489""
","
","
","""event"",""trial"",""time""
""fullscreenenter"",""0"",""2489""
","
","422.3000000715256","","","","","","","","50","1,0,0","0","forest","26","probe-136","0.6892208391873113","0.5384437103215362","0.27556399874508286","0","","","","","","","",""
"","html-keyboard-response","157","775328","0.0-86.0-1.0","""event"",""trial"",""time""
""fullscreenenter"",""0"",""2489""
","
","
","""event"",""trial"",""time""
""fullscreenenter"",""0"",""2489""
","
","null","<p></p>","null","","","","","","","","","","","","","","","","","","","","","","",""
"","do_trial","158","780293","0.0-87.0-0.0","""event"",""trial"",""time""
""fullscreenenter"",""0"",""2489""
","
","
","""event"",""trial"",""time""
""fullscreenenter"",""0"",""2489""
","
","399.60000002384186","","","","","","","","51","1,0,0","0","forest","27","probe-04","0.7204296280325108","0.3238113195812953","0.29975098774591646","0","","","","","","","",""
"","html-keyboard-response","159","781300","0.0-87.0-1.0","""event"",""trial"",""time""
""fullscreenenter"",""0"",""2489""
","
","
","""event"",""trial"",""time""
""fullscreenenter"",""0"",""2489""
","
","null","<p></p>","null","","","","","","","","","","","","","","","","","","","","","","",""
"","do_trial","160","786315","0.0-88.0-0.0","""event"",""trial"",""time""
""fullscreenenter"",""0"",""2489""
","
","
","""event"",""trial"",""time""
""fullscreenenter"",""0"",""2489""
","
","450.89999997615814","","","","","","","","49","1,0,1","0","forest","28","probe-168","0.5598436527931671","0.2487138751606518","0.3455817877175871","1","","","","","","","",""
"","html-keyboard-response","161","787323","0.0-88.0-1.0","""event"",""trial"",""time""
""fullscreenenter"",""0"",""2489""
","
","
","""event"",""trial"",""time""
""fullscreenenter"",""0"",""2489""
","
","null","<p></p>","null","","","","","","","","","","","","","","","","","","","","","","",""
"","do_trial","162","792373","0.0-89.0-0.0","""event"",""trial"",""time""
""fullscreenenter"",""0"",""2489""
","
","
","""event"",""trial"",""time""
""fullscreenenter"",""0"",""2489""
","
","490.89999997615814","","","","","","","","49","0,0,0","0","forest","29","probe-166","0.4586400156323581","0.38650689251098586","0.41013071749125135","0","","","","","","","",""
"","html-keyboard-response","163","793379","0.0-89.0-1.0","""event"",""trial"",""time""
""fullscreenenter"",""0"",""2489""
","
","
","""event"",""trial"",""time""
""fullscreenenter"",""0"",""2489""
","
","null","<p></p>","null","","","","","","","","","","","","","","","","","","","","","","",""
"","do_bye","164","794890","0.0-90.0-0.0","""event"",""trial"",""time""
""fullscreenenter"",""0"",""2489""
","
","
","""event"",""trial"",""time""
""fullscreenenter"",""0"",""2489""
","
","null","","","","","","","","null","","","","","","","","","","","","","","","","",""
"","break","165","799166","0.0-90.0-1.0","""event"",""trial"",""time""
""fullscreenenter"",""0"",""2489""
","
","
","""event"",""trial"",""time""
""fullscreenenter"",""0"",""2489""
","
","4274","<div class='center'><p>Time to take a quick break! You have 2 minutes to rest, but you can move on sooner if you'd like.</p><p> Press the <b>space bar</b> to continue.</p></div>","32","","","","","","","","","","","","","","","","","","","","","","",""
"","do_travel","166","808171","0.0-91.0-0.0","""event"",""trial"",""time""
""fullscreenenter"",""0"",""2489""
","
","
","""event"",""trial"",""time""
""fullscreenenter"",""0"",""2489""
","
","null","","","","","","","","null","","","","","","","","","","","","","","","","",""
"","do_welcome","167","812184","0.0-91.0-1.0","""event"",""trial"",""time""
""fullscreenenter"",""0"",""2489""
","
","
","""event"",""trial"",""time""
""fullscreenenter"",""0"",""2489""
","
","null","","","","","","","","null","","","","","","","","","","","","","","","","",""
"","do_trial","168","818255","0.0-92.0-0.0","""event"",""trial"",""time""
""fullscreenenter"",""0"",""2489""
","
","
","""event"",""trial"",""time""
""fullscreenenter"",""0"",""2489""
","
","null","","","","","","","","null","1,0,0","1","mountain","30","probe-58","1","0.20658917595315587","0.30339663342769213","","","","","","","","",""
"","html-keyboard-response","169","819261","0.0-92.0-1.0","""event"",""trial"",""time""
""fullscreenenter"",""0"",""2489""
","
","
","""event"",""trial"",""time""
""fullscreenenter"",""0"",""2489""
","
","null","<p></p>","null","","","","","","","","","","","","","","","","","","","","","","",""
"","do_trial","170","824278","0.0-93.0-0.0","""event"",""trial"",""time""
""fullscreenenter"",""0"",""2489""
","
","
","""event"",""trial"",""time""
""fullscreenenter"",""0"",""2489""
","
","454.1999999284744","","","","","","","","49","1,1,0","1","mountain","31","probe-90","1","0.28161262514680196","0.29480061097057053","1","","","","","","","",""
"","html-keyboard-response","171","825285","0.0-93.0-1.0","""event"",""trial"",""time""
""fullscreenenter"",""0"",""2489""
","
","
","""event"",""trial"",""time""
""fullscreenenter"",""0"",""2489""
","
","null","<p></p>","null","","","","","","","","","","","","","","","","","","","","","","",""
"","do_trial","172","830307","0.0-94.0-0.0","""event"",""trial"",""time""
""fullscreenenter"",""0"",""2489""
","
","
","""event"",""trial"",""time""
""fullscreenenter"",""0"",""2489""
","
","459.10000002384186","","","","","","","","50","1,0,0","1","mountain","32","probe-66","1","0.33301806271955786","0.14525971661191212","0","","","","","","","",""
"","html-keyboard-response","173","831315","0.0-94.0-1.0","""event"",""trial"",""time""
""fullscreenenter"",""0"",""2489""
","
","
","""event"",""trial"",""time""
""fullscreenenter"",""0"",""2489""
","
","null","<p></p>","null","","","","","","","","","","","","","","","","","","","","","","",""
"","do_trial","174","836335","0.0-95.0-0.0","""event"",""trial"",""time""
""fullscreenenter"",""0"",""2489""
","
","
","""event"",""trial"",""time""
""fullscreenenter"",""0"",""2489""
","
","453.7000000476837","","","","","","","","51","1,0,1","1","mountain","33","probe-68","0.7204951470061768","0.270284065758865","0.0766032724635057","1","","","","","","","",""
"","html-keyboard-response","175","837342","0.0-95.0-1.0","""event"",""trial"",""time""
""fullscreenenter"",""0"",""2489""
","
","
","""event"",""trial"",""time""
""fullscreenenter"",""0"",""2489""
","
","null","<p></p>","null","","","","","","","","","","","","","","","","","","","","","","",""
"","do_trial","176","842372","0.0-96.0-0.0","""event"",""trial"",""time""
""fullscreenenter"",""0"",""2489""
","
","
","""event"",""trial"",""time""
""fullscreenenter"",""0"",""2489""
","
","464.8000000715256","","","","","","","","49","1,1,0","1","mountain","34","probe-213","0.8226367563006278","0.41028382131450536","0.08826930751764442","1","","","","","","","",""
"","html-keyboard-response","177","843377","0.0-96.0-1.0","""event"",""trial"",""time""
""fullscreenenter"",""0"",""2489""
","
","
","""event"",""trial"",""time""
""fullscreenenter"",""0"",""2489""
","
","null","<p></p>","null","","","","","","","","","","","","","","","","","","","","","","",""
"","do_trial","178","848904","0.0-97.0-0.0","""event"",""trial"",""time""
""fullscreenenter"",""0"",""2489""
","
","
","""event"",""trial"",""time""
""fullscreenenter"",""0"",""2489""
","
","965.7000000476837","","","","","","","","49","0,0,0","1","mountain","35","probe-138","0.6378370693130353","0.338793443733184","0.10126390339049589","0","","","","","","","",""
"","html-keyboard-response","179","849908","0.0-97.0-1.0","""event"",""trial"",""time""
""fullscreenenter"",""0"",""2489""
","
","
","""event"",""trial"",""time""
""fullscreenenter"",""0"",""2489""
","
","null","<p></p>","null","","","","","","","","","","","","","","","","","","","","","","",""
"","do_trial","180","855124","0.0-98.0-0.0","""event"",""trial"",""time""
""fullscreenenter"",""0"",""2489""
","
","
","""event"",""trial"",""time""
""fullscreenenter"",""0"",""2489""
","
","652.5","","","","","","","","51","0,1,0","1","mountain","36","probe-148","0.575006439452681","0.42945871874070285","0.19493126767547003","0","","","","","","","",""
"","html-keyboard-response","181","856130","0.0-98.0-1.0","""event"",""trial"",""time""
""fullscreenenter"",""0"",""2489""
","
","
","""event"",""trial"",""time""
""fullscreenenter"",""0"",""2489""
","
","null","<p></p>","null","","","","","","","","","","","","","","","","","","","","","","",""
"","do_trial","182","861268","0.0-99.0-0.0","""event"",""trial"",""time""
""fullscreenenter"",""0"",""2489""
","
","
","""event"",""trial"",""time""
""fullscreenenter"",""0"",""2489""
","
","571.2999999523163","","","","","","","","49","0,1,0","1","mountain","37","probe-145","0.5276566560100316","0.49122002618024324","0.15796357093612767","0","","","","","","","",""
"","html-keyboard-response","183","862273","0.0-99.0-1.0","""event"",""trial"",""time""
""fullscreenenter"",""0"",""2489""
","
","
","""event"",""trial"",""time""
""fullscreenenter"",""0"",""2489""
","
","null","<p></p>","null","","","","","","","","","","","","","","","","","","","","","","",""
"","do_trial","184","867647","0.0-100.0-0.0","""event"",""trial"",""time""
""fullscreenenter"",""0"",""2489""
","
","
","""event"",""trial"",""time""
""fullscreenenter"",""0"",""2489""
","
","809.2000000476837","","","","","","","","50","0,1,0","1","mountain","38","probe-220","0.47033166039064095","0.6009973143782882","0.18592287521027356","1","","","","","","","",""
"","html-keyboard-response","185","868653","0.0-100.0-1.0","""event"",""trial"",""time""
""fullscreenenter"",""0"",""2489""
","
","
","""event"",""trial"",""time""
""fullscreenenter"",""0"",""2489""
","
","null","<p></p>","null","","","","","","","","","","","","","","","","","","","","","","",""
"","do_trial","186","874442","0.0-101.0-0.0","""event"",""trial"",""time""
""fullscreenenter"",""0"",""2489""
","
","
","""event"",""trial"",""time""
""fullscreenenter"",""0"",""2489""
","
","1224.7000000476837","","","","","","","","50","1,0,0","1","mountain","39","probe-130","0.44224436349462026","0.5703085839162744","0.07210858970329724","0","","","","","","","",""
"","html-keyboard-response","187","875447","0.0-101.0-1.0","""event"",""trial"",""time""
""fullscreenenter"",""0"",""2489""
","
","
","""event"",""trial"",""time""
""fullscreenenter"",""0"",""2489""
","
","null","<p></p>","null","","","","","","","","","","","","","","","","","","","","","","",""
"","do_trial","188","880481","0.0-102.0-0.0","""event"",""trial"",""time""
""fullscreenenter"",""0"",""2489""
","
","
","""event"",""trial"",""time""
""fullscreenenter"",""0"",""2489""
","
","470.5","","","","","","","","49","0,1,0","1","mountain","40","probe-156","0.48854352086440567","0.5321764181819232","0.06464641231775478","0","","","","","","","",""
"","html-keyboard-response","189","881487","0.0-102.0-1.0","""event"",""trial"",""time""
""fullscreenenter"",""0"",""2489""
","
","
","""event"",""trial"",""time""
""fullscreenenter"",""0"",""2489""
","
","null","<p></p>","null","","","","","","","","","","","","","","","","","","","","","","",""
"","do_trial","190","886567","0.0-103.0-0.0","""event"",""trial"",""time""
""fullscreenenter"",""0"",""2489""
","
","
","""event"",""trial"",""time""
""fullscreenenter"",""0"",""2489""
","
","519.6999999284744","","","","","","","","51","1,1,0","1","mountain","41","probe-229","0.4766634803588392","0.5770124605601477","0.13579145189858172","0","","","","","","","",""
"","html-keyboard-response","191","887573","0.0-103.0-1.0","""event"",""trial"",""time""
""fullscreenenter"",""0"",""2489""
","
","
","""event"",""trial"",""time""
""fullscreenenter"",""0"",""2489""
","
","null","<p></p>","null","","","","","","","","","","","","","","","","","","","","","","",""
"","do_trial","192","892654","0.0-104.0-0.0","""event"",""trial"",""time""
""fullscreenenter"",""0"",""2489""
","
","
","""event"",""trial"",""time""
""fullscreenenter"",""0"",""2489""
","
","517.3999999761581","","","","","","","","49","0,0,1","1","mountain","42","probe-72","0.3056621755520283","0.5169559990831712","0.2884978143078638","0","","","","","","","",""
"","html-keyboard-response","193","893660","0.0-104.0-1.0","""event"",""trial"",""time""
""fullscreenenter"",""0"",""2489""
","
","
","""event"",""trial"",""time""
""fullscreenenter"",""0"",""2489""
","
","null","<p></p>","null","","","","","","","","","","","","","","","","","","","","","","",""
"","do_trial","194","898567","0.0-105.0-0.0","""event"",""trial"",""time""
""fullscreenenter"",""0"",""2489""
","
","
","""event"",""trial"",""time""
""fullscreenenter"",""0"",""2489""
","
","347.10000002384186","","","","","","","","50","0,1,0","1","mountain","43","probe-93","0.15995858384821726","0.4489553069152059","0.35390530327751796","1","","","","","","","",""
"","html-keyboard-response","195","899575","0.0-105.0-1.0","""event"",""trial"",""time""
""fullscreenenter"",""0"",""2489""
","
","
","""event"",""trial"",""time""
""fullscreenenter"",""0"",""2489""
","
","null","<p></p>","null","","","","","","","","","","","","","","","","","","","","","","",""
"","do_trial","196","904860","0.0-106.0-0.0","""event"",""trial"",""time""
""fullscreenenter"",""0"",""2489""
","
","
","""event"",""trial"",""time""
""fullscreenenter"",""0"",""2489""
","
","720.6000000238419","","","","","","","","50","0,1,1","1","mountain","44","probe-143","0.09553414784331399","0.23477323904738293","0.36813541139586803","1","","","","","","","",""
"","html-keyboard-response","197","905866","0.0-106.0-1.0","""event"",""trial"",""time""
""fullscreenenter"",""0"",""2489""
","
","
","""event"",""trial"",""time""
""fullscreenenter"",""0"",""2489""
","
","null","<p></p>","null","","","","","","","","","","","","","","","","","","","","","","",""
"","do_trial","198","911036","0.0-107.0-0.0","""event"",""trial"",""time""
""fullscreenenter"",""0"",""2489""
","
","
","""event"",""trial"",""time""
""fullscreenenter"",""0"",""2489""
","
","604.3000000715256","","","","","","","","50","0,0,1","1","mountain","45","probe-22","0.1895211972492875","0.33990524301559993","0.45864443230395263","0","","","","","","","",""
"","html-keyboard-response","199","912042","0.0-107.0-1.0","""event"",""trial"",""time""
""fullscreenenter"",""0"",""2489""
","
","
","""event"",""trial"",""time""
""fullscreenenter"",""0"",""2489""
","
","null","<p></p>","null","","","","","","","","","","","","","","","","","","","","","","",""
"","do_trial","200","917015","0.0-108.0-0.0","""event"",""trial"",""time""
""fullscreenenter"",""0"",""2489""
","
","
","""event"",""trial"",""time""
""fullscreenenter"",""0"",""2489""
","
","410","","","","","","","","49","0,0,1","1","mountain","46","probe-114","0.07858363594439774","0.38940246139962875","0.49059858591359445","0","","","","","","","",""
"","html-keyboard-response","201","918018","0.0-108.0-1.0","""event"",""trial"",""time""
""fullscreenenter"",""0"",""2489""
","
","
","""event"",""trial"",""time""
""fullscreenenter"",""0"",""2489""
","
","null","<p></p>","null","","","","","","","","","","","","","","","","","","","","","","",""
"","do_trial","202","923245","0.0-109.0-0.0","""event"",""trial"",""time""
""fullscreenenter"",""0"",""2489""
","
","
","""event"",""trial"",""time""
""fullscreenenter"",""0"",""2489""
","
","666","","","","","","","","51","0,1,1","1","mountain","47","probe-11","0.06388109049161723","0.382848610547318","0.4411171891417289","1","","","","","","","",""
"","html-keyboard-response","203","924253","0.0-109.0-1.0","""event"",""trial"",""time""
""fullscreenenter"",""0"",""2489""
","
","
","""event"",""trial"",""time""
""fullscreenenter"",""0"",""2489""
","
","null","<p></p>","null","","","","","","","","","","","","","","","","","","","","","","",""
"","do_trial","204","929259","0.0-110.0-0.0","""event"",""trial"",""time""
""fullscreenenter"",""0"",""2489""
","
","
","""event"",""trial"",""time""
""fullscreenenter"",""0"",""2489""
","
","429.39999997615814","","","","","","","","49","0,1,0","1","mountain","48","probe-192","0.10776880907132665","0.5025632617722076","0.43618229584986945","0","","","","","","","",""
"","html-keyboard-response","205","930268","0.0-110.0-1.0","""event"",""trial"",""time""
""fullscreenenter"",""0"",""2489""
","
","
","""event"",""trial"",""time""
""fullscreenenter"",""0"",""2489""
","
","null","<p></p>","null","","","","","","","","","","","","","","","","","","","","","","",""
"","do_trial","206","935277","0.0-111.0-0.0","""event"",""trial"",""time""
""fullscreenenter"",""0"",""2489""
","
","
","""event"",""trial"",""time""
""fullscreenenter"",""0"",""2489""
","
","442.60000002384186","","","","","","","","50","1,1,0","1","mountain","49","probe-97","0.11878148171083673","0.5634867316531287","0.5090570306814083","1","","","","","","","",""
"","html-keyboard-response","207","936282","0.0-111.0-1.0","""event"",""trial"",""time""
""fullscreenenter"",""0"",""2489""
","
","
","""event"",""trial"",""time""
""fullscreenenter"",""0"",""2489""
","
","null","<p></p>","null","","","","","","","","","","","","","","","","","","","","","","",""
"","do_trial","208","941547","0.0-112.0-0.0","""event"",""trial"",""time""
""fullscreenenter"",""0"",""2489""
","
","
","""event"",""trial"",""time""
""fullscreenenter"",""0"",""2489""
","
","699.0999999046326","","","","","","","","49","1,0,1","1","mountain","50","probe-117","0.10744959750588917","0.4441897432262696","0.5689067998789845","1","","","","","","","",""
"","html-keyboard-response","209","942551","0.0-112.0-1.0","""event"",""trial"",""time""
""fullscreenenter"",""0"",""2489""
","
","
","""event"",""trial"",""time""
""fullscreenenter"",""0"",""2489""
","
","null","<p></p>","null","","","","","","","","","","","","","","","","","","","","","","",""
"","do_trial","210","947684","0.0-113.0-0.0","""event"",""trial"",""time""
""fullscreenenter"",""0"",""2489""
","
","
","""event"",""trial"",""time""
""fullscreenenter"",""0"",""2489""
","
","567.6999999284744","","","","","","","","51","1,0,0","1","mountain","51","probe-144","0.10497550938198714","0.3675861049146314","0.5078213344768713","0","","","","","","","",""
"","html-keyboard-response","211","948691","0.0-113.0-1.0","""event"",""trial"",""time""
""fullscreenenter"",""0"",""2489""
","
","
","""event"",""trial"",""time""
""fullscreenenter"",""0"",""2489""
","
","null","<p></p>","null","","","","","","","","","","","","","","","","","","","","","","",""
"","do_trial","212","953910","0.0-114.0-0.0","""event"",""trial"",""time""
""fullscreenenter"",""0"",""2489""
","
","
","""event"",""trial"",""time""
""fullscreenenter"",""0"",""2489""
","
","651.8000000715256","","","","","","","","49","0,0,0","1","mountain","52","probe-132","0.15222820995374126","0.3416857385272766","0.6558011847289439","0","","","","","","","",""
"","html-keyboard-response","213","954916","0.0-114.0-1.0","""event"",""trial"",""time""
""fullscreenenter"",""0"",""2489""
","
","
","""event"",""trial"",""time""
""fullscreenenter"",""0"",""2489""
","
","null","<p></p>","null","","","","","","","","","","","","","","","","","","","","","","",""
"","do_trial","214","959885","0.0-115.0-0.0","""event"",""trial"",""time""
""fullscreenenter"",""0"",""2489""
","
","
","""event"",""trial"",""time""
""fullscreenenter"",""0"",""2489""
","
","405.7000000476837","","","","","","","","50","0,0,0","1","mountain","53","probe-09","0.06633396571252649","0.2714510391038777","0.7710513949398415","0","","","","","","","",""
"","html-keyboard-response","215","960891","0.0-115.0-1.0","""event"",""trial"",""time""
""fullscreenenter"",""0"",""2489""
","
","
","""event"",""trial"",""time""
""fullscreenenter"",""0"",""2489""
","
","null","<p></p>","null","","","","","","","","","","","","","","","","","","","","","","",""
"","do_trial","216","966252","0.0-116.0-0.0","""event"",""trial"",""time""
""fullscreenenter"",""0"",""2489""
","
","
","""event"",""trial"",""time""
""fullscreenenter"",""0"",""2489""
","
","800.2999999523163","","","","","","","","51","0,1,0","1","mountain","54","probe-208","0.08297208019713936","0.2128801747639585","0.6164876134182947","0","","","","","","","",""
"","html-keyboard-response","217","967258","0.0-116.0-1.0","""event"",""trial"",""time""
""fullscreenenter"",""0"",""2489""
","
","
","""event"",""trial"",""time""
""fullscreenenter"",""0"",""2489""
","
","null","<p></p>","null","","","","","","","","","","","","","","","","","","","","","","",""
"","do_trial","218","972378","0.0-117.0-0.0","""event"",""trial"",""time""
""fullscreenenter"",""0"",""2489""
","
","
","""event"",""trial"",""time""
""fullscreenenter"",""0"",""2489""
","
","555.2999999523163","","","","","","","","49","1,1,1","1","mountain","55","probe-167","0.14952940477644633","0.21473418668137104","0.6789151193209358","1","","","","","","","",""
"","html-keyboard-response","219","973384","0.0-117.0-1.0","""event"",""trial"",""time""
""fullscreenenter"",""0"",""2489""
","
","
","""event"",""trial"",""time""
""fullscreenenter"",""0"",""2489""
","
","null","<p></p>","null","","","","","","","","","","","","","","","","","","","","","","",""
"","do_trial","220","979019","0.0-118.0-0.0","""event"",""trial"",""time""
""fullscreenenter"",""0"",""2489""
","
","
","""event"",""trial"",""time""
""fullscreenenter"",""0"",""2489""
","
","1070.2000000476837","","","","","","","","49","0,1,0","1","mountain","56","probe-99","0.12168193554772458","0.33630424081167176","0.6490991513582999","0","","","","","","","",""
"","html-keyboard-response","221","980027","0.0-118.0-1.0","""event"",""trial"",""time""
""fullscreenenter"",""0"",""2489""
","
","
","""event"",""trial"",""time""
""fullscreenenter"",""0"",""2489""
","
","null","<p></p>","null","","","","","","","","","","","","","","","","","","","","","","",""
"","do_trial","222","985025","0.0-119.0-0.0","""event"",""trial"",""time""
""fullscreenenter"",""0"",""2489""
","
","
","""event"",""trial"",""time""
""fullscreenenter"",""0"",""2489""
","
","438.6999999284744","","","","","","","","50","0,0,1","1","mountain","57","probe-86","0.05293712277045284","0.2045976358519199","0.6215312687345899","0","","","","","","","",""
"","html-keyboard-response","223","986032","0.0-119.0-1.0","""event"",""trial"",""time""
""fullscreenenter"",""0"",""2489""
","
","
","""event"",""trial"",""time""
""fullscreenenter"",""0"",""2489""
","
","null","<p></p>","null","","","","","","","","","","","","","","","","","","","","","","",""
"","do_trial","224","991256","0.0-120.0-0.0","""event"",""trial"",""time""
""fullscreenenter"",""0"",""2489""
","
","
","""event"",""trial"",""time""
""fullscreenenter"",""0"",""2489""
","
","649.1000000238419","","","","","","","","51","0,0,1","1","mountain","58","probe-215","0.1344875471800369","0.2715830244724213","0.6394248560938326","1","","","","","","","",""
"","html-keyboard-response","225","992262","0.0-120.0-1.0","""event"",""trial"",""time""
""fullscreenenter"",""0"",""2489""
","
","
","""event"",""trial"",""time""
""fullscreenenter"",""0"",""2489""
","
","null","<p></p>","null","","","","","","","","","","","","","","","","","","","","","","",""
"","do_trial","226","998389","0.0-121.0-0.0","""event"",""trial"",""time""
""fullscreenenter"",""0"",""2489""
","
","
","""event"",""trial"",""time""
""fullscreenenter"",""0"",""2489""
","
","1563.2999999523163","","","","","","","","49","0,1,1","1","mountain","59","probe-118","0.12248821998734463","0.35826805677389223","0.5947695036070266","0","","","","","","","",""
"","html-keyboard-response","227","999395","0.0-121.0-1.0","""event"",""trial"",""time""
""fullscreenenter"",""0"",""2489""
","
","
","""event"",""trial"",""time""
""fullscreenenter"",""0"",""2489""
","
","null","<p></p>","null","","","","","","","","","","","","","","","","","","","","","","",""
"","do_trial","228","1004324","0.0-122.0-0.0","""event"",""trial"",""time""
""fullscreenenter"",""0"",""2489""
","
","
","""event"",""trial"",""time""
""fullscreenenter"",""0"",""2489""
","
","356.5","","","","","","","","50","1,0,1","1","mountain","60","probe-177","0.10561536934042856","0.29496196715463663","0.6491115366411585","0","","","","","","","",""
"","html-keyboard-response","229","1005330","0.0-122.0-1.0","""event"",""trial"",""time""
""fullscreenenter"",""0"",""2489""
","
","
","""event"",""trial"",""time""
""fullscreenenter"",""0"",""2489""
","
","null","<p></p>","null","","","","","","","","","","","","","","","","","","","","","","",""
"","do_trial","230","1010356","0.0-123.0-0.0","""event"",""trial"",""time""
""fullscreenenter"",""0"",""2489""
","
","
","""event"",""trial"",""time""
""fullscreenenter"",""0"",""2489""
","
","463.8000000715256","","","","","","","","51","1,1,1","1","mountain","61","probe-73","0.05072340088535498","0.28333868457292477","0.5390779477208336","1","","","","","","","",""
"","html-keyboard-response","231","1011364","0.0-123.0-1.0","""event"",""trial"",""time""
""fullscreenenter"",""0"",""2489""
","
","
","""event"",""trial"",""time""
""fullscreenenter"",""0"",""2489""
","
","null","<p></p>","null","","","","","","","","","","","","","","","","","","","","","","",""
"","do_trial","232","1016308","0.0-124.0-0.0","""event"",""trial"",""time""
""fullscreenenter"",""0"",""2489""
","
","
","""event"",""trial"",""time""
""fullscreenenter"",""0"",""2489""
","
","383.2000000476837","","","","","","","","49","0,0,0","1","mountain","62","probe-223","0.1193937745718124","0.20102935736464844","0.5773805767913208","0","","","","","","","",""
"","html-keyboard-response","233","1017316","0.0-124.0-1.0","""event"",""trial"",""time""
""fullscreenenter"",""0"",""2489""
","
","
","""event"",""trial"",""time""
""fullscreenenter"",""0"",""2489""
","
","null","<p></p>","null","","","","","","","","","","","","","","","","","","","","","","",""
"","do_trial","234","1022362","0.0-125.0-0.0","""event"",""trial"",""time""
""fullscreenenter"",""0"",""2489""
","
","
","""event"",""trial"",""time""
""fullscreenenter"",""0"",""2489""
","
","485.1999999284744","","","","","","","","50","0,0,1","1","mountain","63","probe-102","0.1563802810290112","0.16638165362823176","0.5291402594084021","0","","","","","","","",""
"","html-keyboard-response","235","1023369","0.0-125.0-1.0","""event"",""trial"",""time""
""fullscreenenter"",""0"",""2489""
","
","
","""event"",""trial"",""time""
""fullscreenenter"",""0"",""2489""
","
","null","<p></p>","null","","","","","","","","","","","","","","","","","","","","","","",""
"","do_trial","236","1028412","0.0-126.0-0.0","""event"",""trial"",""time""
""fullscreenenter"",""0"",""2489""
","
","
","""event"",""trial"",""time""
""fullscreenenter"",""0"",""2489""
","
","478.7999999523163","","","","","","","","51","0,0,0","1","mountain","64","probe-198","0.06383704322188226","0.20640788274877428","0.5214998409156566","0","","","","","","","",""
"","html-keyboard-response","237","1029418","0.0-126.0-1.0","""event"",""trial"",""time""
""fullscreenenter"",""0"",""2489""
","
","
","""event"",""trial"",""time""
""fullscreenenter"",""0"",""2489""
","
","null","<p></p>","null","","","","","","","","","","","","","","","","","","","","","","",""
"","do_trial","238","1034382","0.0-127.0-0.0","""event"",""trial"",""time""
""fullscreenenter"",""0"",""2489""
","
","
","""event"",""trial"",""time""
""fullscreenenter"",""0"",""2489""
","
","397.1999999284744","","","","","","","","49","0,1,1","1","mountain","65","probe-211","0.056594748283617734","0.3118433360530058","0.690186118309233","0","","","","","","","",""
"","html-keyboard-response","239","1035387","0.0-127.0-1.0","""event"",""trial"",""time""
""fullscreenenter"",""0"",""2489""
","
","
","""event"",""trial"",""time""
""fullscreenenter"",""0"",""2489""
","
","null","<p></p>","null","","","","","","","","","","","","","","","","","","","","","","",""
"","do_trial","240","1040283","0.0-128.0-0.0","""event"",""trial"",""time""
""fullscreenenter"",""0"",""2489""
","
","
","""event"",""trial"",""time""
""fullscreenenter"",""0"",""2489""
","
","334.2999999523163","","","","","","","","50","1,0,1","1","mountain","66","probe-21","0.09730918621439621","0.4745891619736371","0.6472021361097423","0","","","","","","","",""
"","html-keyboard-response","241","1041290","0.0-128.0-1.0","""event"",""trial"",""time""
""fullscreenenter"",""0"",""2489""
","
","
","""event"",""trial"",""time""
""fullscreenenter"",""0"",""2489""
","
","null","<p></p>","null","","","","","","","","","","","","","","","","","","","","","","",""
"","do_trial","242","1046283","0.0-129.0-0.0","""event"",""trial"",""time""
""fullscreenenter"",""0"",""2489""
","
","
","""event"",""trial"",""time""
""fullscreenenter"",""0"",""2489""
","
","429.5","","","","","","","","49","0,0,1","1","mountain","67","probe-20","0.13543226835350536","0.394761490693119","0.6770101593082001","0","","","","","","","",""
"","html-keyboard-response","243","1047290","0.0-129.0-1.0","""event"",""trial"",""time""
""fullscreenenter"",""0"",""2489""
","
","
","""event"",""trial"",""time""
""fullscreenenter"",""0"",""2489""
","
","null","<p></p>","null","","","","","","","","","","","","","","","","","","","","","","",""
"","do_trial","244","1052275","0.0-130.0-0.0","""event"",""trial"",""time""
""fullscreenenter"",""0"",""2489""
","
","
","""event"",""trial"",""time""
""fullscreenenter"",""0"",""2489""
","
","419.1999999284744","","","","","","","","51","0,0,1","1","mountain","68","probe-178","0.12862349134178935","0.4211267679954501","0.6967046726703011","1","","","","","","","",""
"","html-keyboard-response","245","1053281","0.0-130.0-1.0","""event"",""trial"",""time""
""fullscreenenter"",""0"",""2489""
","
","
","""event"",""trial"",""time""
""fullscreenenter"",""0"",""2489""
","
","null","<p></p>","null","","","","","","","","","","","","","","","","","","","","","","",""
"","do_trial","246","1058740","0.0-131.0-0.0","""event"",""trial"",""time""
""fullscreenenter"",""0"",""2489""
","
","
","""event"",""trial"",""time""
""fullscreenenter"",""0"",""2489""
","
","889.1000000238419","","","","","","","","50","0,0,1","1","mountain","69","probe-180","0.2363454984479488","0.4512383126530917","0.6377702581534791","0","","","","","","","",""
"","html-keyboard-response","247","1059745","0.0-131.0-1.0","""event"",""trial"",""time""
""fullscreenenter"",""0"",""2489""
","
","
","""event"",""trial"",""time""
""fullscreenenter"",""0"",""2489""
","
","null","<p></p>","null","","","","","","","","","","","","","","","","","","","","","","",""
"","do_bye","248","1061258","0.0-132.0-0.0","""event"",""trial"",""time""
""fullscreenenter"",""0"",""2489""
","
","
","""event"",""trial"",""time""
""fullscreenenter"",""0"",""2489""
","
","null","","","","","","","","null","","","","","","","","","","","","","","","","",""
"","break","249","1062992","0.0-132.0-1.0","""event"",""trial"",""time""
""fullscreenenter"",""0"",""2489""
","
","
","""event"",""trial"",""time""
""fullscreenenter"",""0"",""2489""
","
","1732.7999999523163","<div class='center'><p>Time to take a quick break! You have 2 minutes to rest, but you can move on sooner if you'd like.</p><p> Press the <b>space bar</b> to continue.</p></div>","32","","","","","","","","","","","","","","","","","","","","","","",""
"","do_travel","250","1072001","0.0-133.0-0.0","""event"",""trial"",""time""
""fullscreenenter"",""0"",""2489""
","
","
","""event"",""trial"",""time""
""fullscreenenter"",""0"",""2489""
","
","null","","","","","","","","null","","","","","","","","","","","","","","","","",""
"","do_welcome","251","1076015","0.0-133.0-1.0","""event"",""trial"",""time""
""fullscreenenter"",""0"",""2489""
","
","
","""event"",""trial"",""time""
""fullscreenenter"",""0"",""2489""
","
","null","","","","","","","","null","","","","","","","","","","","","","","","","",""
"","do_trial","252","1081198","0.0-134.0-0.0","""event"",""trial"",""time""
""fullscreenenter"",""0"",""2489""
","
","
","""event"",""trial"",""time""
""fullscreenenter"",""0"",""2489""
","
","617.1999999284744","","","","","","","","49","0,0,1","2","highway","70","probe-214","0.1766707280854061","0.5208834287446423","1","0","","","","","","","",""
"","html-keyboard-response","253","1082202","0.0-134.0-1.0","""event"",""trial"",""time""
""fullscreenenter"",""0"",""2489""
","
","
","""event"",""trial"",""time""
""fullscreenenter"",""0"",""2489""
","
","null","<p></p>","null","","","","","","","","","","","","","","","","","","","","","","",""
"","do_trial","254","1087182","0.0-135.0-0.0","""event"",""trial"",""time""
""fullscreenenter"",""0"",""2489""
","
","
","""event"",""trial"",""time""
""fullscreenenter"",""0"",""2489""
","
","420.1999999284744","","","","","","","","50","0,1,1","2","highway","71","probe-152","0.12753807956829388","0.42155188517153863","1","1","","","","","","","",""
"","html-keyboard-response","255","1088191","0.0-135.0-1.0","""event"",""trial"",""time""
""fullscreenenter"",""0"",""2489""
","
","
","""event"",""trial"",""time""
""fullscreenenter"",""0"",""2489""
","
","null","<p></p>","null","","","","","","","","","","","","","","","","","","","","","","",""
"","do_trial","256","1093191","0.0-136.0-0.0","""event"",""trial"",""time""
""fullscreenenter"",""0"",""2489""
","
","
","""event"",""trial"",""time""
""fullscreenenter"",""0"",""2489""
","
","436.10000002384186","","","","","","","","51","0,1,1","2","highway","72","probe-91","0.09113340627822909","0.43329650160412675","0.9130109463702142","1","","","","","","","",""
"","html-keyboard-response","257","1094199","0.0-136.0-1.0","""event"",""trial"",""time""
""fullscreenenter"",""0"",""2489""
","
","
","""event"",""trial"",""time""
""fullscreenenter"",""0"",""2489""
","
","null","<p></p>","null","","","","","","","","","","","","","","","","","","","","","","",""
"","do_trial","258","1099160","0.0-137.0-0.0","""event"",""trial"",""time""
""fullscreenenter"",""0"",""2489""
","
","
","""event"",""trial"",""time""
""fullscreenenter"",""0"",""2489""
","
","391.60000002384186","","","","","","","","49","0,0,0","2","highway","73","probe-05","0.11007911287164918","0.49186158229629307","0.7242244068990248","0","","","","","","","",""
"","html-keyboard-response","259","1100169","0.0-137.0-1.0","""event"",""trial"",""time""
