"success","trial_type","trial_index","time_elapsed","internal_node_id","interactions","blur_events","focus_events","fullscreenenter_events","fullscreenexit_events","rt","stimulus","key_press","subject_id","participant_id","age","gender","prompt","response","choice_outcomes","context_n","context_img_id","trial_n","probe_img_id","pR_red","pR_white","pR_black","outcome","contextArray_ind","validImageProbes","invalidImageProbes","pRew_Red","pRew_White","pRew_Black","availableForMemProbe","choice_blocks"
"true","fullscreen","0","2766","0.0-0.0","""event"",""trial"",""time""
""fullscreenenter"",""0"",""1791""
","
","
","""event"",""trial"",""time""
""fullscreenenter"",""0"",""1791""
","
","","","","","","","","","","","","","","","","","","","","","","","","","",""
"","pavlovia","1","2774","0.0-1.0","""event"",""trial"",""time""
""fullscreenenter"",""0"",""1791""
","
","
","""event"",""trial"",""time""
""fullscreenenter"",""0"",""1791""
","
","","","","","","","","","","","","","","","","","","","","","","","","","",""
"","instruc1","2","47915","0.0-2.0","""event"",""trial"",""time""
""fullscreenenter"",""0"",""1791""
","
","
","""event"",""trial"",""time""
""fullscreenenter"",""0"",""1791""
","
","null","run_exp/static/audio/clip_1_welcome.m4a","null","249","727","11","Female","<div class='center'><p>Welcome! This is the first part of the study. It will last ~30 minutes. In part 1 and part 2 of the study, you are the head captain of a pirate ship traveling around the world to different islands. You will play a few different games throughout these two parts. Here is an overview of them:</p><br><p>Part 1 (today)</p><p>1. Instructions, practice game, and quiz</p><p>2. Pick a pirate game on 6 different islands</p><br><p>Part 2 (tomorrow)</p><p>3. Pick a pirate game and memory game</p><p>4. Where did you see this ship? </p></div>","","","","","","","","","","","","","","","","","",""
"","html-keyboard-response","3","49094","0.0-3.0","""event"",""trial"",""time""
""fullscreenenter"",""0"",""1791""
","
","
","""event"",""trial"",""time""
""fullscreenenter"",""0"",""1791""
","
","1173.7000000029802","<div class='center'><p>Welcome! This is the first part of the study. It will last ~30 minutes. In part 1 and part 2 of the study, you are the head captain of a pirate ship traveling around the world to different islands. You will play a few different games throughout these two parts. Here is an overview of them:</p><br><p>Part 1 (today)</p><p>1. Instructions, practice game, and quiz</p><p>2. Pick a pirate game on 6 different islands</p><br><p>Part 2 (tomorrow)</p><p>3. Pick a pirate game and memory game</p><p>4. Where did you see this ship? </p><p><b>[Press the space bar to continue]</b></p></div>","32","","","","","","","","","","","","","","","","","","","","","","",""
"","instruc2","4","54399","0.0-4.0","""event"",""trial"",""time""
""fullscreenenter"",""0"",""1791""
","
","
","""event"",""trial"",""time""
""fullscreenenter"",""0"",""1791""
","
","null","run_exp/static/audio/clip_2_different_places.m4a","null","","","","","<div class='center'><p>Today, you’ll visit these 6 islands on your journey. You'll be able to see these islands from your ship.</p><p><img src='run_exp/static/images/contexts/all_contexts.png' height='500'></p></div>","","","","","","","","","","","","","","","","","",""
"","html-keyboard-response","5","55734","0.0-5.0","""event"",""trial"",""time""
""fullscreenenter"",""0"",""1791""
","
","
","""event"",""trial"",""time""
""fullscreenenter"",""0"",""1791""
","
","1331.0999999940395","<div class='center'><p>Today, you’ll visit these 6 islands on your journey. You'll be able to see these islands from your ship.</p><p><img src='run_exp/static/images/contexts/all_contexts.png' height='500'></p><p><b>[Press the space bar to continue]</b></p></div>","32","","","","","","","","","","","","","","","","","","","","","","",""
"","instruc3","6","65450","0.0-6.0","""event"",""trial"",""time""
""fullscreenenter"",""0"",""1791""
","
","
","""event"",""trial"",""time""
""fullscreenenter"",""0"",""1791""
","
","null","run_exp/static/audio/clip_3_goal_of_game_1.m4a","null","","","","","<div class='center'><p> The pirates on your ship will rob other ships as they leave the island.</p> These ships have just sold their goods to the islanders, so they will be filled with lots and lots of gold.</p><p><img src='run_exp/static/images/tutorial/ship_center.png' height='400'></p></div>","","","","","","","","","","","","","","","","","",""
"","html-keyboard-response","7","66737","0.0-7.0","""event"",""trial"",""time""
""fullscreenenter"",""0"",""1791""
","
","
","""event"",""trial"",""time""
""fullscreenenter"",""0"",""1791""
","
","1285.5","<div class='center'><p> The pirates on your ship will rob other ships as they leave the island.</p> These ships have just sold their goods to the islanders, so they will be filled with lots and lots of gold.</p><p><img src='run_exp/static/images/tutorial/ship_center.png' height='400'></p><p><b>[Press the space bar to continue]</b></p></div>","32","","","","","","","","","","","","","","","","","","","","","","",""
"","instruc4","8","94740","0.0-8.0","""event"",""trial"",""time""
""fullscreenenter"",""0"",""1791""
","
","
","""event"",""trial"",""time""
""fullscreenenter"",""0"",""1791""
","
","null","run_exp/static/audio/clip_4_goal_of_game_2.m4a","null","","","","","<div class='center'><p>As the head captain, you do not have to rob any ships yourself. Another pirate will be doing the robbing for you. First, you will choose a pirate to rob the next ship.</p><p><img src='run_exp/static/images/tutorial/pirates_all_crop.png' height='200'></p><p>Then, you'll see if the pirate successfully robbed the ship of their gold. If they were successful, then you'll get a stack of gold coins like this:</p><p><img src='run_exp/static/images/tutorial/reward.png' height='150'></p><p> If they were <b>not</b> successful, then you'll get no gold coins, and you'll see a big red x like this: </p><p><img src='run_exp/static/images/tutorial/reward_no.png' height='150'></p><p> How much bonus money you make is based on how many gold coins you collect.</p><div>","","","","","","","","","","","","","","","","","",""
"","html-keyboard-response","9","95087","0.0-9.0","""event"",""trial"",""time""
""fullscreenenter"",""0"",""1791""
","
","
","""event"",""trial"",""time""
""fullscreenenter"",""0"",""1791""
","
","344.29999999701977","<div class='center'><p>As the head captain, you do not have to rob any ships yourself. Another pirate will be doing the robbing for you. First, you will choose a pirate to rob the next ship.</p><p><img src='run_exp/static/images/tutorial/pirates_all_crop.png' height='200'></p><p>Then, you'll see if the pirate successfully robbed the ship of their gold. If they were successful, then you'll get a stack of gold coins like this:</p><p><img src='run_exp/static/images/tutorial/reward.png' height='150'></p><p> If they were <b>not</b> successful, then you'll get no gold coins, and you'll see a big red x like this: </p><p><img src='run_exp/static/images/tutorial/reward_no.png' height='150'></p><p> How much bonus money you make is based on how many gold coins you collect.</p<p><b>[Press the space bar to continue]</b></p></div>","32","","","","","","","","","","","","","","","","","","","","","","",""
"","instruc5","10","120312","0.0-10.0","""event"",""trial"",""time""
""fullscreenenter"",""0"",""1791""
","
","
","""event"",""trial"",""time""
""fullscreenenter"",""0"",""1791""
","
","25223.59999999404","run_exp/static/audio/clip_5_probabilistic.m4a","49","","","","","<div class='center'><p>Even the most skilled pirate can not rob EVERY ship.</p><p> Some ships will have very strong protections against pirate attacks.</p><p> Blue beard, here, is very, very good at robbing ships, but he won't be successful every time he tries to rob one.</p><p> You can press the <b>‘1’</b> key on the keyboard to choose him.</p><p> Try choosing him 10 times to see how often he succeeds at robbing a ship. </p><p><img src='run_exp/static/images/tutorial/blue.png' height='500'></p></div>","","","","","","","","","","","","","","","","","",""
"","html-keyboard-response","11","121820","0.0-11.0","""event"",""trial"",""time""
""fullscreenenter"",""0"",""1791""
","
","
","""event"",""trial"",""time""
""fullscreenenter"",""0"",""1791""
","
","null","<div class='center'><p><img src='run_exp/static/images/tutorial/blue_win.png' height='500'></p></div>","null","","","","","","","","","","","","","","","","","","","","","","",""
"","html-keyboard-response","12","122886","0.0-12.0","""event"",""trial"",""time""
""fullscreenenter"",""0"",""1791""
","
","
","""event"",""trial"",""time""
""fullscreenenter"",""0"",""1791""
","
","1064","<div class='center'><img src='run_exp/static/images/tutorial/blue.png' height='500'></p></div>","49","","","","","","","","","","","","","","","","","","","","","","",""
"","html-keyboard-response","13","124392","0.0-13.0","""event"",""trial"",""time""
""fullscreenenter"",""0"",""1791""
","
","
","""event"",""trial"",""time""
""fullscreenenter"",""0"",""1791""
","
","null","<div class='center'><p><img src='run_exp/static/images/tutorial/blue_win.png' height='500'></p></div>","null","","","","","","","","","","","","","","","","","","","","","","",""
"","html-keyboard-response","14","124916","0.0-14.0","""event"",""trial"",""time""
""fullscreenenter"",""0"",""1791""
","
","
","""event"",""trial"",""time""
""fullscreenenter"",""0"",""1791""
","
","521.9000000059605","<div class='center'><img src='run_exp/static/images/tutorial/blue.png' height='500'></p></div>","49","","","","","","","","","","","","","","","","","","","","","","",""
"","html-keyboard-response","15","126421","0.0-15.0","""event"",""trial"",""time""
""fullscreenenter"",""0"",""1791""
","
","
","""event"",""trial"",""time""
""fullscreenenter"",""0"",""1791""
","
","null","<div class='center'><p><img src='run_exp/static/images/tutorial/blue_win.png' height='500'></p></div>","null","","","","","","","","","","","","","","","","","","","","","","",""
"","html-keyboard-response","16","126845","0.0-16.0","""event"",""trial"",""time""
""fullscreenenter"",""0"",""1791""
","
","
","""event"",""trial"",""time""
""fullscreenenter"",""0"",""1791""
","
","422.20000000298023","<div class='center'><img src='run_exp/static/images/tutorial/blue.png' height='500'></p></div>","49","","","","","","","","","","","","","","","","","","","","","","",""
"","html-keyboard-response","17","128351","0.0-17.0","""event"",""trial"",""time""
""fullscreenenter"",""0"",""1791""
","
","
","""event"",""trial"",""time""
""fullscreenenter"",""0"",""1791""
","
","null","<div class='center'><p><img src='run_exp/static/images/tutorial/blue_no_win.png' height='500'></p></div>","null","","","","","","","","","","","","","","","","","","","","","","",""
"","html-keyboard-response","18","128881","0.0-18.0","""event"",""trial"",""time""
""fullscreenenter"",""0"",""1791""
","
","
","""event"",""trial"",""time""
""fullscreenenter"",""0"",""1791""
","
","527.7000000029802","<div class='center'><img src='run_exp/static/images/tutorial/blue.png' height='500'></p></div>","49","","","","","","","","","","","","","","","","","","","","","","",""
"","html-keyboard-response","19","130383","0.0-19.0","""event"",""trial"",""time""
""fullscreenenter"",""0"",""1791""
","
","
","""event"",""trial"",""time""
""fullscreenenter"",""0"",""1791""
","
","null","<div class='center'><p><img src='run_exp/static/images/tutorial/blue_win.png' height='500'></p></div>","null","","","","","","","","","","","","","","","","","","","","","","",""
"","html-keyboard-response","20","131240","0.0-20.0","""event"",""trial"",""time""
""fullscreenenter"",""0"",""1791""
","
","
","""event"",""trial"",""time""
""fullscreenenter"",""0"",""1791""
","
","855.5","<div class='center'><img src='run_exp/static/images/tutorial/blue.png' height='500'></p></div>","49","","","","","","","","","","","","","","","","","","","","","","",""
"","html-keyboard-response","21","132747","0.0-21.0","""event"",""trial"",""time""
""fullscreenenter"",""0"",""1791""
","
","
","""event"",""trial"",""time""
""fullscreenenter"",""0"",""1791""
","
","null","<div class='center'><p><img src='run_exp/static/images/tutorial/blue_win.png' height='500'></p></div>","null","","","","","","","","","","","","","","","","","","","","","","",""
"","html-keyboard-response","22","133342","0.0-22.0","""event"",""trial"",""time""
""fullscreenenter"",""0"",""1791""
","
","
","""event"",""trial"",""time""
""fullscreenenter"",""0"",""1791""
","
","593","<div class='center'><img src='run_exp/static/images/tutorial/blue.png' height='500'></p></div>","49","","","","","","","","","","","","","","","","","","","","","","",""
"","html-keyboard-response","23","134849","0.0-23.0","""event"",""trial"",""time""
""fullscreenenter"",""0"",""1791""
","
","
","""event"",""trial"",""time""
""fullscreenenter"",""0"",""1791""
","
","null","<div class='center'><p><img src='run_exp/static/images/tutorial/blue_win.png' height='500'></p></div>","null","","","","","","","","","","","","","","","","","","","","","","",""
"","html-keyboard-response","24","135472","0.0-24.0","""event"",""trial"",""time""
""fullscreenenter"",""0"",""1791""
","
","
","""event"",""trial"",""time""
""fullscreenenter"",""0"",""1791""
","
","621.5999999940395","<div class='center'><img src='run_exp/static/images/tutorial/blue.png' height='500'></p></div>","49","","","","","","","","","","","","","","","","","","","","","","",""
"","html-keyboard-response","25","136979","0.0-25.0","""event"",""trial"",""time""
""fullscreenenter"",""0"",""1791""
","
","
","""event"",""trial"",""time""
""fullscreenenter"",""0"",""1791""
","
","null","<div class='center'><p><img src='run_exp/static/images/tutorial/blue_no_win.png' height='500'></p></div>","null","","","","","","","","","","","","","","","","","","","","","","",""
"","html-keyboard-response","26","137498","0.0-26.0","""event"",""trial"",""time""
""fullscreenenter"",""0"",""1791""
","
","
","""event"",""trial"",""time""
""fullscreenenter"",""0"",""1791""
","
","517.1000000089407","<div class='center'><img src='run_exp/static/images/tutorial/blue.png' height='500'></p></div>","49","","","","","","","","","","","","","","","","","","","","","","",""
"","html-keyboard-response","27","139001","0.0-27.0","""event"",""trial"",""time""
""fullscreenenter"",""0"",""1791""
","
","
","""event"",""trial"",""time""
""fullscreenenter"",""0"",""1791""
","
","null","<div class='center'><p><img src='run_exp/static/images/tutorial/blue_win.png' height='500'></p></div>","null","","","","","","","","","","","","","","","","","","","","","","",""
"","html-keyboard-response","28","139538","0.0-28.0","""event"",""trial"",""time""
""fullscreenenter"",""0"",""1791""
","
","
","""event"",""trial"",""time""
""fullscreenenter"",""0"",""1791""
","
","535","<div class='center'><img src='run_exp/static/images/tutorial/blue.png' height='500'></p></div>","49","","","","","","","","","","","","","","","","","","","","","","",""
"","html-keyboard-response","29","141045","0.0-29.0","""event"",""trial"",""time""
""fullscreenenter"",""0"",""1791""
","
","
","""event"",""trial"",""time""
""fullscreenenter"",""0"",""1791""
","
","null","<div class='center'><p><img src='run_exp/static/images/tutorial/blue_win.png' height='500'></p></div>","null","","","","","","","","","","","","","","","","","","","","","","",""
"","instruc6","30","146470","0.0-30.0","""event"",""trial"",""time""
""fullscreenenter"",""0"",""1791""
","
","
","""event"",""trial"",""time""
""fullscreenenter"",""0"",""1791""
","
","null","run_exp/static/audio/clip_6_blue_beard_outcome.m4a","null","","","","","<div class='center'><p> See, he succeeded in robbing the ships most of the time but not every time. </p></div>","","","","","","","","","","","","","","","","","",""
"","html-keyboard-response","31","147612","0.0-31.0","""event"",""trial"",""time""
""fullscreenenter"",""0"",""1791""
","
","
","""event"",""trial"",""time""
""fullscreenenter"",""0"",""1791""
","
","1140.5","<div class='center'><p> See, he succeeded in robbing the ships most of the time but not every time. </p><p><b>[Press the space bar to continue]</b></p></div>","32","","","","","","","","","","","","","","","","","","","","","","",""
"","audio-keyboard-response","32","163685","0.0-32.0","""event"",""trial"",""time""
""fullscreenenter"",""0"",""1791""
","
","
","""event"",""trial"",""time""
""fullscreenenter"",""0"",""1791""
","
","16071","run_exp/static/audio/clip_7_pick_pirate.m4a","49","","","","","","","","","","","","","","","","","","","","","","",""
"","audio-keyboard-response","33","166378","0.0-33.0-0.0","""event"",""trial"",""time""
""fullscreenenter"",""0"",""1791""
","
","
","""event"",""trial"",""time""
""fullscreenenter"",""0"",""1791""
","
","2690","run_exp/static/audio/clip_8_chosen_pirate_win.m4a","32","","","","","","","","","","","","","","","","","","","","","","",""
"","audio-keyboard-response","34","167179","0.0-33.0-1.0","""event"",""trial"",""time""
""fullscreenenter"",""0"",""1791""
","
","
","""event"",""trial"",""time""
""fullscreenenter"",""0"",""1791""
","
","798.3999999910593","run_exp/static/audio/clip_9_pick_a_pirate_again.m4a","50","","","","","","","","","","","","","","","","","","","","","","",""
"","audio-keyboard-response","35","168211","0.0-34.0-0.0","""event"",""trial"",""time""
""fullscreenenter"",""0"",""1791""
","
","
","""event"",""trial"",""time""
""fullscreenenter"",""0"",""1791""
","
","1028.7000000029802","run_exp/static/audio/clip_10_chosen_pirate_loss.m4a","32","","","","","","","","","","","","","","","","","","","","","","",""
"","instruc9","36","173712","0.0-35.0-0.0","""event"",""trial"",""time""
""fullscreenenter"",""0"",""1791""
","
","
","""event"",""trial"",""time""
""fullscreenenter"",""0"",""1791""
","
","null","run_exp/static/audio/clip_11_time_out.m4a","null","","","","","<div class='center'><p>If you don’t make your choice fast enough, you’ll have to wait a few seconds before you can make another one. </p><p><img src='run_exp/static/images/miscellaneous/hurry_up.png' height='500'></p></div>","","","","","","","","","","","","","","","","","",""
"","html-keyboard-response","37","174424","0.0-35.0-1.0","""event"",""trial"",""time""
""fullscreenenter"",""0"",""1791""
","
","
","""event"",""trial"",""time""
""fullscreenenter"",""0"",""1791""
","
","710.0999999940395","<div class='center'><p>If you don’t make your choice fast enough, you’ll have to wait a few seconds before you can make another one. </p><p><img src='run_exp/static/images/miscellaneous/hurry_up.png' height='500'></p><p><b>[Press the space bar to continue]</b></p></div>","32","","","","","","","","","","","","","","","","","","","","","","",""
"","instruc10","38","213520","0.0-35.0-2.0","""event"",""trial"",""time""
""fullscreenenter"",""0"",""1791""
","
","
","""event"",""trial"",""time""
""fullscreenenter"",""0"",""1791""
","
","null","run_exp/static/audio/clip_12_probe.m4a","null","","","","","<div class='center'><p>Once you've chosen a pirate, you’ll be shown the ship they are robbing. You will never rob the same ship twice. Ships can be told apart from one another by the image on them. These are the goods that they sell. See, this ship has a travel mug on it. </p><p> You’ll have to remember which island you saw each ship on. You will win more gold coins and hence more bonus money if you remember correctly! To help you remember, you can imagine a story. For example, here, you could imagine a mug full of water in the desert. Or, as another example, if on the forest island, your pirate robbed a ship with an apple on it, you could imagine an apple falling from a tree in the forest. </p><p><img src='run_exp/static/images/tutorial/example_probe.png' height='500'></p></div>","","","","","","","","","","","","","","","","","",""
"","html-keyboard-response","39","213948","0.0-35.0-3.0","""event"",""trial"",""time""
""fullscreenenter"",""0"",""1791""
","
","
","""event"",""trial"",""time""
""fullscreenenter"",""0"",""1791""
","
","425.70000000298023","<div class='center'><p>Once you've chosen a pirate, you’ll be shown the ship they are robbing. You will never rob the same ship twice. Ships can be told apart from one another by the image on them. These are the goods that they sell. See, this ship has a travel mug on it. </p><p> You’ll have to remember which island you saw each ship on. You will win more gold coins and hence more bonus money if you remember correctly! To help you remember, you can imagine a story. For example, here, you could imagine a mug full of water in the desert. Or, as another example, if on the forest island, your pirate robbed a ship with an apple on it, you could imagine an apple falling from a tree in the forest. </p><p><img src='run_exp/static/images/tutorial/example_probe.png' height='500'></p><p><b>[Press the space bar to continue]</b></p></div>","32","","","","","","","","","","","","","","","","","","","","","","",""
"","instruc11","40","230352","0.0-35.0-4.0","""event"",""trial"",""time""
""fullscreenenter"",""0"",""1791""
","
","
","""event"",""trial"",""time""
""fullscreenenter"",""0"",""1791""
","
","null","run_exp/static/audio/clip_13_changepoint.m4a","null","","","","","<div class='center'><p>How successful a pirate is at robbing ships will depend on the island you’re on.</p><p> A pirate may have visited this island many times before and gained a lot of practice robbing ships there.</p><p>So, they’re more likely to be successful than a pirate who has never visited the island before.</p></div>","","","","","","","","","","","","","","","","","",""
"","html-keyboard-response","41","231189","0.0-35.0-5.0","""event"",""trial"",""time""
""fullscreenenter"",""0"",""1791""
","
","
","""event"",""trial"",""time""
""fullscreenenter"",""0"",""1791""
","
","836.2999999970198","<div class='center'><p>How successful a pirate is at robbing ships will depend on the island you’re on.</p><p> A pirate may have visited this island many times before and gained a lot of practice robbing ships there.</p><p>So, they’re more likely to be successful than a pirate who has never visited the island before.</p><p><b>[Press the space bar to continue]</b></p></div>","32","","","","","","","","","","","","","","","","","","","","","","",""
"","instruc12","42","272271","0.0-35.0-6.0","""event"",""trial"",""time""
""fullscreenenter"",""0"",""1791""
","
","
","""event"",""trial"",""time""
""fullscreenenter"",""0"",""1791""
","
","null","run_exp/static/audio/clip_14_drift.m4a","null","","","","","<div class='center'><p>How successful a pirate is at robbing ships can also change over the time spent on the island. </p><p> Ships may hear from islanders about the pirates coming and will improve their protections against the attack. This may make it harder to rob them.</p><p> Ships may also become lazy and weaken the strength of their protections. This may make it easier to rob them.</p><br><p>Things are always changing on the high seas! So, try your best to pay attention!</p><p><img src='run_exp/static/images/tutorial/contingency.png' height='500'></p></div>","","","","","","","","","","","","","","","","","",""
"","html-keyboard-response","43","272339","0.0-35.0-7.0","""event"",""trial"",""time""
""fullscreenenter"",""0"",""1791""
","
","
","""event"",""trial"",""time""
""fullscreenenter"",""0"",""1791""
","
","65.20000000298023","<div class='center'><p>How successful a pirate is at robbing ships can also change over the time spent on the island. </p><p> Ships may hear from islanders about the pirates coming and will improve their protections against the attack. This may make it harder to rob them.</p><p> Ships may also become lazy and weaken the strength of their protections. This may make it easier to rob them.</p><br><p>Things are always changing on the high seas! So, try your best to pay attention!</p><p><img src='run_exp/static/images/tutorial/contingency.png' height='500'></p><p><b>[Press the space bar to continue]</b></p></div>","32","","","","","","","","","","","","","","","","","","","","","","",""
"","instruc13","44","307535","0.0-35.0-8.0","""event"",""trial"",""time""
""fullscreenenter"",""0"",""1791""
","
","
","""event"",""trial"",""time""
""fullscreenenter"",""0"",""1791""
","
","null","run_exp/static/audio/clip_15_summary.m4a","null","","","","","<div class='center'><p>Let's go over the instructions quickly again. You have two important things to do: </p><b><p> 1. Pick the pirate who is the best at robbing ships on the current island. </p></b><b><p> 2. Remember on which island a ship was robbed.</p> </b><p>The amount of bonus money you can win depends on both.</p><p><br><p>Let’s try a practice game. The game will start by showing you the pirates. First, pick a pirate using the <b> 1, 2, 3 </b> keys on your keyboard. When you are shown a ship, try to remember which island you’re on by making up a story.</p><p>This is just a practice game, so you’re not playing for money. </p><p> Good luck! This game will be very difficult but try your best!</p></div>","","","","","","","","","","","","","","","","","",""
"","html-keyboard-response","45","307964","0.0-35.0-9.0","""event"",""trial"",""time""
""fullscreenenter"",""0"",""1791""
","
","
","""event"",""trial"",""time""
""fullscreenenter"",""0"",""1791""
","
","427.79999999701977","<div class='center'><p>Let's go over the instructions quickly again. You have two important things to do: </p><b><p> 1. Pick the pirate who is the best at robbing ships on the current island. </p></b><b><p> 2. Remember on which island a ship was robbed.</p> </b><p>The amount of bonus money you can win depends on both.</p><p><br><p>Let’s try a practice game. The game will start by showing you the pirates. First, pick a pirate using the <b> 1, 2, 3 </b> keys on your keyboard. When you are shown a ship, try to remember which island you’re on by making up a story.</p><p>This is just a practice game, so you’re not playing for money. </p><p> Good luck! This game will be very difficult but try your best!</p><p><b>[Press the space bar to continue]</b></p></div>","32","","","","","","","","","","","","","","","","","","","","","","",""
"","do_welcome","46","311978","0.0-35.0-10.0","""event"",""trial"",""time""
""fullscreenenter"",""0"",""1791""
","
","
","""event"",""trial"",""time""
""fullscreenenter"",""0"",""1791""
","
","null","","","","","","","","null","","","","","","","","","","","","","","","","",""
"","do_trial","47","318842","0.0-35.0-11.0","""event"",""trial"",""time""
""fullscreenenter"",""0"",""1791""
","
","
","""event"",""trial"",""time""
""fullscreenenter"",""0"",""1791""
","
","2349.2000000029802","","","","","","","","49","1,0,0","","","","","","","","","","","","","","","",""
"","html-keyboard-response","48","319849","0.0-36.0-0.0","""event"",""trial"",""time""
""fullscreenenter"",""0"",""1791""
","
","
","""event"",""trial"",""time""
""fullscreenenter"",""0"",""1791""
","
","null","<p></p>","null","","","","","","","","","","","","","","","","","","","","","","",""
"","do_trial","49","325512","0.0-36.0-1.0","""event"",""trial"",""time""
""fullscreenenter"",""0"",""1791""
","
","
","""event"",""trial"",""time""
""fullscreenenter"",""0"",""1791""
","
","1151.2000000029802","","","","","","","","50","1,1,0","","","","","","","","","","","","","","","",""
"","html-keyboard-response","50","326520","0.0-37.0-0.0","""event"",""trial"",""time""
""fullscreenenter"",""0"",""1791""
","
","
","""event"",""trial"",""time""
""fullscreenenter"",""0"",""1791""
","
","null","<p></p>","null","","","","","","","","","","","","","","","","","","","","","","",""
"","do_trial","51","331674","0.0-37.0-1.0","""event"",""trial"",""time""
""fullscreenenter"",""0"",""1791""
","
","
","""event"",""trial"",""time""
""fullscreenenter"",""0"",""1791""
","
","645.5","","","","","","","","51","1,0,1","","","","","","","","","","","","","","","",""
"","html-keyboard-response","52","332681","0.0-38.0-0.0","""event"",""trial"",""time""
""fullscreenenter"",""0"",""1791""
","
","
","""event"",""trial"",""time""
""fullscreenenter"",""0"",""1791""
","
","null","<p></p>","null","","","","","","","","","","","","","","","","","","","","","","",""
"","do_trial","53","337857","0.0-38.0-1.0","""event"",""trial"",""time""
""fullscreenenter"",""0"",""1791""
","
","
","""event"",""trial"",""time""
""fullscreenenter"",""0"",""1791""
","
","661.7999999970198","","","","","","","","50","0,1,0","","","","","","","","","","","","","","","",""
"","html-keyboard-response","54","338864","0.0-39.0-0.0","""event"",""trial"",""time""
""fullscreenenter"",""0"",""1791""
","
","
","""event"",""trial"",""time""
""fullscreenenter"",""0"",""1791""
","
","null","<p></p>","null","","","","","","","","","","","","","","","","","","","","","","",""
"","do_trial","55","345957","0.0-39.0-1.0","""event"",""trial"",""time""
""fullscreenenter"",""0"",""1791""
","
","
","""event"",""trial"",""time""
""fullscreenenter"",""0"",""1791""
","
","2578.800000011921","","","","","","","","51","1,0,0","","","","","","","","","","","","","","","",""
"","do_bye","56","347469","0.0-40.0-0.0","""event"",""trial"",""time""
""fullscreenenter"",""0"",""1791""
","
","
","""event"",""trial"",""time""
""fullscreenenter"",""0"",""1791""
","
","null","","","","","","","","null","","","","","","","","","","","","","","","","",""
"","do_travel","57","356474","0.0-40.0-1.0","""event"",""trial"",""time""
""fullscreenenter"",""0"",""1791""
","
","
","""event"",""trial"",""time""
""fullscreenenter"",""0"",""1791""
","
","null","","","","","","","","null","","","","","","","","","","","","","","","","",""
"","do_welcome","58","360484","0.0-40.0-2.0","""event"",""trial"",""time""
""fullscreenenter"",""0"",""1791""
","
","
","""event"",""trial"",""time""
""fullscreenenter"",""0"",""1791""
","
","null","","","","","","","","null","","","","","","","","","","","","","","","","",""
"","do_trial","59","366502","0.0-40.0-3.0","""event"",""trial"",""time""
""fullscreenenter"",""0"",""1791""
","
","
","""event"",""trial"",""time""
""fullscreenenter"",""0"",""1791""
","
","null","","","","","","","","null","1,0,0","","","","","","","","","","","","","","","",""
"","do_bye","60","368014","0.0-41.0-0.0","""event"",""trial"",""time""
""fullscreenenter"",""0"",""1791""
","
","
","""event"",""trial"",""time""
""fullscreenenter"",""0"",""1791""
","
","null","","","","","","","","null","","","","","","","","","","","","","","","","",""
"","do_travel","61","377023","0.0-41.0-1.0","""event"",""trial"",""time""
""fullscreenenter"",""0"",""1791""
","
","
","""event"",""trial"",""time""
""fullscreenenter"",""0"",""1791""
","
","null","","","","","","","","null","","","","","","","","","","","","","","","","",""
"","do_welcome","62","381034","0.0-41.0-2.0","""event"",""trial"",""time""
""fullscreenenter"",""0"",""1791""
","
","
","""event"",""trial"",""time""
""fullscreenenter"",""0"",""1791""
","
","null","","","","","","","","null","","","","","","","","","","","","","","","","",""
"","do_trial","63","385749","0.0-41.0-3.0","""event"",""trial"",""time""
""fullscreenenter"",""0"",""1791""
","
","
","""event"",""trial"",""time""
""fullscreenenter"",""0"",""1791""
","
","201.20000000298023","","","","","","","","50","1,0,0","","","","","","","","","","","","","","","",""
"","html-keyboard-response","64","386757","0.0-42.0-0.0","""event"",""trial"",""time""
""fullscreenenter"",""0"",""1791""
","
","
","""event"",""trial"",""time""
""fullscreenenter"",""0"",""1791""
","
","null","<p></p>","null","","","","","","","","","","","","","","","","","","","","","","",""
"","do_trial","65","391718","0.0-42.0-1.0","""event"",""trial"",""time""
""fullscreenenter"",""0"",""1791""
","
","
","""event"",""trial"",""time""
""fullscreenenter"",""0"",""1791""
","
","449.20000000298023","","","","","","","","49","1,0,1","","","","","","","","","","","","","","","",""
"","html-keyboard-response","66","392725","0.0-43.0-0.0","""event"",""trial"",""time""
""fullscreenenter"",""0"",""1791""
","
","
","""event"",""trial"",""time""
""fullscreenenter"",""0"",""1791""
","
","null","<p></p>","null","","","","","","","","","","","","","","","","","","","","","","",""
"","do_trial","67","397956","0.0-43.0-1.0","""event"",""trial"",""time""
""fullscreenenter"",""0"",""1791""
","
","
","""event"",""trial"",""time""
""fullscreenenter"",""0"",""1791""
","
","714.7000000029802","","","","","","","","51","1,1,0","","","","","","","","","","","","","","","",""
"","html-keyboard-response","68","398964","0.0-44.0-0.0","""event"",""trial"",""time""
""fullscreenenter"",""0"",""1791""
","
","
","""event"",""trial"",""time""
""fullscreenenter"",""0"",""1791""
","
","null","<p></p>","null","","","","","","","","","","","","","","","","","","","","","","",""
"","do_trial","69","403931","0.0-44.0-1.0","""event"",""trial"",""time""
""fullscreenenter"",""0"",""1791""
","
","
","""event"",""trial"",""time""
""fullscreenenter"",""0"",""1791""
","
","451.29999999701977","","","","","","","","50","0,0,1","","","","","","","","","","","","","","","",""
"","html-keyboard-response","70","404938","0.0-45.0-0.0","""event"",""trial"",""time""
""fullscreenenter"",""0"",""1791""
","
","
","""event"",""trial"",""time""
""fullscreenenter"",""0"",""1791""
","
","null","<p></p>","null","","","","","","","","","","","","","","","","","","","","","","",""
"","do_trial","71","409765","0.0-45.0-1.0","""event"",""trial"",""time""
""fullscreenenter"",""0"",""1791""
","
","
","""event"",""trial"",""time""
""fullscreenenter"",""0"",""1791""
","
","313.70000000298023","","","","","","","","49","1,0,1","","","","","","","","","","","","","","","",""
"","html-keyboard-response","72","412036","0.0-46.0-0.0","""event"",""trial"",""time""
""fullscreenenter"",""0"",""1791""
","
","
","""event"",""trial"",""time""
""fullscreenenter"",""0"",""1791""
","
","2267.5","<div class='center'><p><img src='run_exp/static/images/tutorial/prac_best_pirate.png'  height='500'></p></div>","49","","","","","","","","","","","","","","","","","","","","","","",""
"","html-keyboard-response","73","413303","0.0-47.0-0.0","""event"",""trial"",""time""
""fullscreenenter"",""0"",""1791""
","
","
","""event"",""trial"",""time""
""fullscreenenter"",""0"",""1791""
","
","1265.1000000089407","<div class='center'><p>That's correct! Red beard was the best.</p><p><b>[Press the space bar to continue]</b></p></div>","32","","","","","","","","","","","","","","","","","","","","","","",""
"","html-keyboard-response","74","417867","0.0-47.0-1.0","""event"",""trial"",""time""
""fullscreenenter"",""0"",""1791""
","
","
","""event"",""trial"",""time""
""fullscreenenter"",""0"",""1791""
","
","4562","<div class='center'><p><img src='run_exp/static/images/tutorial/prac_source.png'  height='500'></p></div>","50","","","","","","","","","","","","","","","","","","","","","","",""
"","html-keyboard-response","75","418949","0.0-48.0-0.0","""event"",""trial"",""time""
""fullscreenenter"",""0"",""1791""
","
","
","""event"",""trial"",""time""
""fullscreenenter"",""0"",""1791""
","
","1079.9000000059605","<div class='center'><p>That's correct! You saw this ship on the cavern island.</p><p><b>[Press the space bar to continue]</b></p></div>","32","","","","","","","","","","","","","","","","","","","","","","",""
"","quiz_beginning","76","430193","0.0-48.0-1.0","""event"",""trial"",""time""
""fullscreenenter"",""0"",""1791""
","
","
","""event"",""trial"",""time""
""fullscreenenter"",""0"",""1791""
","
","null","run_exp/static/audio/clip_16_quiz_intro.m4a","null","","","","","<div class='center'><p>Good job on the practice game! Now, you will be asked some true or false questions to make sure you really understand the rules of the game.</p><p> Press <b>'1'</b> on the keyboard for true and press <b>'2'</b> for false.</p></div>","","","","","","","","","","","","","","","","","",""
"","audio-keyboard-response","77","430377","0.0-48.0-2.0","""event"",""trial"",""time""
""fullscreenenter"",""0"",""1791""
","
","
","""event"",""trial"",""time""
""fullscreenenter"",""0"",""1791""
","
","182.29999999701977","run_exp/static/audio/clip_17_q1.m4a","50","","","","","","","","","","","","","","","","","","","","","","",""
"","q1_err","78","435291","0.0-49.0-0.0","""event"",""trial"",""time""
""fullscreenenter"",""0"",""1791""
","
","
","""event"",""trial"",""time""
""fullscreenenter"",""0"",""1791""
","
","null","run_exp/static/audio/clip_19_wrong_q1.m4a","null","","","","","<div class='center'><p>That’s incorrect. You win bonus money by collecting gold coins.</p></div>","","","","","","","","","","","","","","","","","",""
"","html-keyboard-response","79","436081","0.0-49.0-1.0","""event"",""trial"",""time""
""fullscreenenter"",""0"",""1791""
","
","
","""event"",""trial"",""time""
""fullscreenenter"",""0"",""1791""
","
","787.8999999910593","<div class='center'><p>That’s incorrect. You win bonus money by collecting gold coins.</p><p><b>[Press the space bar to continue]</b></p></div>","32","","","","","","","","","","","","","","","","","","","","","","",""
"","audio-keyboard-response","80","444512","0.0-49.0-2.0","""event"",""trial"",""time""
""fullscreenenter"",""0"",""1791""
","
","
","""event"",""trial"",""time""
""fullscreenenter"",""0"",""1791""
","
","8430.5","run_exp/static/audio/clip_20_q2.m4a","50","","","","","","","","","","","","","","","","","","","","","","",""
"","correct","81","446918","0.0-50.0-0.0","""event"",""trial"",""time""
""fullscreenenter"",""0"",""1791""
","
","
","""event"",""trial"",""time""
""fullscreenenter"",""0"",""1791""
","
","null","run_exp/static/audio/clip_18_correct.m4a","null","","","","","<div class='center'><p>That's correct!</p></div>","","","","","","","","","","","","","","","","","",""
"","html-keyboard-response","82","447536","0.0-50.0-1.0","""event"",""trial"",""time""
""fullscreenenter"",""0"",""1791""
","
","
","""event"",""trial"",""time""
""fullscreenenter"",""0"",""1791""
","
","616.0999999940395","<div class='center'><p>That's correct!</p><p><b>[Press the space bar to continue]</b></p></div>","32","","","","","","","","","","","","","","","","","","","","","","",""
"","audio-keyboard-response","83","450536","0.0-50.0-2.0","""event"",""trial"",""time""
""fullscreenenter"",""0"",""1791""
","
","
","""event"",""trial"",""time""
""fullscreenenter"",""0"",""1791""
","
","2998.800000011921","run_exp/static/audio/clip_22_q3.m4a","50","","","","","","","","","","","","","","","","","","","","","","",""
"","correct","84","452934","0.0-51.0-0.0","""event"",""trial"",""time""
""fullscreenenter"",""0"",""1791""
","
","
","""event"",""trial"",""time""
""fullscreenenter"",""0"",""1791""
","
","null","run_exp/static/audio/clip_18_correct.m4a","null","","","","","<div class='center'><p>That's correct!</p></div>","","","","","","","","","","","","","","","","","",""
"","html-keyboard-response","85","453906","0.0-51.0-1.0","""event"",""trial"",""time""
""fullscreenenter"",""0"",""1791""
","
","
","""event"",""trial"",""time""
""fullscreenenter"",""0"",""1791""
","
","970.7000000029802","<div class='center'><p>That's correct!</p><p><b>[Press the space bar to continue]</b></p></div>","32","","","","","","","","","","","","","","","","","","","","","","",""
"","audio-keyboard-response","86","457378","0.0-51.0-2.0","""event"",""trial"",""time""
""fullscreenenter"",""0"",""1791""
","
","
","""event"",""trial"",""time""
""fullscreenenter"",""0"",""1791""
","
","3471.0999999940395","run_exp/static/audio/clip_24_q4.m4a","49","","","","","","","","","","","","","","","","","","","","","","",""
"","correct","87","459782","0.0-52.0-0.0","""event"",""trial"",""time""
""fullscreenenter"",""0"",""1791""
","
","
","""event"",""trial"",""time""
""fullscreenenter"",""0"",""1791""
","
","null","run_exp/static/audio/clip_18_correct.m4a","null","","","","","<div class='center'><p>That's correct!</p></div>","","","","","","","","","","","","","","","","","",""
"","html-keyboard-response","88","460644","0.0-52.0-1.0","""event"",""trial"",""time""
""fullscreenenter"",""0"",""1791""
","
","
","""event"",""trial"",""time""
""fullscreenenter"",""0"",""1791""
","
","861","<div class='center'><p>That's correct!</p><p><b>[Press the space bar to continue]</b></p></div>","32","","","","","","","","","","","","","","","","","","","","","","",""
"","q_all_err","89","466822","0.0-53.0-0.0","""event"",""trial"",""time""
""fullscreenenter"",""0"",""1791""
","
","
","""event"",""trial"",""time""
""fullscreenenter"",""0"",""1791""
","
","null","run_exp/static/audio/clip_26_quiz_redo.m4a","null","","","","","<div class='center'><p>Oops, you missed some questions. Now that you’ve heard the correct answers. Try the quiz again! </p></div>","","","","","","","","","","","","","","","","","",""
"","html-keyboard-response","90","467665","0.0-53.0-1.0","""event"",""trial"",""time""
""fullscreenenter"",""0"",""1791""
","
","
","""event"",""trial"",""time""
""fullscreenenter"",""0"",""1791""
","
","841.7999999970198","<div class='center'><p>Oops, you missed some questions. Now that you’ve heard the correct answers. Try the quiz again! </p><p><b>[Press the space bar to continue]</b></p></div>","32","","","","","","","","","","","","","","","","","","","","","","",""
"","audio-keyboard-response","91","469326","0.0-53.0-2.0","""event"",""trial"",""time""
""fullscreenenter"",""0"",""1791""
","
","
","""event"",""trial"",""time""
""fullscreenenter"",""0"",""1791""
","
","1659.7000000029802","run_exp/static/audio/clip_17_q1.m4a","49","","","","","","","","","","","","","","","","","","","","","","",""
"","correct","92","471728","0.0-54.0-0.0","""event"",""trial"",""time""
""fullscreenenter"",""0"",""1791""
","
","
","""event"",""trial"",""time""
""fullscreenenter"",""0"",""1791""
","
","null","run_exp/static/audio/clip_18_correct.m4a","null","","","","","<div class='center'><p>That's correct!</p></div>","","","","","","","","","","","","","","","","","",""
"","html-keyboard-response","93","472500","0.0-54.0-1.0","""event"",""trial"",""time""
""fullscreenenter"",""0"",""1791""
","
","
","""event"",""trial"",""time""
""fullscreenenter"",""0"",""1791""
","
","770.9000000059605","<div class='center'><p>That's correct!</p><p><b>[Press the space bar to continue]</b></p></div>","32","","","","","","","","","","","","","","","","","","","","","","",""
"","audio-keyboard-response","94","475059","0.0-54.0-2.0","""event"",""trial"",""time""
""fullscreenenter"",""0"",""1791""
","
","
","""event"",""trial"",""time""
""fullscreenenter"",""0"",""1791""
","
","2557.5999999940395","run_exp/static/audio/clip_20_q2.m4a","50","","","","","","","","","","","","","","","","","","","","","","",""
"","correct","95","477467","0.0-55.0-0.0","""event"",""trial"",""time""
""fullscreenenter"",""0"",""1791""
","
","
","""event"",""trial"",""time""
""fullscreenenter"",""0"",""1791""
","
","null","run_exp/static/audio/clip_18_correct.m4a","null","","","","","<div class='center'><p>That's correct!</p></div>","","","","","","","","","","","","","","","","","",""
"","html-keyboard-response","96","478261","0.0-55.0-1.0","""event"",""trial"",""time""
""fullscreenenter"",""0"",""1791""
","
","
","""event"",""trial"",""time""
""fullscreenenter"",""0"",""1791""
","
","792.7000000029802","<div class='center'><p>That's correct!</p><p><b>[Press the space bar to continue]</b></p></div>","32","","","","","","","","","","","","","","","","","","","","","","",""
"","audio-keyboard-response","97","481123","0.0-55.0-2.0","""event"",""trial"",""time""
""fullscreenenter"",""0"",""1791""
","
","
","""event"",""trial"",""time""
""fullscreenenter"",""0"",""1791""
","
","2860.6000000089407","run_exp/static/audio/clip_22_q3.m4a","50","","","","","","","","","","","","","","","","","","","","","","",""
"","correct","98","483526","0.0-56.0-0.0","""event"",""trial"",""time""
""fullscreenenter"",""0"",""1791""
","
","
","""event"",""trial"",""time""
""fullscreenenter"",""0"",""1791""
","
","null","run_exp/static/audio/clip_18_correct.m4a","null","","","","","<div class='center'><p>That's correct!</p></div>","","","","","","","","","","","","","","","","","",""
"","html-keyboard-response","99","484207","0.0-56.0-1.0","""event"",""trial"",""time""
""fullscreenenter"",""0"",""1791""
","
","
","""event"",""trial"",""time""
""fullscreenenter"",""0"",""1791""
","
","680","<div class='center'><p>That's correct!</p><p><b>[Press the space bar to continue]</b></p></div>","32","","","","","","","","","","","","","","","","","","","","","","",""
"","audio-keyboard-response","100","486289","0.0-56.0-2.0","""event"",""trial"",""time""
""fullscreenenter"",""0"",""1791""
","
","
","""event"",""trial"",""time""
""fullscreenenter"",""0"",""1791""
","
","2081.0999999940395","run_exp/static/audio/clip_24_q4.m4a","49","","","","","","","","","","","","","","","","","","","","","","",""
"","correct","101","488732","0.0-57.0-0.0","""event"",""trial"",""time""
""fullscreenenter"",""0"",""1791""
","
","
","""event"",""trial"",""time""
""fullscreenenter"",""0"",""1791""
","
","null","run_exp/static/audio/clip_18_correct.m4a","null","","","","","<div class='center'><p>That's correct!</p></div>","","","","","","","","","","","","","","","","","",""
"","html-keyboard-response","102","489486","0.0-57.0-1.0","""event"",""trial"",""time""
""fullscreenenter"",""0"",""1791""
","
","
","""event"",""trial"",""time""
""fullscreenenter"",""0"",""1791""
","
","752.5999999940395","<div class='center'><p>That's correct!</p><p><b>[Press the space bar to continue]</b></p></div>","32","","","","","","","","","","","","","","","","","","","","","","",""
"","q_all_corr","103","497990","0.0-58.0-0.0","""event"",""trial"",""time""
""fullscreenenter"",""0"",""1791""
","
","
","""event"",""trial"",""time""
""fullscreenenter"",""0"",""1791""
","
","null","run_exp/static/audio/clip_27_quiz_all_correct.m4a","null","","","","","<div class='center'><p>Good job! You’re now ready to move on to the real game! Remember this game will be difficult but don't get discouraged and try your best!</p></div>","","","","","","","","","","","","","","","","","",""
"","html-keyboard-response","104","498520","0.0-58.0-1.0","""event"",""trial"",""time""
""fullscreenenter"",""0"",""1791""
","
","
","""event"",""trial"",""time""
""fullscreenenter"",""0"",""1791""
","
","527.5","<div class='center'><p>Good job! You’re now ready to move on to the real game! Remember this game will be difficult but don't get discouraged and try your best!</p><p><b>[Press the space bar to continue]</b></p></div>","32","","","","","","","","","","","","","","","","","","","","","","",""
"","do_welcome","105","502529","0.0-59.0-0.0","""event"",""trial"",""time""
""fullscreenenter"",""0"",""1791""
","
","
","""event"",""trial"",""time""
""fullscreenenter"",""0"",""1791""
","
","null","","","","","","","","null","","","","","","","","","","","","","","","","",""
"","do_trial","106","508407","0.0-60.0-0.0","""event"",""trial"",""time""
""fullscreenenter"",""0"",""1791""
","
","
","""event"",""trial"",""time""
""fullscreenenter"",""0"",""1791""
","
","1322.5999999940395","","","","","","","","49","1,0,0","0","forest","0","probe-202","0.6","0.3","0.1","1","","","","","","","",""
"","html-keyboard-response","107","509413","0.0-60.0-1.0","""event"",""trial"",""time""
""fullscreenenter"",""0"",""1791""
","
","
","""event"",""trial"",""time""
""fullscreenenter"",""0"",""1791""
","
","null","<p></p>","null","","","","","","","","","","","","","","","","","","","","","","",""
"","do_trial","108","515796","0.0-61.0-0.0","""event"",""trial"",""time""
""fullscreenenter"",""0"",""1791""
","
","
","""event"",""trial"",""time""
""fullscreenenter"",""0"",""1791""
","
","1830.800000011921","","","","","","","","50","0,0,0","0","forest","1","probe-110","0.5386622547121077","0.2065357287623319","0.09768201626143608","0","","","","","","","",""
"","html-keyboard-response","109","516800","0.0-61.0-1.0","""event"",""trial"",""time""
""fullscreenenter"",""0"",""1791""
","
","
","""event"",""trial"",""time""
""fullscreenenter"",""0"",""1791""
","
","null","<p></p>","null","","","","","","","","","","","","","","","","","","","","","","",""
"","do_trial","110","522138","0.0-62.0-0.0","""event"",""trial"",""time""
""fullscreenenter"",""0"",""1791""
","
","
","""event"",""trial"",""time""
""fullscreenenter"",""0"",""1791""
","
","780.5","","","","","","","","51","1,0,1","0","forest","2","probe-90","0.694418301353847","0.09406505689161482","0.09273945287582713","1","","","","","","","",""
"","html-keyboard-response","111","523145","0.0-62.0-1.0","""event"",""trial"",""time""
""fullscreenenter"",""0"",""1791""
","
","
","""event"",""trial"",""time""
""fullscreenenter"",""0"",""1791""
","
","null","<p></p>","null","","","","","","","","","","","","","","","","","","","","","","",""
"","do_trial","112","528379","0.0-63.0-0.0","""event"",""trial"",""time""
""fullscreenenter"",""0"",""1791""
","
","
","""event"",""trial"",""time""
""fullscreenenter"",""0"",""1791""
","
","681","","","","","","","","49","1,0,0","0","forest","3","probe-83","0.6818497181775223","0.24945775824728325","0.10010941049933024","1","","","","","","","",""
"","html-keyboard-response","113","529384","0.0-63.0-1.0","""event"",""trial"",""time""
""fullscreenenter"",""0"",""1791""
","
","
","""event"",""trial"",""time""
""fullscreenenter"",""0"",""1791""
","
","null","<p></p>","null","","","","","","","","","","","","","","","","","","","","","","",""
"","do_trial","114","534502","0.0-64.0-0.0","""event"",""trial"",""time""
""fullscreenenter"",""0"",""1791""
","
","
","""event"",""trial"",""time""
""fullscreenenter"",""0"",""1791""
","
","562.7999999970198","","","","","","","","51","1,1,0","0","forest","4","probe-134","0.6911183909866045","0.3905298926920407","0.1441727644626307","0","","","","","","","",""
"","html-keyboard-response","115","535509","0.0-64.0-1.0","""event"",""trial"",""time""
""fullscreenenter"",""0"",""1791""
","
","
","""event"",""trial"",""time""
""fullscreenenter"",""0"",""1791""
","
","null","<p></p>","null","","","","","","","","","","","","","","","","","","","","","","",""
"","do_trial","116","540827","0.0-65.0-0.0","""event"",""trial"",""time""
""fullscreenenter"",""0"",""1791""
","
","
","""event"",""trial"",""time""
""fullscreenenter"",""0"",""1791""
","
","773","","","","","","","","50","1,0,0","0","forest","5","probe-159","0.6351882168017876","0.2153587304822872","0.13514148348790297","0","","","","","","","",""
"","html-keyboard-response","117","541834","0.0-65.0-1.0","""event"",""trial"",""time""
""fullscreenenter"",""0"",""1791""
","
","
","""event"",""trial"",""time""
""fullscreenenter"",""0"",""1791""
","
","null","<p></p>","null","","","","","","","","","","","","","","","","","","","","","","",""
"","do_trial","118","547039","0.0-66.0-0.0","""event"",""trial"",""time""
""fullscreenenter"",""0"",""1791""
","
","
","""event"",""trial"",""time""
""fullscreenenter"",""0"",""1791""
","
","647.7000000029802","","","","","","","","49","1,0,0","0","forest","6","probe-69","0.5028814327739698","0.3542360545855287","0.13162940314438148","1","","","","","","","",""
"","html-keyboard-response","119","548047","0.0-66.0-1.0","""event"",""trial"",""time""
""fullscreenenter"",""0"",""1791""
","
","
","""event"",""trial"",""time""
""fullscreenenter"",""0"",""1791""
","
","null","<p></p>","null","","","","","","","","","","","","","","","","","","","","","","",""
"","do_trial","120","554100","0.0-67.0-0.0","""event"",""trial"",""time""
""fullscreenenter"",""0"",""1791""
","
","
","""event"",""trial"",""time""
""fullscreenenter"",""0"",""1791""
","
","null","","","","","","","","null","0,0,0","0","forest","7","probe-106","0.5769293834731262","0.318821939398878","0.051555316007529835","","","","","","","","",""
"","html-keyboard-response","121","555108","0.0-67.0-1.0","""event"",""trial"",""time""
""fullscreenenter"",""0"",""1791""
","
","
","""event"",""trial"",""time""
""fullscreenenter"",""0"",""1791""
","
","null","<p></p>","null","","","","","","","","","","","","","","","","","","","","","","",""
"","do_trial","122","560683","0.0-68.0-0.0","""event"",""trial"",""time""
""fullscreenenter"",""0"",""1791""
","
","
","""event"",""trial"",""time""
""fullscreenenter"",""0"",""1791""
","
","1020.7999999970198","","","","","","","","50","0,1,0","0","forest","8","probe-183","0.6226728316958915","0.34695005295611686","0.08033679051303731","1","","","","","","","",""
"","html-keyboard-response","123","561692","0.0-68.0-1.0","""event"",""trial"",""time""
""fullscreenenter"",""0"",""1791""
","
","
","""event"",""trial"",""time""
""fullscreenenter"",""0"",""1791""
","
","null","<p></p>","null","","","","","","","","","","","","","","","","","","","","","","",""
"","do_trial","124","566899","0.0-69.0-0.0","""event"",""trial"",""time""
""fullscreenenter"",""0"",""1791""
","
","
","""event"",""trial"",""time""
""fullscreenenter"",""0"",""1791""
","
","649.1000000089407","","","","","","","","49","0,0,0","0","forest","9","probe-192","0.6864501562842895","0.3111395580921181","0.11292846443607993","0","","","","","","","",""
"","html-keyboard-response","125","567906","0.0-69.0-1.0","""event"",""trial"",""time""
""fullscreenenter"",""0"",""1791""
","
","
","""event"",""trial"",""time""
""fullscreenenter"",""0"",""1791""
","
","null","<p></p>","null","","","","","","","","","","","","","","","","","","","","","","",""
"","do_trial","126","572886","0.0-70.0-0.0","""event"",""trial"",""time""
""fullscreenenter"",""0"",""1791""
","
","
","""event"",""trial"",""time""
""fullscreenenter"",""0"",""1791""
","
","424.8999999910593","","","","","","","","51","1,0,0","0","forest","10","probe-19","0.6214252927878734","0.23901196833823524","0.1340352974662193","0","","","","","","","",""
"","html-keyboard-response","127","573890","0.0-70.0-1.0","""event"",""trial"",""time""
""fullscreenenter"",""0"",""1791""
","
","
","""event"",""trial"",""time""
""fullscreenenter"",""0"",""1791""
","
","null","<p></p>","null","","","","","","","","","","","","","","","","","","","","","","",""
"","do_trial","128","578821","0.0-71.0-0.0","""event"",""trial"",""time""
""fullscreenenter"",""0"",""1791""
","
","
","""event"",""trial"",""time""
""fullscreenenter"",""0"",""1791""
","
","370.70000000298023","","","","","","","","50","1,1,0","0","forest","11","probe-115","0.6327452131921089","0.28728501529569095","0.10098488305710919","1","","","","","","","",""
"","html-keyboard-response","129","579829","0.0-71.0-1.0","""event"",""trial"",""time""
""fullscreenenter"",""0"",""1791""
","
","
","""event"",""trial"",""time""
""fullscreenenter"",""0"",""1791""
","
","null","<p></p>","null","","","","","","","","","","","","","","","","","","","","","","",""
"","do_trial","130","585170","0.0-72.0-0.0","""event"",""trial"",""time""
""fullscreenenter"",""0"",""1791""
","
","
","""event"",""trial"",""time""
""fullscreenenter"",""0"",""1791""
","
","793.3999999910593","","","","","","","","49","0,0,0","0","forest","12","probe-62","0.5294405113520328","0.2116584028507431","0.060304173422729715","0","","","","","","","",""
"","html-keyboard-response","131","586173","0.0-72.0-1.0","""event"",""trial"",""time""
""fullscreenenter"",""0"",""1791""
","
","
","""event"",""trial"",""time""
""fullscreenenter"",""0"",""1791""
","
","null","<p></p>","null","","","","","","","","","","","","","","","","","","","","","","",""
"","do_trial","132","591088","0.0-73.0-0.0","""event"",""trial"",""time""
""fullscreenenter"",""0"",""1791""
","
","
","""event"",""trial"",""time""
""fullscreenenter"",""0"",""1791""
","
","358","","","","","","","","50","1,1,0","0","forest","13","probe-199","0.4905785833751957","0.2438795801740172","0.11395225859193431","1","","","","","","","",""
"","html-keyboard-response","133","592091","0.0-73.0-1.0","""event"",""trial"",""time""
""fullscreenenter"",""0"",""1791""
","
","
","""event"",""trial"",""time""
""fullscreenenter"",""0"",""1791""
","
","null","<p></p>","null","","","","","","","","","","","","","","","","","","","","","","",""
"","do_trial","134","597109","0.0-74.0-0.0","""event"",""trial"",""time""
""fullscreenenter"",""0"",""1791""
","
","
","""event"",""trial"",""time""
""fullscreenenter"",""0"",""1791""
","
","469.29999999701977","","","","","","","","51","1,0,1","0","forest","14","probe-127","0.5843659984486724","0.31475470399966254","0.0907117163633106","1","","","","","","","",""
"","html-keyboard-response","135","598112","0.0-74.0-1.0","""event"",""trial"",""time""
""fullscreenenter"",""0"",""1791""
","
","
","""event"",""trial"",""time""
""fullscreenenter"",""0"",""1791""
","
","null","<p></p>","null","","","","","","","","","","","","","","","","","","","","","","",""
"","do_trial","136","603335","0.0-75.0-0.0","""event"",""trial"",""time""
""fullscreenenter"",""0"",""1791""
","
","
","""event"",""trial"",""time""
""fullscreenenter"",""0"",""1791""
","
","666.7999999970198","","","","","","","","50","0,1,0","0","forest","15","probe-116","0.6505342812939147","0.33981341323245184","0.09038000720304565","1","","","","","","","",""
"","html-keyboard-response","137","604342","0.0-75.0-1.0","""event"",""trial"",""time""
""fullscreenenter"",""0"",""1791""
","
","
","""event"",""trial"",""time""
""fullscreenenter"",""0"",""1791""
","
","null","<p></p>","null","","","","","","","","","","","","","","","","","","","","","","",""
"","do_trial","138","609617","0.0-76.0-0.0","""event"",""trial"",""time""
""fullscreenenter"",""0"",""1791""
","
","
","""event"",""trial"",""time""
""fullscreenenter"",""0"",""1791""
","
","717","","","","","","","","49","1,0,0","0","forest","16","probe-141","0.660074664938374","0.4730521433871964","0.09343082498732436","1","","","","","","","",""
"","html-keyboard-response","139","610624","0.0-76.0-1.0","""event"",""trial"",""time""
""fullscreenenter"",""0"",""1791""
","
","
","""event"",""trial"",""time""
""fullscreenenter"",""0"",""1791""
","
","null","<p></p>","null","","","","","","","","","","","","","","","","","","","","","","",""
"","do_trial","140","615829","0.0-77.0-0.0","""event"",""trial"",""time""
""fullscreenenter"",""0"",""1791""
","
","
","""event"",""trial"",""time""
""fullscreenenter"",""0"",""1791""
","
","661.7000000029802","","","","","","","","51","1,0,0","0","forest","17","probe-154","0.7083983974419438","0.42708779227009774","0.10599073945126015","0","","","","","","","",""
"","html-keyboard-response","141","616833","0.0-77.0-1.0","""event"",""trial"",""time""
""fullscreenenter"",""0"",""1791""
","
","
","""event"",""trial"",""time""
""fullscreenenter"",""0"",""1791""
","
","null","<p></p>","null","","","","","","","","","","","","","","","","","","","","","","",""
"","do_trial","142","621833","0.0-78.0-0.0","""event"",""trial"",""time""
""fullscreenenter"",""0"",""1791""
","
","
","""event"",""trial"",""time""
""fullscreenenter"",""0"",""1791""
","
","446","","","","","","","","49","1,0,0","0","forest","18","probe-38","0.8375779414309764","0.35034644372904683","0.14587632367532424","1","","","","","","","",""
"","html-keyboard-response","143","622840","0.0-78.0-1.0","""event"",""trial"",""time""
""fullscreenenter"",""0"",""1791""
","
","
","""event"",""trial"",""time""
""fullscreenenter"",""0"",""1791""
","
","null","<p></p>","null","","","","","","","","","","","","","","","","","","","","","","",""
"","do_trial","144","627874","0.0-79.0-0.0","""event"",""trial"",""time""
""fullscreenenter"",""0"",""1791""
","
","
","""event"",""trial"",""time""
""fullscreenenter"",""0"",""1791""
","
","477.1000000089407","","","","","","","","50","1,0,0","0","forest","19","probe-193","0.738885923079036","0.3689267761939107","0.2311101789493243","0","","","","","","","",""
"","html-keyboard-response","145","628881","0.0-79.0-1.0","""event"",""trial"",""time""
""fullscreenenter"",""0"",""1791""
","
","
","""event"",""trial"",""time""
""fullscreenenter"",""0"",""1791""
","
","null","<p></p>","null","","","","","","","","","","","","","","","","","","","","","","",""
"","do_trial","146","634073","0.0-80.0-0.0","""event"",""trial"",""time""
""fullscreenenter"",""0"",""1791""
","
","
","""event"",""trial"",""time""
""fullscreenenter"",""0"",""1791""
","
","639.0999999940395","","","","","","","","49","0,1,0","0","forest","20","probe-61","0.7426271174046738","0.2543949606798372","0.2389391829572564","0","","","","","","","",""
"","html-keyboard-response","147","635076","0.0-80.0-1.0","""event"",""trial"",""time""
""fullscreenenter"",""0"",""1791""
","
","
","""event"",""trial"",""time""
""fullscreenenter"",""0"",""1791""
","
","null","<p></p>","null","","","","","","","","","","","","","","","","","","","","","","",""
"","do_trial","148","640218","0.0-81.0-0.0","""event"",""trial"",""time""
""fullscreenenter"",""0"",""1791""
","
","
","""event"",""trial"",""time""
""fullscreenenter"",""0"",""1791""
","
","584.2999999970198","","","","","","","","50","0,1,0","0","forest","21","probe-114","0.5716331885159253","0.22907390392577986","0.19253145416105363","1","","","","","","","",""
"","html-keyboard-response","149","641225","0.0-81.0-1.0","""event"",""trial"",""time""
""fullscreenenter"",""0"",""1791""
","
","
","""event"",""trial"",""time""
""fullscreenenter"",""0"",""1791""
","
","null","<p></p>","null","","","","","","","","","","","","","","","","","","","","","","",""
"","do_trial","150","647114","0.0-82.0-0.0","""event"",""trial"",""time""
""fullscreenenter"",""0"",""1791""
","
","
","""event"",""trial"",""time""
""fullscreenenter"",""0"",""1791""
","
","1335.2000000029802","","","","","","","","51","0,0,0","0","forest","22","probe-78","0.4589352651287101","0.28434778376431064","0.2057355607422981","0","","","","","","","",""
"","html-keyboard-response","151","648122","0.0-82.0-1.0","""event"",""trial"",""time""
""fullscreenenter"",""0"",""1791""
","
","
","""event"",""trial"",""time""
""fullscreenenter"",""0"",""1791""
","
","null","<p></p>","null","","","","","","","","","","","","","","","","","","","","","","",""
"","do_trial","152","653631","0.0-83.0-0.0","""event"",""trial"",""time""
""fullscreenenter"",""0"",""1791""
","
","
","""event"",""trial"",""time""
""fullscreenenter"",""0"",""1791""
","
","947.5999999940395","","","","","","","","49","1,0,1","0","forest","23","probe-99","0.3700033241961979","0.24707790415004174","0.3438528156907247","1","","","","","","","",""
"","html-keyboard-response","153","654638","0.0-83.0-1.0","""event"",""trial"",""time""
""fullscreenenter"",""0"",""1791""
","
","
","""event"",""trial"",""time""
""fullscreenenter"",""0"",""1791""
","
","null","<p></p>","null","","","","","","","","","","","","","","","","","","","","","","",""
"","do_trial","154","659799","0.0-84.0-0.0","""event"",""trial"",""time""
""fullscreenenter"",""0"",""1791""
","
","
","""event"",""trial"",""time""
""fullscreenenter"",""0"",""1791""
","
","603.2999999970198","","","","","","","","50","0,0,0","0","forest","24","probe-212","0.3054631808443218","0.17062798404982324","0.26893867231566343","0","","","","","","","",""
"","html-keyboard-response","155","660806","0.0-84.0-1.0","""event"",""trial"",""time""
""fullscreenenter"",""0"",""1791""
","
","
","""event"",""trial"",""time""
""fullscreenenter"",""0"",""1791""
","
","null","<p></p>","null","","","","","","","","","","","","","","","","","","","","","","",""
"","do_trial","156","667502","0.0-85.0-0.0","""event"",""trial"",""time""
""fullscreenenter"",""0"",""1791""
","
","
","""event"",""trial"",""time""
""fullscreenenter"",""0"",""1791""
","
","2149.9000000059605","","","","","","","","51","0,1,0","0","forest","25","probe-135","0.4127585103960652","0.18811756953266043","0.1307526142207725","0","","","","","","","",""
"","html-keyboard-response","157","668509","0.0-85.0-1.0","""event"",""trial"",""time""
""fullscreenenter"",""0"",""1791""
","
","
","""event"",""trial"",""time""
""fullscreenenter"",""0"",""1791""
","
","null","<p></p>","null","","","","","","","","","","","","","","","","","","","","","","",""
"","do_trial","158","673939","0.0-86.0-0.0","""event"",""trial"",""time""
""fullscreenenter"",""0"",""1791""
","
","
","""event"",""trial"",""time""
""fullscreenenter"",""0"",""1791""
","
","875.9000000059605","","","","","","","","49","1,0,1","0","forest","26","probe-73","0.29289008038305686","0.3180988879742474","0.23496465687461313","1","","","","","","","",""
"","html-keyboard-response","159","674945","0.0-86.0-1.0","""event"",""trial"",""time""
""fullscreenenter"",""0"",""1791""
","
","
","""event"",""trial"",""time""
""fullscreenenter"",""0"",""1791""
","
","null","<p></p>","null","","","","","","","","","","","","","","","","","","","","","","",""
"","do_trial","160","680075","0.0-87.0-0.0","""event"",""trial"",""time""
""fullscreenenter"",""0"",""1791""
","
","
","""event"",""trial"",""time""
""fullscreenenter"",""0"",""1791""
","
","575.7000000029802","","","","","","","","50","0,1,0","0","forest","27","probe-224","0.473240854639166","0.35396036734585784","0.19860364376288317","1","","","","","","","",""
"","html-keyboard-response","161","681082","0.0-87.0-1.0","""event"",""trial"",""time""
""fullscreenenter"",""0"",""1791""
","
","
","""event"",""trial"",""time""
""fullscreenenter"",""0"",""1791""
","
","null","<p></p>","null","","","","","","","","","","","","","","","","","","","","","","",""
"","do_trial","162","686353","0.0-88.0-0.0","""event"",""trial"",""time""
""fullscreenenter"",""0"",""1791""
","
","
","""event"",""trial"",""time""
""fullscreenenter"",""0"",""1791""
","
","714.2000000029802","","","","","","","","49","0,1,0","0","forest","28","probe-184","0.4604289632099614","0.3319386653767533","0.2755260197332465","0","","","","","","","",""
"","html-keyboard-response","163","687357","0.0-88.0-1.0","""event"",""trial"",""time""
""fullscreenenter"",""0"",""1791""
","
","
","""event"",""trial"",""time""
""fullscreenenter"",""0"",""1791""
","
","null","<p></p>","null","","","","","","","","","","","","","","","","","","","","","","",""
"","do_trial","164","692899","0.0-89.0-0.0","""event"",""trial"",""time""
""fullscreenenter"",""0"",""1791""
","
","
","""event"",""trial"",""time""
""fullscreenenter"",""0"",""1791""
","
","982","","","","","","","","51","1,0,0","0","forest","29","probe-153","0.5240060047441966","0.20523103455412106","0.22368005188756568","0","","","","","","","",""
"","html-keyboard-response","165","693903","0.0-89.0-1.0","""event"",""trial"",""time""
""fullscreenenter"",""0"",""1791""
","
","
","""event"",""trial"",""time""
""fullscreenenter"",""0"",""1791""
","
","null","<p></p>","null","","","","","","","","","","","","","","","","","","","","","","",""
"","do_bye","166","695415","0.0-90.0-0.0","""event"",""trial"",""time""
""fullscreenenter"",""0"",""1791""
","
","
","""event"",""trial"",""time""
""fullscreenenter"",""0"",""1791""
","
","null","","","","","","","","null","","","","","","","","","","","","","","","","",""
"","break","167","699274","0.0-90.0-1.0","""event"",""trial"",""time""
""fullscreenenter"",""0"",""1791""
","
","
","""event"",""trial"",""time""
""fullscreenenter"",""0"",""1791""
","
","3856.9000000059605","<div class='center'><p>Time to take a quick break! You have 2 minutes to rest, but you can move on sooner if you'd like.</p><p> Press the <b>space bar</b> to continue.</p></div>","32","","","","","","","","","","","","","","","","","","","","","","",""
"","do_travel","168","708283","0.0-91.0-0.0","""event"",""trial"",""time""
""fullscreenenter"",""0"",""1791""
","
","
","""event"",""trial"",""time""
""fullscreenenter"",""0"",""1791""
","
","null","","","","","","","","null","","","","","","","","","","","","","","","","",""
"","do_welcome","169","712293","0.0-91.0-1.0","""event"",""trial"",""time""
""fullscreenenter"",""0"",""1791""
","
","
","""event"",""trial"",""time""
""fullscreenenter"",""0"",""1791""
","
","null","","","","","","","","null","","","","","","","","","","","","","","","","",""
"","do_trial","170","717932","0.0-92.0-0.0","""event"",""trial"",""time""
""fullscreenenter"",""0"",""1791""
","
","
","""event"",""trial"",""time""
""fullscreenenter"",""0"",""1791""
","
","1082.7999999970198","","","","","","","","50","1,0,0","1","coast","30","probe-196","1","0.23984767561606027","0.05672720060747984","0","","","","","","","",""
"","html-keyboard-response","171","718939","0.0-92.0-1.0","""event"",""trial"",""time""
""fullscreenenter"",""0"",""1791""
","
","
","""event"",""trial"",""time""
""fullscreenenter"",""0"",""1791""
","
","null","<p></p>","null","","","","","","","","","","","","","","","","","","","","","","",""
"","do_trial","172","723489","0.0-93.0-0.0","""event"",""trial"",""time""
""fullscreenenter"",""0"",""1791""
","
","
","""event"",""trial"",""time""
""fullscreenenter"",""0"",""1791""
","
","0.20000000298023224","","","","","","","","51","1,0,0","1","coast","31","probe-117","1","0.3439161541382185","0.12918705238994513","0","","","","","","","",""
"","html-keyboard-response","173","724497","0.0-93.0-1.0","""event"",""trial"",""time""
""fullscreenenter"",""0"",""1791""
","
","
","""event"",""trial"",""time""
""fullscreenenter"",""0"",""1791""
","
","null","<p></p>","null","","","","","","","","","","","","","","","","","","","","","","",""
"","do_trial","174","729367","0.0-94.0-0.0","""event"",""trial"",""time""
""fullscreenenter"",""0"",""1791""
","
","
","""event"",""trial"",""time""
""fullscreenenter"",""0"",""1791""
","
","316.59999999403954","","","","","","","","49","1,0,0","1","coast","32","probe-213","1","0.32793140847249325","0.06662680795864265","1","","","","","","","",""
"","html-keyboard-response","175","730370","0.0-94.0-1.0","""event"",""trial"",""time""
""fullscreenenter"",""0"",""1791""
","
","
","""event"",""trial"",""time""
""fullscreenenter"",""0"",""1791""
","
","null","<p></p>","null","","","","","","","","","","","","","","","","","","","","","","",""
"","do_trial","176","735988","0.0-95.0-0.0","""event"",""trial"",""time""
""fullscreenenter"",""0"",""1791""
","
","
","""event"",""trial"",""time""
""fullscreenenter"",""0"",""1791""
","
","1063.7000000029802","","","","","","","","49","1,0,0","1","coast","33","probe-172","0.8603086289535807","0.25685577779796176","0.05602406629114135","1","","","","","","","",""
"","html-keyboard-response","177","736996","0.0-95.0-1.0","""event"",""trial"",""time""
""fullscreenenter"",""0"",""1791""
","
","
","""event"",""trial"",""time""
""fullscreenenter"",""0"",""1791""
","
","null","<p></p>","null","","","","","","","","","","","","","","","","","","","","","","",""
"","do_trial","178","742363","0.0-96.0-0.0","""event"",""trial"",""time""
""fullscreenenter"",""0"",""1791""
","
","
","""event"",""trial"",""time""
""fullscreenenter"",""0"",""1791""
","
","809.2000000029802","","","","","","","","51","1,0,0","1","coast","34","probe-129","0.7592104286838682","0.42837630399821314","0.12822519077070463","0","","","","","","","",""
"","html-keyboard-response","179","743371","0.0-96.0-1.0","""event"",""trial"",""time""
""fullscreenenter"",""0"",""1791""
","
","
","""event"",""trial"",""time""
""fullscreenenter"",""0"",""1791""
","
","null","<p></p>","null","","","","","","","","","","","","","","","","","","","","","","",""
"","do_trial","180","748526","0.0-97.0-0.0","""event"",""trial"",""time""
""fullscreenenter"",""0"",""1791""
","
","
","""event"",""trial"",""time""
""fullscreenenter"",""0"",""1791""
","
","602.9000000059605","","","","","","","","50","0,1,0","1","coast","35","probe-15","0.7635365757217258","0.4252780447428277","0.05851303765021224","1","","","","","","","",""
"","html-keyboard-response","181","749530","0.0-97.0-1.0","""event"",""trial"",""time""
""fullscreenenter"",""0"",""1791""
","
","
","""event"",""trial"",""time""
""fullscreenenter"",""0"",""1791""
","
","null","<p></p>","null","","","","","","","","","","","","","","","","","","","","","","",""
"","do_trial","182","754448","0.0-98.0-0.0","""event"",""trial"",""time""
""fullscreenenter"",""0"",""1791""
","
","
","""event"",""trial"",""time""
""fullscreenenter"",""0"",""1791""
","
","363.80000001192093","","","","","","","","49","1,0,0","1","coast","36","probe-204","0.7071348075749846","0.3260008352386828","0.16295430336704259","1","","","","","","","",""
"","html-keyboard-response","183","755453","0.0-98.0-1.0","""event"",""trial"",""time""
""fullscreenenter"",""0"",""1791""
","
","
","""event"",""trial"",""time""
""fullscreenenter"",""0"",""1791""
","
","null","<p></p>","null","","","","","","","","","","","","","","","","","","","","","","",""
"","do_trial","184","760552","0.0-99.0-0.0","""event"",""trial"",""time""
""fullscreenenter"",""0"",""1791""
","
","
","""event"",""trial"",""time""
""fullscreenenter"",""0"",""1791""
","
","552.0999999940395","","","","","","","","50","0,1,0","1","coast","37","probe-98","0.6532620385480103","0.2984949147927123","0.10163718291406743","1","","","","","","","",""
"","html-keyboard-response","185","761560","0.0-99.0-1.0","""event"",""trial"",""time""
""fullscreenenter"",""0"",""1791""
","
","
","""event"",""trial"",""time""
""fullscreenenter"",""0"",""1791""
","
","null","<p></p>","null","","","","","","","","","","","","","","","","","","","","","","",""
"","do_trial","186","766395","0.0-100.0-0.0","""event"",""trial"",""time""
""fullscreenenter"",""0"",""1791""
","
","
","""event"",""trial"",""time""
""fullscreenenter"",""0"",""1791""
","
","291","","","","","","","","49","1,0,0","1","coast","38","probe-111","0.6408966111127368","0.3971012596190508","0.06111680372626816","1","","","","","","","",""
"","html-keyboard-response","187","767399","0.0-100.0-1.0","""event"",""trial"",""time""
""fullscreenenter"",""0"",""1791""
","
","
","""event"",""trial"",""time""
""fullscreenenter"",""0"",""1791""
","
","null","<p></p>","null","","","","","","","","","","","","","","","","","","","","","","",""
"","do_trial","188","772680","0.0-101.0-0.0","""event"",""trial"",""time""
""fullscreenenter"",""0"",""1791""
","
","
","""event"",""trial"",""time""
""fullscreenenter"",""0"",""1791""
","
","721.7999999970198","","","","","","","","50","1,1,0","1","coast","39","probe-168","0.7096520767448002","0.24066124370974948","0.30658076246582555","1","","","","","","","",""
"","html-keyboard-response","189","773688","0.0-101.0-1.0","""event"",""trial"",""time""
""fullscreenenter"",""0"",""1791""
","
","
","""event"",""trial"",""time""
""fullscreenenter"",""0"",""1791""
","
","null","<p></p>","null","","","","","","","","","","","","","","","","","","","","","","",""
"","do_trial","190","779121","0.0-102.0-0.0","""event"",""trial"",""time""
""fullscreenenter"",""0"",""1791""
","
","
","""event"",""trial"",""time""
""fullscreenenter"",""0"",""1791""
","
","883.2000000029802","","","","","","","","51","1,0,0","1","coast","40","probe-120","0.7625370719760405","0.05639920247289023","0.43011028679596874","0","","","","","","","",""
"","html-keyboard-response","191","780128","0.0-102.0-1.0","""event"",""trial"",""time""
""fullscreenenter"",""0"",""1791""
","
","
","""event"",""trial"",""time""
""fullscreenenter"",""0"",""1791""
","
","null","<p></p>","null","","","","","","","","","","","","","","","","","","","","","","",""
"","do_trial","192","785131","0.0-103.0-0.0","""event"",""trial"",""time""
""fullscreenenter"",""0"",""1791""
","
","
","""event"",""trial"",""time""
""fullscreenenter"",""0"",""1791""
","
","446.79999999701977","","","","","","","","49","0,0,1","1","coast","41","probe-58","0.7441150658491312","0.05130912217496234","0.6268915989690754","0","","","","","","","",""
"","html-keyboard-response","193","786139","0.0-103.0-1.0","""event"",""trial"",""time""
""fullscreenenter"",""0"",""1791""
","
","
","""event"",""trial"",""time""
""fullscreenenter"",""0"",""1791""
","
","null","<p></p>","null","","","","","","","","","","","","","","","","","","","","","","",""
"","do_trial","194","791008","0.0-104.0-0.0","""event"",""trial"",""time""
""fullscreenenter"",""0"",""1791""
","
","
","""event"",""trial"",""time""
""fullscreenenter"",""0"",""1791""
","
","316.59999999403954","","","","","","","","50","0,0,1","1","coast","42","probe-217","0.5861980590101189","0.10283112795459676","0.6528216570974992","0","","","","","","","",""
"","html-keyboard-response","195","792011","0.0-104.0-1.0","""event"",""trial"",""time""
""fullscreenenter"",""0"",""1791""
","
","
","""event"",""trial"",""time""
""fullscreenenter"",""0"",""1791""
","
","null","<p></p>","null","","","","","","","","","","","","","","","","","","","","","","",""
"","do_trial","196","796882","0.0-105.0-0.0","""event"",""trial"",""time""
""fullscreenenter"",""0"",""1791""
","
","
","""event"",""trial"",""time""
""fullscreenenter"",""0"",""1791""
","
","313","","","","","","","","51","0,0,0","1","coast","43","probe-146","0.5088203375259954","0.18233657743516088","0.5790819694866337","0","","","","","","","",""
"","html-keyboard-response","197","797890","0.0-105.0-1.0","""event"",""trial"",""time""
""fullscreenenter"",""0"",""1791""
","
","
","""event"",""trial"",""time""
""fullscreenenter"",""0"",""1791""
","
","null","<p></p>","null","","","","","","","","","","","","","","","","","","","","","","",""
"","do_trial","198","802898","0.0-106.0-0.0","""event"",""trial"",""time""
""fullscreenenter"",""0"",""1791""
","
","
","""event"",""trial"",""time""
""fullscreenenter"",""0"",""1791""
","
","457.1000000089407","","","","","","","","49","1,0,1","1","coast","44","probe-164","0.3328105835704344","0.15435381807651083","0.7063888507696028","1","","","","","","","",""
"","html-keyboard-response","199","803903","0.0-106.0-1.0","""event"",""trial"",""time""
""fullscreenenter"",""0"",""1791""
","
","
","""event"",""trial"",""time""
""fullscreenenter"",""0"",""1791""
","
","null","<p></p>","null","","","","","","","","","","","","","","","","","","","","","","",""
"","do_trial","200","808862","0.0-107.0-0.0","""event"",""trial"",""time""
""fullscreenenter"",""0"",""1791""
","
","
","""event"",""trial"",""time""
""fullscreenenter"",""0"",""1791""
","
","407.09999999403954","","","","","","","","50","0,0,0","1","coast","45","probe-143","0.3896147032903185","0.18615999379029496","0.6572143217735024","0","","","","","","","",""
"","html-keyboard-response","201","809869","0.0-107.0-1.0","""event"",""trial"",""time""
""fullscreenenter"",""0"",""1791""
","
","
","""event"",""trial"",""time""
""fullscreenenter"",""0"",""1791""
","
","null","<p></p>","null","","","","","","","","","","","","","","","","","","","","","","",""
"","do_trial","202","814811","0.0-108.0-0.0","""event"",""trial"",""time""
""fullscreenenter"",""0"",""1791""
","
","
","""event"",""trial"",""time""
""fullscreenenter"",""0"",""1791""
","
","387.20000000298023","","","","","","","","49","1,1,1","1","coast","46","probe-64","0.3804017207681137","0.12573545747197531","0.6535429014933714","1","","","","","","","",""
"","html-keyboard-response","203","815818","0.0-108.0-1.0","""event"",""trial"",""time""
""fullscreenenter"",""0"",""1791""
","
","
","""event"",""trial"",""time""
""fullscreenenter"",""0"",""1791""
","
","null","<p></p>","null","","","","","","","","","","","","","","","","","","","","","","",""
"","do_trial","204","821345","0.0-109.0-0.0","""event"",""trial"",""time""
""fullscreenenter"",""0"",""1791""
","
","
","""event"",""trial"",""time""
""fullscreenenter"",""0"",""1791""
","
","974.7000000029802","","","","","","","","49","0,0,0","1","coast","47","probe-17","0.4213264919640113","0.05730502899941449","0.6028186908908315","0","","","","","","","",""
"","html-keyboard-response","205","822352","0.0-109.0-1.0","""event"",""trial"",""time""
""fullscreenenter"",""0"",""1791""
","
","
","""event"",""trial"",""time""
""fullscreenenter"",""0"",""1791""
","
","null","<p></p>","null","","","","","","","","","","","","","","","","","","","","","","",""
"","do_trial","206","827252","0.0-110.0-0.0","""event"",""trial"",""time""
""fullscreenenter"",""0"",""1791""
","
","
","""event"",""trial"",""time""
""fullscreenenter"",""0"",""1791""
","
","339.29999999701977","","","","","","","","50","0,0,0","1","coast","48","probe-54","0.3685110326262803","0.05663538237649496","0.4938474598958858","0","","","","","","","",""
"","html-keyboard-response","207","828260","0.0-110.0-1.0","""event"",""trial"",""time""
""fullscreenenter"",""0"",""1791""
","
","
","""event"",""trial"",""time""
""fullscreenenter"",""0"",""1791""
","
","null","<p></p>","null","","","","","","","","","","","","","","","","","","","","","","",""
"","do_trial","208","833116","0.0-111.0-0.0","""event"",""trial"",""time""
""fullscreenenter"",""0"",""1791""
","
","
","""event"",""trial"",""time""
""fullscreenenter"",""0"",""1791""
","
","300.29999999701977","","","","","","","","51","1,0,1","1","coast","49","probe-21","0.4257052002014371","0.17173242382554102","0.4744585523688902","1","","","","","","","",""
"","html-keyboard-response","209","834124","0.0-111.0-1.0","""event"",""trial"",""time""
""fullscreenenter"",""0"",""1791""
","
","
","""event"",""trial"",""time""
""fullscreenenter"",""0"",""1791""
","
","null","<p></p>","null","","","","","","","","","","","","","","","","","","","","","","",""
"","do_trial","210","839142","0.0-112.0-0.0","""event"",""trial"",""time""
""fullscreenenter"",""0"",""1791""
","
","
","""event"",""trial"",""time""
""fullscreenenter"",""0"",""1791""
","
","470.6000000089407","","","","","","","","49","1,0,1","1","coast","50","probe-225","0.3098745069444559","0.19368606707308061","0.6278457569961033","1","","","","","","","",""
"","html-keyboard-response","211","840149","0.0-112.0-1.0","""event"",""trial"",""time""
""fullscreenenter"",""0"",""1791""
","
","
","""event"",""trial"",""time""
""fullscreenenter"",""0"",""1791""
","
","null","<p></p>","null","","","","","","","","","","","","","","","","","","","","","","",""
"","do_trial","212","845462","0.0-113.0-0.0","""event"",""trial"",""time""
""fullscreenenter"",""0"",""1791""
","
","
","""event"",""trial"",""time""
""fullscreenenter"",""0"",""1791""
","
","757.6000000089407","","","","","","","","51","0,0,1","1","coast","51","probe-101","0.2467036383827008","0.16930265165116906","0.6680999668494633","1","","","","","","","",""
"","html-keyboard-response","213","846469","0.0-113.0-1.0","""event"",""trial"",""time""
""fullscreenenter"",""0"",""1791""
","
","
","""event"",""trial"",""time""
""fullscreenenter"",""0"",""1791""
","
","null","<p></p>","null","","","","","","","","","","","","","","","","","","","","","","",""
"","do_trial","214","851227","0.0-114.0-0.0","""event"",""trial"",""time""
""fullscreenenter"",""0"",""1791""
","
","
","""event"",""trial"",""time""
""fullscreenenter"",""0"",""1791""
","
","201.90000000596046","","","","","","","","50","0,0,1","1","coast","52","probe-124","0.3053126647516415","0.18180769848210154","0.6928100181059977","0","","","","","","","",""
"","html-keyboard-response","215","852230","0.0-114.0-1.0","""event"",""trial"",""time""
""fullscreenenter"",""0"",""1791""
","
","
","""event"",""trial"",""time""
""fullscreenenter"",""0"",""1791""
","
","null","<p></p>","null","","","","","","","","","","","","","","","","","","","","","","",""
"","do_trial","216","857354","0.0-115.0-0.0","""event"",""trial"",""time""
""fullscreenenter"",""0"",""1791""
","
","
","""event"",""trial"",""time""
""fullscreenenter"",""0"",""1791""
","
","569.5999999940395","","","","","","","","49","1,0,1","1","coast","53","probe-65","0.4550167586637586","0.18397549747481207","0.6830804578928351","1","","","","","","","",""
"","html-keyboard-response","217","858362","0.0-115.0-1.0","""event"",""trial"",""time""
""fullscreenenter"",""0"",""1791""
","
","
","""event"",""trial"",""time""
""fullscreenenter"",""0"",""1791""
","
","null","<p></p>","null","","","","","","","","","","","","","","","","","","","","","","",""
"","do_trial","218","864375","0.0-116.0-0.0","""event"",""trial"",""time""
""fullscreenenter"",""0"",""1791""
","
","
","""event"",""trial"",""time""
""fullscreenenter"",""0"",""1791""
","
","1463","","","","","","","","51","0,0,1","1","coast","54","probe-175","0.39745971438455946","0.1022102315927929","0.7226765567418579","1","","","","","","","",""
"","html-keyboard-response","219","865385","0.0-116.0-1.0","""event"",""trial"",""time""
""fullscreenenter"",""0"",""1791""
","
","
","""event"",""trial"",""time""
""fullscreenenter"",""0"",""1791""
","
","null","<p></p>","null","","","","","","","","","","","","","","","","","","","","","","",""
"","do_trial","220","870516","0.0-117.0-0.0","""event"",""trial"",""time""
""fullscreenenter"",""0"",""1791""
","
","
","""event"",""trial"",""time""
""fullscreenenter"",""0"",""1791""
","
","572.2000000029802","","","","","","","","50","1,0,1","1","coast","55","probe-48","0.36196809723762274","0.18496367676369724","0.7414857834197476","0","","","","","","","",""
"","html-keyboard-response","221","871524","0.0-117.0-1.0","""event"",""trial"",""time""
""fullscreenenter"",""0"",""1791""
","
","
","""event"",""trial"",""time""
""fullscreenenter"",""0"",""1791""
","
","null","<p></p>","null","","","","","","","","","","","","","","","","","","","","","","",""
"","do_trial","222","877062","0.0-118.0-0.0","""event"",""trial"",""time""
""fullscreenenter"",""0"",""1791""
","
","
","""event"",""trial"",""time""
""fullscreenenter"",""0"",""1791""
","
","978.2999999970198","","","","","","","","49","0,0,1","1","coast","56","probe-32","0.38611340542131956","0.1471757462022575","0.76583644164153","0","","","","","","","",""
"","html-keyboard-response","223","878069","0.0-118.0-1.0","""event"",""trial"",""time""
""fullscreenenter"",""0"",""1791""
","
","
","""event"",""trial"",""time""
""fullscreenenter"",""0"",""1791""
","
","null","<p></p>","null","","","","","","","","","","","","","","","","","","","","","","",""
"","do_trial","224","883365","0.0-119.0-0.0","""event"",""trial"",""time""
""fullscreenenter"",""0"",""1791""
","
","
","""event"",""trial"",""time""
""fullscreenenter"",""0"",""1791""
","
","750.7999999970198","","","","","","","","51","0,0,1","1","coast","57","probe-162","0.2499259800267941","0.1495783929780131","0.7911008080641826","1","","","","","","","",""
"","html-keyboard-response","225","884372","0.0-119.0-1.0","""event"",""trial"",""time""
""fullscreenenter"",""0"",""1791""
","
","
","""event"",""trial"",""time""
""fullscreenenter"",""0"",""1791""
","
","null","<p></p>","null","","","","","","","","","","","","","","","","","","","","","","",""
"","do_trial","226","889251","0.0-120.0-0.0","""event"",""trial"",""time""
""fullscreenenter"",""0"",""1791""
","
","
","""event"",""trial"",""time""
""fullscreenenter"",""0"",""1791""
","
","330.6000000089407","","","","","","","","50","0,0,1","1","coast","58","probe-119","0.277815872752121","0.07808501742278938","0.6722815046650196","0","","","","","","","",""
"","html-keyboard-response","227","890258","0.0-120.0-1.0","""event"",""trial"",""time""
""fullscreenenter"",""0"",""1791""
","
","
","""event"",""trial"",""time""
""fullscreenenter"",""0"",""1791""
","
","null","<p></p>","null","","","","","","","","","","","","","","","","","","","","","","",""
"","do_trial","228","895156","0.0-121.0-0.0","""event"",""trial"",""time""
""fullscreenenter"",""0"",""1791""
","
","
","""event"",""trial"",""time""
""fullscreenenter"",""0"",""1791""
","
","342","","","","","","","","49","0,1,1","1","coast","59","probe-88","0.40714150675454674","0.2794051433173507","0.7189313957001038","0","","","","","","","",""
"","html-keyboard-response","229","896164","0.0-121.0-1.0","""event"",""trial"",""time""
""fullscreenenter"",""0"",""1791""
","
","
","""event"",""trial"",""time""
""fullscreenenter"",""0"",""1791""
","
","null","<p></p>","null","","","","","","","","","","","","","","","","","","","","","","",""
"","do_trial","230","901054","0.0-122.0-0.0","""event"",""trial"",""time""
""fullscreenenter"",""0"",""1791""
","
","
","""event"",""trial"",""time""
""fullscreenenter"",""0"",""1791""
","
","330.59999999403954","","","","","","","","50","0,0,0","1","coast","60","probe-157","0.4775427070662434","0.22694080133512315","0.6287686155713216","0","","","","","","","",""
"","html-keyboard-response","231","902062","0.0-122.0-1.0","""event"",""trial"",""time""
""fullscreenenter"",""0"",""1791""
","
","
","""event"",""trial"",""time""
""fullscreenenter"",""0"",""1791""
","
","null","<p></p>","null","","","","","","","","","","","","","","","","","","","","","","",""
"","do_trial","232","907165","0.0-123.0-0.0","""event"",""trial"",""time""
""fullscreenenter"",""0"",""1791""
","
","
","""event"",""trial"",""time""
""fullscreenenter"",""0"",""1791""
","
","549.5","","","","","","","","51","0,1,1","1","coast","61","probe-201","0.20438200438858178","0.24306900445069488","0.6244199185677376","1","","","","","","","",""
"","html-keyboard-response","233","908173","0.0-123.0-1.0","""event"",""trial"",""time""
""fullscreenenter"",""0"",""1791""
","
","
","""event"",""trial"",""time""
""fullscreenenter"",""0"",""1791""
","
","null","<p></p>","null","","","","","","","","","","","","","","","","","","","","","","",""
"","do_trial","234","913257","0.0-124.0-0.0","""event"",""trial"",""time""
""fullscreenenter"",""0"",""1791""
","
","
","""event"",""trial"",""time""
""fullscreenenter"",""0"",""1791""
","
","531.0999999940395","","","","","","","","51","0,0,1","1","coast","62","probe-68","0.33376471852342593","0.06424719607240587","0.734732187422932","1","","","","","","","",""
"","html-keyboard-response","235","914265","0.0-124.0-1.0","""event"",""trial"",""time""
""fullscreenenter"",""0"",""1791""
","
","
","""event"",""trial"",""time""
""fullscreenenter"",""0"",""1791""
","
","null","<p></p>","null","","","","","","","","","","","","","","","","","","","","","","",""
"","do_trial","236","919392","0.0-125.0-0.0","""event"",""trial"",""time""
""fullscreenenter"",""0"",""1791""
","
","
","""event"",""trial"",""time""
""fullscreenenter"",""0"",""1791""
","
","568.3000000119209","","","","","","","","50","1,0,1","1","coast","63","probe-10","0.21384700269905962","0.12532869557476273","0.6467154750259672","0","","","","","","","",""
"","html-keyboard-response","237","920400","0.0-125.0-1.0","""event"",""trial"",""time""
""fullscreenenter"",""0"",""1791""
","
","
","""event"",""trial"",""time""
""fullscreenenter"",""0"",""1791""
","
","null","<p></p>","null","","","","","","","","","","","","","","","","","","","","","","",""
"","do_trial","238","925362","0.0-126.0-0.0","""event"",""trial"",""time""
""fullscreenenter"",""0"",""1791""
","
","
","""event"",""trial"",""time""
""fullscreenenter"",""0"",""1791""
","
","407.59999999403954","","","","","","","","49","0,1,1","1","coast","64","probe-12","0.0526440688376692","0.11567390386482444","0.7061736756893088","0","","","","","","","",""
"","html-keyboard-response","239","926369","0.0-126.0-1.0","""event"",""trial"",""time""
""fullscreenenter"",""0"",""1791""
","
","
","""event"",""trial"",""time""
""fullscreenenter"",""0"",""1791""
","
","null","<p></p>","null","","","","","","","","","","","","","","","","","","","","","","",""
"","do_trial","240","932354","0.0-127.0-0.0","""event"",""trial"",""time""
""fullscreenenter"",""0"",""1791""
","
","
","""event"",""trial"",""time""
""fullscreenenter"",""0"",""1791""
","
","1421.7999999970198","","","","","","","","51","0,0,1","1","coast","65","probe-179","0.0902389452510872","0.08971556693516375","0.6070387949330316","1","","","","","","","",""
"","html-keyboard-response","241","933358","0.0-127.0-1.0","""event"",""trial"",""time""
""fullscreenenter"",""0"",""1791""
","
","
","""event"",""trial"",""time""
""fullscreenenter"",""0"",""1791""
","
","null","<p></p>","null","","","","","","","","","","","","","","","","","","","","","","",""
"","do_trial","242","938877","0.0-128.0-0.0","""event"",""trial"",""time""
""fullscreenenter"",""0"",""1791""
","
","
","""event"",""trial"",""time""
""fullscreenenter"",""0"",""1791""
","
","969.0999999940395","","","","","","","","50","0,0,1","1","coast","66","probe-132","0.10218470854906478","0.20509499375207937","0.5752693725731299","0","","","","","","","",""
"","html-keyboard-response","243","939885","0.0-128.0-1.0","""event"",""trial"",""time""
""fullscreenenter"",""0"",""1791""
","
","
","""event"",""trial"",""time""
""fullscreenenter"",""0"",""1791""
","
","null","<p></p>","null","","","","","","","","","","","","","","","","","","","","","","",""
"","do_trial","244","944839","0.0-129.0-0.0","""event"",""trial"",""time""
""fullscreenenter"",""0"",""1791""
","
","
","""event"",""trial"",""time""
""fullscreenenter"",""0"",""1791""
","
","399.6000000089407","","","","","","","","49","0,0,0","1","coast","67","probe-185","0.1475816734057701","0.14945668518582608","0.4140142082370589","0","","","","","","","",""
"","html-keyboard-response","245","945846","0.0-129.0-1.0","""event"",""trial"",""time""
""fullscreenenter"",""0"",""1791""
","
","
","""event"",""trial"",""time""
""fullscreenenter"",""0"",""1791""
","
","null","<p></p>","null","","","","","","","","","","","","","","","","","","","","","","",""
"","do_trial","246","950917","0.0-130.0-0.0","""event"",""trial"",""time""
""fullscreenenter"",""0"",""1791""
","
","
","""event"",""trial"",""time""
""fullscreenenter"",""0"",""1791""
","
","517","","","","","","","","51","1,0,1","1","coast","68","probe-45","0.0961680718447618","0.054443719527416765","0.49194582402350406","1","","","","","","","",""
"","html-keyboard-response","247","951922","0.0-130.0-1.0","""event"",""trial"",""time""
""fullscreenenter"",""0"",""1791""
","
","
","""event"",""trial"",""time""
""fullscreenenter"",""0"",""1791""
","
","null","<p></p>","null","","","","","","","","","","","","","","","","","","","","","","",""
"","do_trial","248","957142","0.0-131.0-0.0","""event"",""trial"",""time""
""fullscreenenter"",""0"",""1791""
","
","
","""event"",""trial"",""time""
""fullscreenenter"",""0"",""1791""
","
","665.2000000029802","","","","","","","","50","0,0,0","1","coast","69","probe-85","0.17512534997359994","0.1223290129492667","0.4916370550680231","0","","","","","","","",""
"","html-keyboard-response","249","958149","0.0-131.0-1.0","""event"",""trial"",""time""
""fullscreenenter"",""0"",""1791""
","
","
","""event"",""trial"",""time""
""fullscreenenter"",""0"",""1791""
","
","null","<p></p>","null","","","","","","","","","","","","","","","","","","","","","","",""
"","do_bye","250","959659","0.0-132.0-0.0","""event"",""trial"",""time""
""fullscreenenter"",""0"",""1791""
","
","
","""event"",""trial"",""time""
""fullscreenenter"",""0"",""1791""
","
","null","","","","","","","","null","","","","","","","","","","","","","","","","",""
"","break","251","979760","0.0-132.0-1.0","""event"",""trial"",""time""
""fullscreenenter"",""0"",""1791""
","
","
","""event"",""trial"",""time""
""fullscreenenter"",""0"",""1791""
","
","20099.80000001192","<div class='center'><p>Time to take a quick break! You have 2 minutes to rest, but you can move on sooner if you'd like.</p><p> Press the <b>space bar</b> to continue.</p></div>","32","","","","","","","","","","","","","","","","","","","","","","",""
"","do_travel","252","988770","0.0-133.0-0.0","""event"",""trial"",""time""
""fullscreenenter"",""0"",""1791""
","
","
","""event"",""trial"",""time""
""fullscreenenter"",""0"",""1791""
","
","null","","","","","","","","null","","","","","","","","","","","","","","","","",""
"","do_welcome","253","992784","0.0-133.0-1.0","""event"",""trial"",""time""
""fullscreenenter"",""0"",""1791""
","
","
","""event"",""trial"",""time""
""fullscreenenter"",""0"",""1791""
","
","null","","","","","","","","null","","","","","","","","","","","","","","","","",""
"","do_trial","254","999448","0.0-134.0-0.0","""event"",""trial"",""time""
""fullscreenenter"",""0"",""1791""
","
","
","""event"",""trial"",""time""
""fullscreenenter"",""0"",""1791""
","
","2108","","","","","","","","51","0,1,1","2","highway","70","probe-50","0.20763300528057316","0.10201650367024621","1","1","","","","","","","",""
"","html-keyboard-response","255","1000456","0.0-134.0-1.0","""event"",""trial"",""time""
""fullscreenenter"",""0"",""1791""
","
","
","""event"",""trial"",""time""
""fullscreenenter"",""0"",""1791""
","
","null","<p></p>","null","","","","","","","","","","","","","","","","","","","","","","",""
"","do_trial","256","1005138","0.0-135.0-0.0","""event"",""trial"",""time""
""fullscreenenter"",""0"",""1791""
","
","
","""event"",""trial"",""time""
""fullscreenenter"",""0"",""1791""
","
","127.69999998807907","","","","","","","","50","0,0,1","2","highway","71","probe-95","0.3119402031691232","0.11502387456781799","1","0","","","","","","","",""
"","html-keyboard-response","257","1006142","0.0-135.0-1.0","""event"",""trial"",""time""
""fullscreenenter"",""0"",""1791""
","
","
","""event"",""trial"",""time""
""fullscreenenter"",""0"",""1791""
","
","null","<p></p>","null","","","","","","","","","","","","","","","","","","","","","","",""
"","do_trial","258","1011313","0.0-136.0-0.0","""event"",""trial"",""time""
""fullscreenenter"",""0"",""1791""
","
","
","""event"",""trial"",""time""
""fullscreenenter"",""0"",""1791""
","
","618.0999999940395","","","","","","","","49","1,1,1","2","highway","72","probe-167","0.22209683135135294","0.17313334634524177","0.7400799297997894","1","","","","","","","",""
"","html-keyboard-response","259","1012317","0.0-136.0-1.0","""event"",""trial"",""time""
""fullscreenenter"",""0"",""1791""
","
","
","""event"",""trial"",""time""
""fullscreenenter"",""0"",""1791""
","
","null","<p></p>","null","","","","","","","","","","","","","","","","","","","","","","",""
"","do_trial","260","1017461","0.0-137.0-0.0","""event"",""trial"",""time""
""fullscreenenter"",""0"",""1791""
","
","
","""event"",""trial"",""time""
""fullscreenenter"",""0"",""1791""
","
