"success","trial_type","trial_index","time_elapsed","internal_node_id","rt","stimulus","key_press","subject_id","response","choice_outcomes","context_n","context_img_id","trial_n","probe_img_id","pR_red","pR_white","pR_black","outcome","is_valid","image_to_show","probed_trial","probed_context","correct","context_id"
"true","fullscreen","0","63895","0.0-0.0","","","","","","","","","","","","","","","","","","","",""
"","pavlovia","1","63901","0.0-1.0","","","","","","","","","","","","","","","","","","","",""
"","html-keyboard-response","2","182637","0.0-2.0","118730.39999999851","<div class='center'><p>Welcome! This experiment will last ~1 hour. In this experiment, you are the head captain of a pirate ship traveling around the world to different places. You will complete several different tasks during this experiment. Here is an overview of these tasks:</p><br><p>1. Tutorial and quiz</p><p>2. Pick a pirate game in 6 different places</p><p>3. Pick a pirate game and memory game</p><p>4. Final questions and payment</p><br><p>If you complete the entire experiment, you will receive $15 and a possible bonus payment.</p><p><b>[Press the space bar to begin the tutorial]</b></p></div>","32","612ee05ab3ef2972bf34f1db","","","","","","","","","","","","","","","",""
"","html-keyboard-response","3","204756","0.0-3.0","22117.29999999702","<div class='center'><p>You are the head captain of a pirate ship.</p><p> Your pirates rob other ships as they leave the marketplace port.</p> These ships have just sold all their goods at the marketplace, so they have lots and lots of gold on them.</p><p><img src='run_exp/static/images/ship_center.png' height='400'></p><p><b>[Press the space bar to continue]</b></p></div>","32","","","","","","","","","","","","","","","","",""
"","html-keyboard-response","4","216705","0.0-4.0","11947.69999999553","<div class='center'><p>As the head captain, you do not have to rob any ships yourself.</p><p>You get to choose which pirate you want to rob the next ship. </p><p>If they are successful at robbing the ship, then you will get gold coins.</p><p> If they are not successful, then you will get no gold coins.</p><p> The more coins you collect, the more bonus money you will win. So, choose your pirate wisely.</p><p><img src='run_exp/static/images/goal.png' height='400'></p><p><b>[Press the space bar to continue]</b></p><div>","32","","","","","","","","","","","","","","","","",""
"","html-keyboard-response","5","226374","0.0-5.0","9667.5","<div class='center'><p>Even the most skilled pirate will not be able to rob EVERY ship.</p><p> Some ships will have very strong defenses against attacks.</p><p> For example, blue beard, here,  is very good at robbing ships.</p><p> You can press the <b>‘1’</b> button on the keyboard to choose him.</p><p> Try choosing him 10 times to see how often he is successful at robbing ships. </p><p><img src='run_exp/static/images/blue.png' height='500'></p></div>","49","","","","","","","","","","","","","","","","",""
"","html-keyboard-response","6","227878","0.0-6.0","null","<br><br><br><br><p><img src='run_exp/static/images/blue_win.png' height='500'></p>","null","","","","","","","","","","","","","","","","",""
"","html-keyboard-response","7","230071","0.0-7.0","2191.7999999970198","<br><br><br><br><p><img src='run_exp/static/images/blue.png' height='500'></p>","49","","","","","","","","","","","","","","","","",""
"","html-keyboard-response","8","231578","0.0-8.0","null","<br><br><br><br><p><img src='run_exp/static/images/blue_win.png' height='500'></p>","null","","","","","","","","","","","","","","","","",""
"","html-keyboard-response","9","232874","0.0-9.0","1295.1000000014901","<br><br><br><br><p><img src='run_exp/static/images/blue.png' height='500'></p>","49","","","","","","","","","","","","","","","","",""
"","html-keyboard-response","10","234380","0.0-10.0","null","<br><br><br><br><p><img src='run_exp/static/images/blue_win.png' height='500'></p>","null","","","","","","","","","","","","","","","","",""
"","html-keyboard-response","11","235575","0.0-11.0","1193.3000000044703","<br><br><br><br><p><img src='run_exp/static/images/blue.png' height='500'></p>","49","","","","","","","","","","","","","","","","",""
"","html-keyboard-response","12","237082","0.0-12.0","null","<br><br><br><br><p><img src='run_exp/static/images/blue_no_win.png' height='500'></p>","null","","","","","","","","","","","","","","","","",""
"","html-keyboard-response","13","239461","0.0-13.0","2378.10000000149","<br><br><br><br><p><img src='run_exp/static/images/blue.png' height='500'></p>","49","","","","","","","","","","","","","","","","",""
"","html-keyboard-response","14","240967","0.0-14.0","null","<br><br><br><br><p><img src='run_exp/static/images/blue_win.png' height='500'></p>","null","","","","","","","","","","","","","","","","",""
"","html-keyboard-response","15","242083","0.0-15.0","1114.7000000029802","<br><br><br><br><p><img src='run_exp/static/images/blue.png' height='500'></p>","49","","","","","","","","","","","","","","","","",""
"","html-keyboard-response","16","243590","0.0-16.0","null","<br><br><br><br><p><img src='run_exp/static/images/blue_win.png' height='500'></p>","null","","","","","","","","","","","","","","","","",""
"","html-keyboard-response","17","244769","0.0-17.0","1177.3000000044703","<br><br><br><br><p><img src='run_exp/static/images/blue.png' height='500'></p>","49","","","","","","","","","","","","","","","","",""
"","html-keyboard-response","18","246275","0.0-18.0","null","<br><br><br><br><p><img src='run_exp/static/images/blue_win.png' height='500'></p>","null","","","","","","","","","","","","","","","","",""
"","html-keyboard-response","19","247190","0.0-19.0","913.5","<br><br><br><br><p><img src='run_exp/static/images/blue.png' height='500'></p>","49","","","","","","","","","","","","","","","","",""
"","html-keyboard-response","20","248691","0.0-20.0","null","<br><br><br><br><p><img src='run_exp/static/images/blue_no_win.png' height='500'></p>","null","","","","","","","","","","","","","","","","",""
"","html-keyboard-response","21","249829","0.0-21.0","1136.2999999970198","<br><br><br><br><p><img src='run_exp/static/images/blue.png' height='500'></p>","49","","","","","","","","","","","","","","","","",""
"","html-keyboard-response","22","251335","0.0-22.0","null","<br><br><br><br><p><img src='run_exp/static/images/blue_win.png' height='500'></p>","null","","","","","","","","","","","","","","","","",""
"","html-keyboard-response","23","252787","0.0-23.0","1451.2999999970198","<br><br><br><br><p><img src='run_exp/static/images/blue.png' height='500'></p>","49","","","","","","","","","","","","","","","","",""
"","html-keyboard-response","24","254293","0.0-24.0","null","<br><br><br><br><p><img src='run_exp/static/images/blue_win.png' height='500'></p>","null","","","","","","","","","","","","","","","","",""
"","html-keyboard-response","25","261620","0.0-25.0","7325.5","<div class='center'><p> See, he was successful at robbing the ships most of the time but not every time. </p><p><b>[Press the space bar to continue]</b></p></div>","32","","","","","","","","","","","","","","","","",""
"","html-keyboard-response","26","275039","0.0-26.0","13417.39999999851","<div class='center'><p>In the game, you will get to choose which of three pirates you want to rob the next ship. <p>Press the <b>‘1’</b> button on your keyboard to pick the pirate with the red beard.</p><p> Press <b>‘2’</b> to pick the pirate with the white beard.</p><p> Press <b>‘3’</b> to pick the pirate with the black beard.</p><p>Try picking a pirate now!</p><p><img src='run_exp/static/images/all_pirates.png' height='500'></p></div>","51","","","","","","","","","","","","","","","","",""
"","html-keyboard-response","27","276874","0.0-27.0-0.0","1832.5999999940395","<div class='center'><p>This pirate was successful at robbing the ship!</p><p><img src='run_exp/static/images/black_win.png' height='500'></p><p><b>[Press the space bar to continue]</b></p></div>","32","","","","","","","","","","","","","","","","",""
"","html-keyboard-response","28","279202","0.0-27.0-1.0","2326","<div class='center'><p>Now try choosing another</p><p><img src='run_exp/static/images/all_pirates.png' height='500'></p></div>","51","","","","","","","","","","","","","","","","",""
"","html-keyboard-response","29","280300","0.0-28.0-0.0","1096.2000000029802","<div class='center'><p>This pirate was not successful at robbing the ship!</p><p><img src='run_exp/static/images/black_no_win.png' height='500'></p><p><b>[Press the space bar to continue]</b></p></div>","32","","","","","","","","","","","","","","","","",""
"","html-keyboard-response","30","297556","0.0-29.0-0.0","17254.80000000447","<div class='center'><p>You’ll stop at these 6 places on your journey.</p><p><img src='run_exp/static/images/all_contexts.png' height='500'></p><p><b>[Press the space bar to continue]</b></p></div>","32","","","","","","","","","","","","","","","","",""
"","html-keyboard-response","31","301778","0.0-29.0-1.0","4221.19999999553","<div class='center'><p>How good a pirate is at robbing ships will depend on the current place.</p><p> Some pirates will have been to the place before, and will have more experience robbing ships there.</p><p>So, they will be more successful at stealing gold and bringing it back to you.</p><p><b>[Press the space bar to continue]</b></p></div>","32","","","","","","","","","","","","","","","","",""
"","html-keyboard-response","32","354958","0.0-29.0-2.0","53177.30000000447","<div class='center'><p>How successful a pirate is at robbing ships can also change in a place.<p> Ships may hear about the pirates coming and will improve their defenses. This may make it more difficult to rob them.</p><p> Ships may also grow lazy and lower their defenses. This may make it easier to rob them.</p><br><p>Things are always changing on the high seas! So, try your best to pay attention!</p><p><img src='run_exp/static/images/contingency.png' height='500'></p><p><b>[Press the space bar to continue]</b></p></div>","32","","","","","","","","","","","","","","","","",""
"","html-keyboard-response","33","475902","0.0-29.0-3.0","120939.59999999404","<div class='center'><p>Once you choose a pirate to rob a ship, you’ll be shown the ship they are robbing.</p><p>The ship will have a picture of the item they sold at the marketplace.</p><p> Try your best to remember the ship and where you saw the ship.</p><p> You’ll have to remember this for later, and remembering this correctly will help you win more bonus money!</p><p>You can remember the ship by remembering the item they sold at the marketplace</p><p>A helpful strategy is to try to come up with a story of the chosen pirate and ship’s item interacting with the scene.</p><p> For example, a ship might have sold travel mugs and you could imagine red beard walking through the city with a travel mug. </p><p>Or imagine an apple falling from a tree into white beard's hands in the forest.</p><p><img src='run_exp/static/images/example_probe.png' height='500'></p><p><b>[Press the space bar to continue]</b></p></div>","32","","","","","","","","","","","","","","","","",""
"","html-keyboard-response","34","484230","0.0-29.0-4.0","8326.60000000149","<div class='center'><p>If you don’t make your choice fast enough, you’ll have to wait a few seconds before you can make another one. </p><p>You can’t win more gold. You just have to sit and wait.</p><p><img src='run_exp/static/images/hurry_up.png' height='500'></p><p><b>[Press the space bar to continue]</b></p></div>","32","","","","","","","","","","","","","","","","",""
"","html-keyboard-response","35","545944","0.0-29.0-5.0","61711.19999999553","<div class='center'><p>Again, you have two important things to do: </p><b><p> 1. Pick the pirate who you think will be most successful at robbing the next ship.</p></b><b><p> 2. Remember where a pirate robbed a ship.</p> </b><p>Both are important in determining how much bonus money you’ll win.</p><br><p>Let’s try a practice game. The game will start by showing you the pirates. First pick a pirate using the <b> 1, 2, 3 </b> buttons on your keyboard. When you are shown a ship, try to remember the place you’re in by making up a story.</p><p> You only have 3 seconds to pick a pirate, so please make a choice quickly! If you are too slow, you’ll have to wait a bit during the time out.</p><p> Don’t feel rushed, but please do try to make a choice every time.</p><p>How good a pirate is at robbing a ship will change depending on the place they are in and how good the defenses are of the ship.</p> <p>This is just a practice game, so you’re not playing for money. </p><p>You’ll receive a bag which may or may not contain gold coins.</p><p> In the real game, though, you’ll be able to see whether or not you received the gold coins.</p><p> Good luck, remember press <b>'1'</b> to choose red beard, <b>'2'</b> to choose white beard, and <b>'3'</b> to choose black beard</p><p><b>[Press the space bar to begin the practice game]</b></p></div>","32","","","","","","","","","","","","","","","","",""
"","do_trial_prac","36","552217","0.0-29.0-6.0","1762.6000000014901","","","","49","","","","","","","","","","","","","","",""
"","do_trial_prac","37","558289","0.0-29.0-7.0","1560.3999999985099","","","","50","","","","","","","","","","","","","","",""
"","do_trial_prac","38","564482","0.0-29.0-8.0","1682.2999999970198","","","","51","","","","","","","","","","","","","","",""
"","do_trial_prac","39","570091","0.0-29.0-9.0","1099.5999999940395","","","","49","","","","","","","","","","","","","","",""
"","do_trial_prac","40","575577","0.0-29.0-10.0","977.8000000044703","","","","49","","","","","","","","","","","","","","",""
"","html-keyboard-response","41","580567","0.0-29.0-11.0","4988.69999999553","<div class='center'><p>Great job on the practice game!</p><p> Now, you will be asked you some true or false questions to make sure you really understand the rules of the game.</p><p> Press <b>'1'</b> on the keyboard for true and press <b>'2'</b> for false.</p><p><b>[Press the space bar to begin the quiz]</b></p></div>","32","","","","","","","","","","","","","","","","",""
"","html-keyboard-response","42","584216","0.0-29.0-12.0","3648.5","<div class='center'><p>You win bonus money by making choices as fast as possible.</p><p>Press 1 for true and press  2 for false.</p></div>","50","","","","","","","","","","","","","","","","",""
"","html-keyboard-response","43","585691","0.0-30.0-0.0","1473.7000000029802","<br><br><br><br><p>That's correct!</p> <p><b>[press the space bar to continue with the quiz]</b></p>","32","","","","","","","","","","","","","","","","",""
"","html-keyboard-response","44","588226","0.0-30.0-1.0","2534.10000000149","<div class='center'><p>You press the <b>‘3’</b> button on the keyboard to choose the red bearded pirate? </p><p>Press 1 for true and press  2 for false.</p></div>","49","","","","","","","","","","","","","","","","",""
"","html-keyboard-response","45","590289","0.0-31.0-0.0","2062","<br><br><br><br><p>That’s incorrect! You press the <b>‘1’</b> button to choose the red bearded pirate!</p><p><b>[press the space bar to continue with the quiz]</b></p>","32","","","","","","","","","","","","","","","","",""
"","html-keyboard-response","46","593975","0.0-31.0-1.0","3684.89999999851","<div class='center'><p>A pirate will always be equally successful at robbing ships in each place</p><p>Press 1 for true and press  2 for false.</p></div>","50","","","","","","","","","","","","","","","","",""
"","html-keyboard-response","47","595038","0.0-32.0-0.0","1062.2999999970198","<br><br><br><br><p>That's correct!</p> <p><b>[press the space bar to continue with the quiz]</b></p>","32","","","","","","","","","","","","","","","","",""
"","html-keyboard-response","48","597802","0.0-32.0-1.0","2762.39999999851","<div class='center'><p>You should remember the place where a pirate robbed a ship.</p><p>Press 1 for true and press  2 for false.</p></div>","49","","","","","","","","","","","","","","","","",""
"","html-keyboard-response","49","598644","0.0-33.0-0.0","841.2000000029802","<br><br><br><br><p>That's correct!</p> <p><b>[press the space bar to continue with the quiz]</b></p>","32","","","","","","","","","","","","","","","","",""
"","html-keyboard-response","50","603144","0.0-34.0-0.0","4499.30000000447","<br><br><br><br><p>Oops, you missed some questions. Now that you’ve heard the correct answers. Try the quiz again! If you fail the quiz too many times, you won’t be able to do the experiment. </p> <p><br>[press the space bar to repeat the quiz]</br></p>","32","","","","","","","","","","","","","","","","",""
"","html-keyboard-response","51","605175","0.0-34.0-1.0","2030.1000000014901","<div class='center'><p>You win bonus money by making choices as fast as possible.</p><p>Press 1 for true and press  2 for false.</p></div>","50","","","","","","","","","","","","","","","","",""
"","html-keyboard-response","52","606560","0.0-35.0-0.0","1384","<br><br><br><br><p>That's correct!</p> <p><b>[press the space bar to continue with the quiz]</b></p>","32","","","","","","","","","","","","","","","","",""
"","html-keyboard-response","53","610955","0.0-35.0-1.0","4394.10000000149","<div class='center'><p>You press the <b>‘3’</b> button on the keyboard to choose the red bearded pirate? </p><p>Press 1 for true and press  2 for false.</p></div>","50","","","","","","","","","","","","","","","","",""
"","html-keyboard-response","54","611848","0.0-36.0-0.0","891.7000000029802","<br><br><br><br><p>That's correct!</p> <p><b>[press the space bar to continue with the quiz]</b></p>","32","","","","","","","","","","","","","","","","",""
"","html-keyboard-response","55","613614","0.0-36.0-1.0","1765.2000000029802","<div class='center'><p>A pirate will always be equally successful at robbing ships in each place</p><p>Press 1 for true and press  2 for false.</p></div>","50","","","","","","","","","","","","","","","","",""
"","html-keyboard-response","56","614301","0.0-37.0-0.0","686.1999999955297","<br><br><br><br><p>That's correct!</p> <p><b>[press the space bar to continue with the quiz]</b></p>","32","","","","","","","","","","","","","","","","",""
"","html-keyboard-response","57","616230","0.0-37.0-1.0","1928.2999999970198","<div class='center'><p>You should remember the place where a pirate robbed a ship.</p><p>Press 1 for true and press  2 for false.</p></div>","49","","","","","","","","","","","","","","","","",""
"","html-keyboard-response","58","616911","0.0-38.0-0.0","669.2999999970198","<br><br><br><br><p>That's correct!</p> <p><b>[press the space bar to continue with the quiz]</b></p>","32","","","","","","","","","","","","","","","","",""
"","html-keyboard-response","59","627970","0.0-39.0-0.0","11057.19999999553","<br><br><br><br><p>Good job! You’re now ready to move on to the real game!</p> <p><br>[press the space bar to begin!]</br></p>","32","","","","","","","","","","","","","","","","",""
"","do_welcome","60","629481","0.0-40.0-0.0","null","","","","null","","","","","","","","","","","","","","",""
"","do_trial","61","636801","0.0-41.0-0.0","1765.1000000014901","","","","49","1,0,0","0","forest","0","probe-104","1","0.4","0.1","1","","","","","",""
"","do_trial","62","643346","0.0-42.0-0.0","992.5","","","","49","1,0,0","0","forest","1","probe-40","1","0.409727116740491","0.08712381121022122","1","","","","","",""
"","do_trial","63","649573","0.0-43.0-0.0","669.6999999955297","","","","50","1,1,0","0","forest","2","probe-190","1","0.3797406361572353","0.13140273047683604","1","","","","","",""
"","do_trial","64","655832","0.0-44.0-0.0","707.7000000029802","","","","50","1,0,1","0","forest","3","probe-146","1","0.28996872285260056","0.18868903061819695","0","","","","","",""
"","do_trial","65","661995","0.0-45.0-0.0","608.1999999955297","","","","50","0,0,1","0","forest","4","probe-142","0.920503673774808","0.24491748578587874","0.2675404406215149","0","","","","","",""
"","do_trial","66","667963","0.0-46.0-0.0","415.70000000298023","","","","49","0,1,0","0","forest","5","probe-224","0.8117789299508933","0.28272738134595665","0.14601070747767794","0","","","","","",""
"","do_trial","67","674137","0.0-47.0-0.0","618.8000000044703","","","","49","1,1,0","0","forest","6","probe-88","0.7952858088681036","0.47191296019594997","0.062103565761555735","1","","","","","",""
"","do_trial","68","680197","0.0-48.0-0.0","507.80000000447035","","","","49","0,1,0","0","forest","7","probe-31","0.6854871481552707","0.4407919401701544","0.09046621292181861","0","","","","","",""
"","do_trial","69","686831","0.0-49.0-0.0","1082.9000000059605","","","","51","1,0,0","0","forest","8","probe-52","0.730876336481994","0.4530757987437694","0.1033899045901612","0","","","","","",""
"","do_trial","70","693131","0.0-50.0-0.0","745.8999999985099","","","","50","1,0,1","0","forest","9","probe-99","0.5658181418771789","0.4587624140395547","0.17988995707849792","0","","","","","",""
"","do_trial","71","699272","0.0-51.0-0.0","588.7999999970198","","","","50","1,0,1","0","forest","10","probe-43","0.5598223215428189","0.4142318730046393","0.545314227940998","0","","","","","",""
"","do_trial","72","705473","0.0-52.0-0.0","650.7000000029802","","","","49","0,0,1","0","forest","11","probe-30","0.5392997707736912","0.1884939688685705","0.5702628159953821","0","","","","","",""
"","do_trial","73","713100","0.0-53.0-0.0","2071.7999999970198","","","","51","1,1,1","0","forest","12","probe-15","0.49146336354987896","0.18167714765451629","0.6645139336399609","1","","","","","",""
"","do_trial","74","720295","0.0-54.0-0.0","1639.2000000029802","","","","51","0,0,0","0","forest","13","probe-159","0.5076482283946796","0.0653751802782674","0.764498085114167","0","","","","","",""
"","do_trial","75","726687","0.0-55.0-0.0","839.3000000044703","","","","50","1,0,1","0","forest","14","probe-60","0.34476197173525924","0.17183450014750962","0.6979503901209368","0","","","","","",""
"","do_trial","76","733273","0.0-56.0-0.0","1030.3000000044703","","","","49","1,0,0","0","forest","15","probe-41","0.4138775019317262","0.1359674739843806","0.7953595977323769","1","","","","","",""
"","do_trial","77","739632","0.0-57.0-0.0","800.5","","","","49","1,0,1","0","forest","16","probe-29","0.5506343735807755","0.12068592578980411","0.6435242619235007","1","","","","","",""
"","do_trial","78","745834","0.0-58.0-0.0","651.7000000029802","","","","49","1,0,1","0","forest","17","probe-156","0.4912600432085303","0.05607137587677655","0.7638767510899489","1","","","","","",""
"","do_trial","79","752074","0.0-59.0-0.0","683.2000000029802","","","","49","1,0,1","0","forest","18","probe-198","0.4356052365981812","0.12919431211913773","0.7379420826408806","1","","","","","",""
"","do_trial","80","758831","0.0-60.0-0.0","1202","","","","49","0,0,1","0","forest","19","probe-56","0.41879008960466424","0.10353724031057598","0.7160965729759492","0","","","","","",""
"","do_trial","81","765439","0.0-61.0-0.0","1054.7000000029802","","","","51","1,0,1","0","forest","20","probe-180","0.2862928511943627","0.208783945457074","0.7678696140630334","1","","","","","",""
"","do_trial","82","771824","0.0-62.0-0.0","831.6999999955297","","","","51","0,0,1","0","forest","21","probe-157","0.3378498981021942","0.10905239295428867","0.7318536493401091","1","","","","","",""
"","do_trial","83","778401","0.0-63.0-0.0","1026.7000000029802","","","","51","0,0,0","0","forest","22","probe-148","0.4518902807896641","0.22449820789425418","0.6270638668437593","0","","","","","",""
"","do_trial","84","784402","0.0-64.0-0.0","448.29999999701977","","","","50","1,0,1","0","forest","23","probe-225","0.549878121460532","0.20706311034931302","0.7520183617213627","0","","","","","",""
"","do_trial","85","790770","0.0-65.0-0.0","813.5","","","","50","0,0,0","0","forest","24","probe-81","0.5347010296844354","0.13841080886872953","0.8452205675508647","0","","","","","",""
"","do_trial","86","796536","0.0-66.0-0.0","214","","","","49","1,0,1","0","forest","25","probe-79","0.4522855865596593","0.22946795038619264","0.8322354516623907","1","","","","","",""
"","do_trial","87","802890","0.0-67.0-0.0","797.7000000029802","","","","49","1,0,1","0","forest","26","probe-150","0.42064661855479907","0.10369013755228813","0.7706114539545799","1","","","","","",""
"","do_trial","88","809680","0.0-68.0-0.0","1233.1999999955297","","","","49","0,0,1","0","forest","27","probe-128","0.3768541639002136","0.10687159554766838","0.5150638942930761","0","","","","","",""
"","do_trial","89","815498","0.0-69.0-0.0","262.5","","","","51","0,0,1","0","forest","28","probe-174","0.48975791144894326","0.09110330970496762","0.669672180289182","1","","","","","",""
"","do_trial","90","822048","0.0-70.0-0.0","997.7000000029802","","","","51","1,0,1","0","forest","29","probe-168","0.4365639728719274","0.1471117120831338","0.7508961641032161","1","","","","","",""
"","do_trial","91","828477","0.0-71.0-0.0","875.3000000044703","","","","51","0,0,0","0","forest","30","probe-127","0.2824508494949533","0.12326759529113933","0.6946975387715029","0","","","","","",""
"","do_trial","92","834902","0.0-72.0-0.0","879.7000000029802","","","","50","0,0,1","0","forest","31","probe-49","0.3912950171812414","0.058716711493281885","0.7790657172901451","0","","","","","",""
"","do_trial","93","841034","0.0-73.0-0.0","582.3999999985099","","","","49","1,0,0","0","forest","32","probe-231","0.3490354147185732","0.0937508390922455","0.797045953015831","1","","","","","",""
"","do_trial","94","846985","0.0-74.0-0.0","401.6000000014901","","","","49","1,0,1","0","forest","33","probe-229","0.27308752766746974","0.0803827006179628","0.9025247106936152","1","","","","","",""
"","do_trial","95","852857","0.0-75.0-0.0","319.29999999701977","","","","49","0,0,1","0","forest","34","probe-28","0.3510156284016767","0.05173971637128883","0.8254313717535083","0","","","","","",""
"","do_trial","96","858665","0.0-76.0-0.0","254.70000000298023","","","","49","1,0,0","0","forest","35","probe-11","0.47975884103616195","0.1623966400297066","0.7396227593894961","1","","","","","",""
"","do_trial","97","864631","0.0-77.0-0.0","411","","","","49","0,0,0","0","forest","36","probe-25","0.27038693348829207","0.2036564186738218","0.6538629989185243","0","","","","","",""
"","do_trial","98","870557","0.0-78.0-0.0","376.20000000298023","","","","49","0,0,0","0","forest","37","probe-166","0.40422717205345543","0.25361772158339946","0.8405805245966961","0","","","","","",""
"","do_trial","99","876349","0.0-79.0-0.0","234.09999999403954","","","","49","0,0,0","0","forest","38","probe-208","0.3550988254388917","0.12210798167305614","0.7226843482472439","0","","","","","",""
"","do_trial","100","882432","0.0-80.0-0.0","528.5","","","","51","0,0,1","0","forest","39","probe-18","0.3468791933207313","0.09116109944594697","0.7109491617139981","1","","","","","",""
"","do_bye","101","883944","0.0-81.0-0.0","null","","","","null","","","","","","","","","","","","","","",""
"","do_travel","102","889953","0.0-82.0-0.0","null","","","","null","","","","","","","","","","","","","","",""
"","do_welcome","103","891465","0.0-82.0-1.0","null","","","","null","","","","","","","","","","","","","","",""
"","do_trial","104","898024","0.0-83.0-0.0","1008.3999999985099","","","","51","1,0,1","1","countryside","40","probe-235","0.35877010905318896","0.09736017569776068","1","1","","","","","",""
"","do_trial","105","904466","0.0-84.0-0.0","890.6000000014901","","","","51","1,0,1","1","countryside","41","probe-205","0.343891199779326","0.14197555994560224","1","1","","","","","",""
"","do_trial","106","911041","0.0-85.0-0.0","1019.2999999970198","","","","51","0,0,1","1","countryside","42","probe-100","0.32397664692564154","0.057757860407318236","1","1","","","","","",""
"","do_trial","107","916910","0.0-86.0-0.0","315.6000000014901","","","","51","0,1,1","1","countryside","43","probe-80","0.29028698071025427","0.05063001195780933","1","1","","","","","",""
"","do_trial","108","922788","0.0-87.0-0.0","322.69999999552965","","","","51","0,0,1","1","countryside","44","probe-193","0.27130499901507416","0.05919425712859486","0.7865490376655717","1","","","","","",""
"","do_trial","109","928998","0.0-88.0-0.0","658.1000000014901","","","","51","0,0,0","1","countryside","45","probe-47","0.30752772565062275","0.09326573970676019","0.772539068772812","0","","","","","",""
"","do_trial","110","934797","0.0-89.0-0.0","247.90000000596046","","","","51","1,0,1","1","countryside","46","probe-108","0.37367547614022173","0.06466617696419183","0.8306379431914164","1","","","","","",""
"","do_trial","111","940682","0.0-90.0-0.0","329.29999999701977","","","","51","1,0,1","1","countryside","47","probe-111","0.4994919112893208","0.09450622950504382","0.8978325263958048","1","","","","","",""
"","do_trial","112","947505","0.0-91.0-0.0","1267.9000000059605","","","","51","0,0,1","1","countryside","48","probe-93","0.4482459309254927","0.09918493632238048","0.8735993784567571","1","","","","","",""
"","do_trial","113","953722","0.0-92.0-0.0","663","","","","51","1,0,1","1","countryside","49","probe-145","0.5456748431241714","0.08616190778426251","0.8925998280469615","1","","","","","",""
"","do_trial","114","959738","0.0-93.0-0.0","460.19999999552965","","","","51","1,1,0","1","countryside","50","probe-221","0.7069390739489373","0.527153128611572","0.5302579824759818","0","","","","","",""
"","do_trial","115","965641","0.0-94.0-0.0","348.6000000014901","","","","51","0,1,1","1","countryside","51","probe-69","0.7256686316665478","0.4217765356091477","0.2956191483829694","1","","","","","",""
"","do_trial","116","971697","0.0-95.0-0.0","500.5","","","","51","1,1,0","1","countryside","52","probe-117","0.7232580695870726","0.36288978897285573","0.2947944263562176","0","","","","","",""
"","do_trial","117","977570","0.0-96.0-0.0","316.20000000298023","","","","51","0,0,0","1","countryside","53","probe-02","0.6872288002884731","0.31939677709264547","0.14038164492381772","0","","","","","",""
"","do_trial","118","983858","0.0-97.0-0.0","733.2999999970198","","","","51","1,0,0","1","countryside","54","probe-87","0.7460463353595128","0.39845769405381837","0.22218319733425418","0","","","","","",""
"","do_trial","119","989677","0.0-98.0-0.0","248","","","","51","1,1,0","1","countryside","55","probe-169","0.8124895040562916","0.4299256337884724","0.07897630594440357","0","","","","","",""
"","do_trial","120","995450","0.0-99.0-0.0","220.19999999552965","","","","49","1,1,0","1","countryside","56","probe-176","0.6885259656360094","0.3839479771827671","0.17373313498485757","1","","","","","",""
"","do_trial","121","1001382","0.0-100.0-0.0","379.70000000298023","","","","49","0,0,0","1","countryside","57","probe-147","0.6712725014632133","0.3596555389704597","0.17719741160572852","0","","","","","",""
"","do_trial","122","1007223","0.0-101.0-0.0","284.3999999985099","","","","50","1,1,1","1","countryside","58","probe-230","0.6880165761009654","0.44284708718501764","0.18857691266897633","1","","","","","",""
"","do_trial","123","1013384","0.0-102.0-0.0","609.2999999970198","","","","50","1,1,0","1","countryside","59","probe-32","0.8847426489884452","0.3783395172606057","0.2014509949753257","1","","","","","",""
"","do_trial","124","1019549","0.0-103.0-0.0","611.5","","","","50","1,1,0","1","countryside","60","probe-218","0.9176400851523718","0.4227018629671091","0.2769976192758257","1","","","","","",""
"","do_trial","125","1025460","0.0-104.0-0.0","357.30000000447035","","","","50","1,0,0","1","countryside","61","probe-191","0.8747497530295667","0.3571979524055621","0.0838971310280976","0","","","","","",""
"","do_trial","126","1031507","0.0-105.0-0.0","492.40000000596046","","","","50","1,1,1","1","countryside","62","probe-210","0.6694396329317198","0.32714293695832697","0.1532254598223273","1","","","","","",""
"","do_trial","127","1037743","0.0-106.0-0.0","679.7999999970198","","","","50","0,1,0","1","countryside","63","probe-119","0.7312660495297598","0.3562835296073217","0.3210092452490353","1","","","","","",""
"","do_trial","128","1043795","0.0-107.0-0.0","496","","","","50","0,0,0","1","countryside","64","probe-234","0.7648942881181595","0.423419980788632","0.2052914861533671","0","","","","","",""
"","do_trial","129","1049663","0.0-108.0-0.0","306","","","","51","0,1,0","1","countryside","65","probe-194","0.7558913790630274","0.4626533868712777","0.3638587376887086","0","","","","","",""
"","do_trial","130","1058089","0.0-109.0-0.0","2873.60000000149","","","","51","1,1,0","1","countryside","66","probe-01","0.7032828467538998","0.4147337897134057","0.2570338337619099","0","","","","","",""
"","do_trial","131","1063922","0.0-110.0-0.0","277.5","","","","50","0,0,0","1","countryside","67","probe-209","0.8067044285729607","0.4802599602868827","0.11728340953845674","0","","","","","",""
"","do_trial","132","1069785","0.0-111.0-0.0","310","","","","49","1,1,0","1","countryside","68","probe-86","0.8925084547243707","0.3485601674858013","0.06854345303157673","1","","","","","",""
"","do_trial","133","1075732","0.0-112.0-0.0","390.6000000014901","","","","49","1,0,0","1","countryside","69","probe-50","0.885271217983442","0.40372135572372686","0.07046010922825434","1","","","","","",""
"","do_trial","134","1081708","0.0-113.0-0.0","421.5","","","","49","0,1,0","1","countryside","70","probe-53","0.8658592864051698","0.5616039507073912","0.18666659109138892","0","","","","","",""
"","do_trial","135","1087636","0.0-114.0-0.0","369.3999999985099","","","","49","1,1,0","1","countryside","71","probe-54","0.59530690821219","0.3920694838940457","0.15564566015887293","1","","","","","",""
"","do_trial","136","1093751","0.0-115.0-0.0","562.3999999985099","","","","49","0,1,0","1","countryside","72","probe-06","0.7351329026440636","0.45057838506496284","0.06893949039628913","0","","","","","",""
"","do_trial","137","1099759","0.0-116.0-0.0","452.1000000014901","","","","49","1,0,0","1","countryside","73","probe-92","0.8071093078232786","0.37433013587555763","0.15937942876460431","1","","","","","",""
"","do_trial","138","1105795","0.0-117.0-0.0","482.5","","","","49","1,0,0","1","countryside","74","probe-203","0.7492560245356394","0.38852485486130206","0.27040060821564676","1","","","","","",""
"","do_trial","139","1111655","0.0-118.0-0.0","310.6000000014901","","","","49","0,1,1","1","countryside","75","probe-116","0.6873091293524054","0.4046966953511089","0.4190860041661864","0","","","","","",""
"","do_trial","140","1117506","0.0-119.0-0.0","294.6000000014901","","","","49","1,0,1","1","countryside","76","probe-202","0.665851999444388","0.36668694498577864","0.24719016835487512","1","","","","","",""
"","do_trial","141","1123306","0.0-120.0-0.0","248.19999999552965","","","","49","1,0,1","1","countryside","77","probe-08","0.7500729161552951","0.4436258295450135","0.21853506620795762","1","","","","","",""
"","do_trial","142","1129146","0.0-121.0-0.0","288.1000000014901","","","","49","1,1,0","1","countryside","78","probe-233","0.676872735017644","0.5195695870279174","0.21439068015324625","1","","","","","",""
"","do_trial","143","1135016","0.0-122.0-0.0","313.8999999985099","","","","49","0,0,0","1","countryside","79","probe-212","0.6784114028865299","0.5158183883860464","0.0743346524739948","0","","","","","",""
"","do_bye","144","1136528","0.0-123.0-0.0","null","","","","null","","","","","","","","","","","","","","",""
"","do_travel","145","1142536","0.0-124.0-0.0","null","","","","null","","","","","","","","","","","","","","",""
"","do_welcome","146","1144047","0.0-124.0-1.0","null","","","","null","","","","","","","","","","","","","","",""
"","do_trial","147","1150720","0.0-125.0-0.0","1122.3999999985099","","","","50","1,0,0","2","mountain","80","probe-85","1","0.44774029813547417","0.08948757066776446","0","","","","","",""
"","do_trial","148","1156782","0.0-126.0-0.0","504.5","","","","51","1,1,0","2","mountain","81","probe-138","1","0.5057891151228412","0.11629697964306454","0","","","","","",""
"","do_trial","149","1162908","0.0-127.0-0.0","571.2999999970198","","","","49","1,0,0","2","mountain","82","probe-228","1","0.6378814734605551","0.09192991116859905","1","","","","","",""
"","do_trial","150","1168878","0.0-128.0-0.0","412.20000000298023","","","","49","1,0,0","2","mountain","83","probe-185","1","0.5073338138033703","0.12329562264374097","1","","","","","",""
"","do_trial","151","1174871","0.0-129.0-0.0","436.5","","","","49","1,0,0","2","mountain","84","probe-105","0.9354315481474348","0.414234358495086","0.09796479942646387","1","","","","","",""
"","do_trial","152","1180743","0.0-130.0-0.0","316.8999999985099","","","","49","0,0,0","2","mountain","85","probe-44","0.8932927021683287","0.33934116122274677","0.19461847680899907","0","","","","","",""
"","do_trial","153","1186520","0.0-131.0-0.0","224.5","","","","50","1,0,1","2","mountain","86","probe-48","0.8890803561185209","0.41068379133675864","0.3793031149232524","0","","","","","",""
"","do_trial","154","1192398","0.0-132.0-0.0","319.69999999552965","","","","50","1,1,1","2","mountain","87","probe-158","0.93235790790376","0.5741581941266461","0.21095487344591768","1","","","","","",""
"","do_trial","155","1198246","0.0-133.0-0.0","291.30000000447035","","","","50","1,1,0","2","mountain","88","probe-136","0.7458439941816352","0.624596302896836","0.29072414304920247","1","","","","","",""
"","do_trial","156","1204336","0.0-134.0-0.0","534.6000000014901","","","","50","1,1,0","2","mountain","89","probe-05","0.7646686214289788","0.5480312929757218","0.4315662136310547","1","","","","","",""
"","do_trial","157","1210251","0.0-135.0-0.0","364.8999999985099","","","","50","1,1,1","2","mountain","90","probe-61","0.6261385409147866","0.37622628772167327","0.6064713771059208","1","","","","","",""
"","do_trial","158","1216117","0.0-136.0-0.0","311.8999999985099","","","","50","1,0,1","2","mountain","91","probe-133","0.45908454036553","0.30962966768041666","0.5285479723638298","0","","","","","",""
"","do_trial","159","1221902","0.0-137.0-0.0","233.69999999552965","","","","51","0,1,0","2","mountain","92","probe-102","0.4256114530503928","0.2664552595069118","0.6182186869725522","0","","","","","",""
"","do_trial","160","1227593","0.0-138.0-0.0","138.59999999403954","","","","51","1,0,0","2","mountain","93","probe-66","0.41031333113029356","0.27322059109677577","0.5620121470896551","0","","","","","",""
"","do_trial","161","1233555","0.0-139.0-0.0","404.6000000014901","","","","49","0,0,1","2","mountain","94","probe-106","0.28621713478651667","0.08072870394139195","0.6253819895753074","0","","","","","",""
"","do_trial","162","1239388","0.0-140.0-0.0","277.70000000298023","","","","50","0,0,0","2","mountain","95","probe-77","0.24725881893101573","0.11078288267706046","0.9389962191666997","0","","","","","",""
"","do_trial","163","1245280","0.0-141.0-0.0","336.1000000014901","","","","49","0,0,1","2","mountain","96","probe-137","0.23718122198801453","0.1323121603172819","0.9025757114521236","0","","","","","",""
"","do_trial","164","1251086","0.0-142.0-0.0","255.39999999850988","","","","51","1,0,1","2","mountain","97","probe-201","0.42944604618829524","0.10830518536800257","0.916091639150672","1","","","","","",""
"","do_trial","165","1257224","0.0-143.0-0.0","585.7000000029802","","","","51","0,0,1","2","mountain","98","probe-71","0.6229393647825722","0.12804459094875245","0.7980426864461331","1","","","","","",""
"","do_trial","166","1263125","0.0-144.0-0.0","343.6000000014901","","","","51","0,0,1","2","mountain","99","probe-35","0.5254774412560902","0.25514721670792534","0.7666708986298469","1","","","","","",""
"","do_trial","167","1269877","0.0-145.0-0.0","1200.7999999970198","","","","51","1,0,1","2","mountain","100","probe-94","0.5465065440556216","0.10441883150299433","0.7136742848119094","1","","","","","",""
"","do_trial","168","1275851","0.0-146.0-0.0","417.8999999985099","","","","51","1,1,1","2","mountain","101","probe-167","0.40353407145247927","0.28231127492096564","0.7090744390050336","1","","","","","",""
"","do_trial","169","1282306","0.0-147.0-0.0","905.1999999955297","","","","51","0,0,1","2","mountain","102","probe-130","0.5012271485848527","0.3472871210338444","0.6773217724013512","1","","","","","",""
"","do_trial","170","1288485","0.0-148.0-0.0","627.7999999970198","","","","51","1,0,0","2","mountain","103","probe-76","0.31468018435606565","0.39329725352822326","0.6234453172200543","0","","","","","",""
"","do_trial","171","1294642","0.0-149.0-0.0","602.8999999985099","","","","51","0,0,0","2","mountain","104","probe-20","0.1837264784406577","0.14303795524449447","0.612704902014768","0","","","","","",""
"","do_trial","172","1300563","0.0-150.0-0.0","364.6000000014901","","","","50","0,1,0","2","mountain","105","probe-95","0.36061255875409975","0.16544193503992474","0.6581268313712383","1","","","","","",""
"","do_trial","173","1306469","0.0-151.0-0.0","351.19999999552965","","","","50","0,1,1","2","mountain","106","probe-125","0.3249704847337623","0.24602179616537015","0.5685365272628405","1","","","","","",""
"","do_trial","174","1312278","0.0-152.0-0.0","255.29999999701977","","","","50","0,1,1","2","mountain","107","probe-103","0.38998987470020235","0.19596746730724054","0.7042155952344388","1","","","","","",""
"","do_trial","175","1319061","0.0-153.0-0.0","1232.3999999985099","","","","50","1,0,1","2","mountain","108","probe-36","0.43512736208669806","0.10990520225173757","0.7244618477052726","0","","","","","",""
"","do_trial","176","1325042","0.0-154.0-0.0","424.29999999701977","","","","50","0,0,0","2","mountain","109","probe-149","0.4004621768713817","0.22873279359528462","0.7155018274026947","0","","","","","",""
"","do_trial","177","1330842","0.0-155.0-0.0","246.10000000149012","","","","49","0,0,1","2","mountain","110","probe-162","0.24528040538349166","0.17126201980102596","0.660923959864891","0","","","","","",""
"","do_trial","178","1336769","0.0-156.0-0.0","374.70000000298023","","","","51","0,0,1","2","mountain","111","probe-91","0.3921540674037261","0.06356936688928594","0.7961548155158659","1","","","","","",""
"","do_trial","179","1342714","0.0-157.0-0.0","391.79999999701977","","","","51","1,0,1","2","mountain","112","probe-184","0.42293284032800466","0.08567467129039096","0.7940636517216154","1","","","","","",""
"","do_trial","180","1348770","0.0-158.0-0.0","503.80000000447035","","","","51","1,0,1","2","mountain","113","probe-16","0.3959272134217439","0.08909169202466026","0.7856839725778286","1","","","","","",""
"","do_trial","181","1354644","0.0-159.0-0.0","320.3999999985099","","","","51","1,0,1","2","mountain","114","probe-192","0.40364382996463627","0.11852463147980782","0.6585582679278088","1","","","","","",""
"","do_trial","182","1360424","0.0-160.0-0.0","223.70000000298023","","","","51","0,0,1","2","mountain","115","probe-59","0.3662168433498401","0.11547518448219844","0.7796542682110362","1","","","","","",""
"","do_trial","183","1366321","0.0-161.0-0.0","340.6000000014901","","","","51","0,0,0","2","mountain","116","probe-226","0.34407078799348073","0.11624773658643342","0.808215622310926","0","","","","","",""
"","do_trial","184","1372283","0.0-162.0-0.0","406.1000000014901","","","","51","0,0,1","2","mountain","117","probe-10","0.3692328726169407","0.2545346769173452","0.74889253566898","1","","","","","",""
"","do_trial","185","1378348","0.0-163.0-0.0","508.79999999701977","","","","51","0,0,1","2","mountain","118","probe-143","0.36056172026071553","0.1600213514881983","0.7815850557779968","1","","","","","",""
"","do_trial","186","1384469","0.0-164.0-0.0","564.1000000014901","","","","51","0,0,1","2","mountain","119","probe-107","0.4297461337573964","0.11925146025177875","0.8910758984306704","1","","","","","",""
"","do_bye","187","1385980","0.0-165.0-0.0","null","","","","null","","","","","","","","","","","","","","",""
"","do_travel","188","1391988","0.0-166.0-0.0","null","","","","null","","","","","","","","","","","","","","",""
"","do_welcome","189","1393500","0.0-166.0-1.0","null","","","","null","","","","","","","","","","","","","","",""
"","do_trial","190","1401173","0.0-167.0-0.0","2117.2999999970198","","","","51","0,0,1","3","city","120","probe-238","0.23451359542831643","0.13322385929515687","1","1","","","","","",""
"","do_trial","191","1407476","0.0-168.0-0.0","749","","","","51","0,0,1","3","city","121","probe-24","0.2005341866247377","0.17773466534281407","1","1","","","","","",""
"","do_trial","192","1413365","0.0-169.0-0.0","334.70000000298023","","","","51","0,0,1","3","city","122","probe-110","0.29435334680010966","0.1905454836234895","1","1","","","","","",""
"","do_trial","193","1419247","0.0-170.0-0.0","329.79999999701977","","","","51","1,0,1","3","city","123","probe-141","0.3613320197006707","0.05528523695651297","1","1","","","","","",""
"","do_trial","194","1425277","0.0-171.0-0.0","474.20000000298023","","","","51","1,0,1","3","city","124","probe-118","0.4592710898028236","0.053879792126148525","0.8354368594572403","1","","","","","",""
"","do_trial","195","1431243","0.0-172.0-0.0","409.79999999701977","","","","51","0,0,1","3","city","125","probe-187","0.5536786317944408","0.07223120977555011","0.8191105736312644","1","","","","","",""
"","do_trial","196","1437240","0.0-173.0-0.0","441.20000000298023","","","","51","1,0,1","3","city","126","probe-211","0.6887261630635203","0.0703406991179674","0.7307631261803652","1","","","","","",""
"","do_trial","197","1443100","0.0-174.0-0.0","304.3999999985099","","","","51","0,0,1","3","city","127","probe-33","0.37790900511329867","0.10787216836046934","0.7242699302470291","1","","","","","",""
"","do_trial","198","1449017","0.0-175.0-0.0","365.5","","","","51","0,0,1","3","city","128","probe-173","0.368103352514185","0.06394477675697864","0.6877395383266776","1","","","","","",""
"","do_trial","199","1454983","0.0-176.0-0.0","409.6000000014901","","","","51","1,0,0","3","city","129","probe-182","0.37704227253909917","0.10378958081689563","0.6406432293361195","0","","","","","",""
"","do_trial","200","1460863","0.0-177.0-0.0","325.19999999552965","","","","51","1,0,0","3","city","130","probe-22","0.3023774847561824","0.42542116860108453","0.49555738214420936","0","","","","","",""
"","do_trial","201","1466720","0.0-178.0-0.0","305.90000000596046","","","","49","0,0,0","3","city","131","probe-135","0.2819905079462506","0.4213289368127373","0.4695745818467243","0","","","","","",""
"","do_trial","202","1472860","0.0-179.0-0.0","584","","","","50","0,0,0","3","city","132","probe-63","0.12575234982638842","0.5189743995312497","0.43555536857333893","0","","","","","",""
"","do_trial","203","1478730","0.0-180.0-0.0","317.20000000298023","","","","50","0,0,0","3","city","133","probe-196","0.08990194646854302","0.6479242049661136","0.27125708916701446","0","","","","","",""
"","do_trial","204","1484915","0.0-181.0-0.0","628.5","","","","50","1,1,0","3","city","134","probe-27","0.16925387870820402","0.6405111918829794","0.28101021345177735","1","","","","","",""
"","do_trial","205","1491103","0.0-182.0-0.0","630.5999999940395","","","","50","0,0,0","3","city","135","probe-12","0.18232172780893457","0.7130300318756392","0.38920443657560244","0","","","","","",""
"","do_trial","206","1497000","0.0-183.0-0.0","339.29999999701977","","","","49","0,1,0","3","city","136","probe-131","0.21354777978560024","0.82058405127614","0.4262239511341665","0","","","","","",""
"","do_trial","207","1502800","0.0-184.0-0.0","242.60000000149012","","","","51","0,1,0","3","city","137","probe-236","0.24240215542436871","0.8557690733066443","0.4440218689489903","0","","","","","",""
"","do_trial","208","1508655","0.0-185.0-0.0","299.19999999552965","","","","51","1,1,0","3","city","138","probe-186","0.27822295594392527","0.7561949301057633","0.3818701898345633","0","","","","","",""
"","do_trial","209","1514586","0.0-186.0-0.0","378.40000000596046","","","","50","0,0,0","3","city","139","probe-121","0.3287060024765725","0.6901215860196294","0.2993070971686836","0","","","","","",""
"","do_trial","210","1520716","0.0-187.0-0.0","573.6999999955297","","","","50","0,1,1","3","city","140","probe-232","0.15051438777145873","0.7826007461446691","0.3359538916420046","1","","","","","",""
"","do_trial","211","1526600","0.0-188.0-0.0","327.90000000596046","","","","50","0,0,1","3","city","141","probe-164","0.0805551987821501","0.7542161136712977","0.4466182118459194","0","","","","","",""
"","do_trial","212","1532416","0.0-189.0-0.0","263.80000000447035","","","","50","0,1,0","3","city","142","probe-17","0.07126179215722987","0.7418497420786306","0.49883422866359645","1","","","","","",""
"","do_trial","213","1538231","0.0-190.0-0.0","260.5","","","","50","0,1,1","3","city","143","probe-207","0.10344042905623767","0.7743382480981643","0.42244154195612155","1","","","","","",""
"","do_trial","214","1544389","0.0-191.0-0.0","602","","","","50","0,1,1","3","city","144","probe-213","0.13695431511524228","0.8053472345632553","0.48496144397249974","1","","","","","",""
"","do_trial","215","1550292","0.0-192.0-0.0","346.5","","","","50","0,0,0","3","city","145","probe-219","0.27097067296396793","0.7814683669730562","0.47830025225349154","0","","","","","",""
"","do_trial","216","1556690","0.0-193.0-0.0","844.3999999985099","","","","49","0,1,0","3","city","146","probe-67","0.13327823986067697","0.854681798619479","0.39911018434830065","0","","","","","",""
"","do_trial","217","1562542","0.0-194.0-0.0","299.3999999985099","","","","49","0,0,0","3","city","147","probe-132","0.08963165191923463","0.7731932190411597","0.45754739848137915","0","","","","","",""
"","do_trial","218","1568368","0.0-195.0-0.0","270","","","","51","0,1,1","3","city","148","probe-204","0.08464943985388924","0.715893347780715","0.3732567004245883","1","","","","","",""
"","do_trial","219","1574355","0.0-196.0-0.0","433.29999999701977","","","","51","0,1,0","3","city","149","probe-07","0.08044875836583369","0.7315831009176198","0.4941254870851608","0","","","","","",""
"","do_trial","220","1580144","0.0-197.0-0.0","232.60000000149012","","","","51","1,0,1","3","city","150","probe-151","0.1907986327000968","0.6389392900416254","0.4276731508259601","1","","","","","",""
"","do_trial","221","1586458","0.0-198.0-0.0","760","","","","51","0,0,0","3","city","151","probe-122","0.12210829349625854","0.7413035270170896","0.3257343476417695","0","","","","","",""
"","do_trial","222","1592298","0.0-199.0-0.0","285","","","","51","0,1,1","3","city","152","probe-171","0.1887831551166817","0.6068681844532146","0.3445779921870631","1","","","","","",""
"","do_trial","223","1598510","0.0-200.0-0.0","657.3999999985099","","","","51","0,0,1","3","city","153","probe-240","0.15992181456190996","0.7649221403175287","0.32190826703316405","1","","","","","",""
"","do_trial","224","1604695","0.0-201.0-0.0","631.7999999970198","","","","51","0,1,1","3","city","154","probe-09","0.05566888055778655","0.8725706572631988","0.2797786000335302","1","","","","","",""
"","do_trial","225","1610590","0.0-202.0-0.0","339.1000000014901","","","","51","1,1,1","3","city","155","probe-113","0.06299526428585106","0.8750076481020855","0.3842025306783039","1","","","","","",""
"","do_trial","226","1616554","0.0-203.0-0.0","410.80000000447035","","","","51","1,1,1","3","city","156","probe-160","0.2211697072556488","0.9431873397168383","0.4670069474569729","1","","","","","",""
"","do_trial","227","1622616","0.0-204.0-0.0","507.19999999552965","","","","51","0,1,1","3","city","157","probe-58","0.10662216030614921","0.8907155398957067","0.45419313387967514","1","","","","","",""
"","do_trial","228","1628684","0.0-205.0-0.0","513.8999999985099","","","","51","0,1,0","3","city","158","probe-165","0.23514391855697706","0.9089684140035946","0.46032441091177606","0","","","","","",""
"","do_trial","229","1634627","0.0-206.0-0.0","387.90000000596046","","","","51","0,0,1","3","city","159","probe-178","0.058408757001911144","0.7846949879894823","0.4428262015310628","1","","","","","",""
"","do_bye","230","1636138","0.0-207.0-0.0","null","","","","null","","","","","","","","","","","","","","",""
"","do_travel","231","1642145","0.0-208.0-0.0","null","","","","null","","","","","","","","","","","","","","",""
"","do_welcome","232","1643653","0.0-208.0-1.0","null","","","","null","","","","","","","","","","","","","","",""
"","do_trial","233","1649953","0.0-209.0-0.0","743.8999999985099","","","","49","0,1,0","4","highway","160","probe-144","0.051187999430723226","1","0.4529342724901016","0","","","","","",""
"","do_trial","234","1655870","0.0-210.0-0.0","366.1000000014901","","","","50","0,1,0","4","highway","161","probe-74","0.07688030241839738","1","0.39669809365807807","1","","","","","",""
"","do_trial","235","1662046","0.0-211.0-0.0","626.1000000014901","","","","50","0,1,0","4","highway","162","probe-96","0.058294396769253326","1","0.3616163547527287","1","","","","","",""
"","do_trial","236","1668192","0.0-212.0-0.0","589","","","","50","0,1,0","4","highway","163","probe-101","0.06939001292040439","1","0.3836955251985233","1","","","","","",""
"","do_trial","237","1674162","0.0-213.0-0.0","416.90000000596046","","","","50","0,1,1","4","highway","164","probe-64","0.08563584668096545","0.8240486819514682","0.39722908719475075","1","","","","","",""
"","do_trial","238","1680504","0.0-214.0-0.0","784.3999999985099","","","","50","0,0,1","4","highway","165","probe-170","0.06030176029751621","0.9323076617882297","0.418511173756639","0","","","","","",""
"","do_trial","239","1686592","0.0-215.0-0.0","532.1000000014901","","","","51","0,0,1","4","highway","166","probe-152","0.16225147243723329","0.9449139509082934","0.37698147168126084","1","","","","","",""
"","do_trial","240","1692967","0.0-216.0-0.0","819.3000000044703","","","","51","1,0,0","4","highway","167","probe-45","0.2669782512264746","0.8892750517516114","0.26656991389455853","0","","","","","",""
"","do_trial","241","1699220","0.0-217.0-0.0","698.1999999955297","","","","51","1,1,0","4","highway","168","probe-39","0.26713226177175614","0.9054548813128406","0.2938398317515922","0","","","","","",""
"","do_trial","242","1705111","0.0-218.0-0.0","334.3999999985099","","","","50","0,1,0","4","highway","169","probe-161","0.17155674238079663","0.9202276446009904","0.2718579019421321","1","","","","","",""
"","do_trial","243","1711396","0.0-219.0-0.0","729.5","","","","50","0,1,0","4","highway","170","probe-42","0.4804506575717019","0.48704962313152733","0.3383287537155931","1","","","","","",""
"","do_trial","244","1717402","0.0-220.0-0.0","453","","","","50","1,0,0","4","highway","171","probe-200","0.6219564049902128","0.3603085459432434","0.4332181819442845","0","","","","","",""
"","do_trial","245","1723307","0.0-221.0-0.0","349.1000000014901","","","","51","0,1,1","4","highway","172","probe-62","0.6420055852094488","0.4402993034360185","0.38234414649722204","1","","","","","",""
"","do_trial","246","1729651","0.0-222.0-0.0","787.7000000029802","","","","51","1,1,0","4","highway","173","probe-75","0.6960016745371169","0.28611321902120546","0.3259379018843003","0","","","","","",""
"","do_trial","247","1735455","0.0-223.0-0.0","247.5","","","","51","1,0,1","4","highway","174","probe-109","0.7247032105786063","0.3114548731978269","0.4149221326104044","1","","","","","",""
"","do_trial","248","1741284","0.0-224.0-0.0","272.6000000014901","","","","51","1,0,0","4","highway","175","probe-03","0.7844461287088317","0.223498498192854","0.3510909364893702","0","","","","","",""
"","do_trial","249","1747220","0.0-225.0-0.0","381.6000000014901","","","","51","1,0,0","4","highway","176","probe-177","0.8161637395205713","0.14417799456835811","0.28731828614262145","0","","","","","",""
"","do_trial","250","1753091","0.0-226.0-0.0","317.8999999985099","","","","51","1,1,1","4","highway","177","probe-215","0.7906012337638434","0.21443274610940868","0.45757327648203083","1","","","","","",""
"","do_trial","251","1758886","0.0-227.0-0.0","237.60000000149012","","","","51","1,0,0","4","highway","178","probe-197","0.8132892690835202","0.09033635965496238","0.432266150681242","0","","","","","",""
"","do_trial","252","1764735","0.0-228.0-0.0","292.5","","","","49","0,0,0","4","highway","179","probe-72","0.7626507938854512","0.1550223698076144","0.3698930234592406","0","","","","","",""
"","do_trial","253","1770882","0.0-229.0-0.0","590.3999999985099","","","","49","1,0,1","4","highway","180","probe-68","0.7285638836842563","0.21813149383934927","0.3736901057694869","1","","","","","",""
"","do_trial","254","1776964","0.0-230.0-0.0","526.2000000029802","","","","49","1,1,1","4","highway","181","probe-120","0.7760834977152129","0.13328642667431664","0.42225917478343966","1","","","","","",""
"","do_trial","255","1783643","0.0-231.0-0.0","1126.2999999970198","","","","49","1,0,1","4","highway","182","probe-84","0.7791550134636741","0.17541409395372712","0.4518703673171751","1","","","","","",""
"","do_trial","256","1789901","0.0-232.0-0.0","703.2000000029802","","","","49","1,0,1","4","highway","183","probe-98","0.8317758473788897","0.16451560825398898","0.3766590605203603","1","","","","","",""
"","do_trial","257","1796001","0.0-233.0-0.0","544.9000000059605","","","","49","1,1,0","4","highway","184","probe-38","0.8758206253968669","0.109838904784898","0.42781132032402513","1","","","","","",""
"","do_trial","258","1801943","0.0-234.0-0.0","385.8999999985099","","","","49","0,1,1","4","highway","185","probe-139","0.799329953472151","0.18072793974234458","0.48033865401679005","0","","","","","",""
"","do_trial","259","1807948","0.0-235.0-0.0","448","","","","49","0,1,0","4","highway","186","probe-13","0.8091310413056206","0.1265861770984019","0.46849558155250864","0","","","","","",""
"","do_trial","260","1814009","0.0-236.0-0.0","504.69999999552965","","","","49","0,0,1","4","highway","187","probe-206","0.7851655981851872","0.060279584027962095","0.4306638756754082","0","","","","","",""
"","do_trial","261","1819859","0.0-237.0-0.0","293","","","","50","1,0,1","4","highway","188","probe-97","0.8883184506585721","0.16759907052459383","0.5089523477941534","0","","","","","",""
"","do_trial","262","1825671","0.0-238.0-0.0","261.3999999985099","","","","50","0,0,0","4","highway","189","probe-155","0.8270516064715066","0.053999406224674314","0.4845485659401228","0","","","","","",""
"","do_trial","263","1831617","0.0-239.0-0.0","393.19999999552965","","","","51","1,1,1","4","highway","190","probe-199","0.7830251355705151","0.1416987317978011","0.39584143620781137","1","","","","","",""
"","do_trial","264","1837542","0.0-240.0-0.0","375.8999999985099","","","","51","0,0,1","4","highway","191","probe-217","0.702938875386457","0.22661708537352496","0.3861059108514068","1","","","","","",""
"","do_trial","265","1843510","0.0-241.0-0.0","414.5","","","","51","1,0,1","4","highway","192","probe-222","0.7597910412725587","0.18639525889258352","0.4810803677296576","1","","","","","",""
"","do_trial","266","1849453","0.0-242.0-0.0","390.19999999552965","","","","51","1,0,0","4","highway","193","probe-123","0.7004549811275788","0.20264890808879416","0.39568723153484475","0","","","","","",""
"","do_trial","267","1855296","0.0-243.0-0.0","286.6000000014901","","","","51","0,0,1","4","highway","194","probe-46","0.7343399035041052","0.0512819407792224","0.39636450927329714","1","","","","","",""
"","do_trial","268","1861218","0.0-244.0-0.0","364.79999999701977","","","","51","0,0,0","4","highway","195","probe-220","0.7592664530507931","0.19778572530937516","0.4256118470384472","0","","","","","",""
"","do_trial","269","1867169","0.0-245.0-0.0","395.5","","","","51","0,0,1","4","highway","196","probe-163","0.7056097666583925","0.1520578179170294","0.3920578213980634","1","","","","","",""
"","do_trial","270","1873383","0.0-246.0-0.0","656.5999999940395","","","","51","1,0,0","4","highway","197","probe-126","0.6468220877658228","0.05826610438991475","0.24946990283717455","0","","","","","",""
"","do_trial","271","1879362","0.0-247.0-0.0","424.29999999701977","","","","51","1,0,0","4","highway","198","probe-82","0.8264863849408652","0.05633069895930722","0.3026959242725604","0","","","","","",""
"","do_trial","272","1885200","0.0-248.0-0.0","282.5","","","","50","0,0,0","4","highway","199","probe-172","0.7603806110200401","0.15305853874080994","0.3501330799609017","0","","","","","",""
"","do_bye","273","1886712","0.0-249.0-0.0","null","","","","null","","","","","","","","","","","","","","",""
"","do_travel","274","1892717","0.0-250.0-0.0","null","","","","null","","","","","","","","","","","","","","",""
"","do_welcome","275","1894229","0.0-250.0-1.0","null","","","","null","","","","","","","","","","","","","","",""
"","do_trial","276","1901224","0.0-251.0-0.0","1436.1000000014901","","","","51","1,0,1","5","coast","200","probe-189","1","0.20096169214200457","0.34456687615677195","1","","","","","",""
"","do_trial","277","1907279","0.0-252.0-0.0","503.70000000298023","","","","51","1,0,0","5","coast","201","probe-19","1","0.06319133164625576","0.37601581890161256","0","","","","","",""
"","do_trial","278","1913142","0.0-253.0-0.0","310.80000000447035","","","","51","1,0,0","5","coast","202","probe-57","1","0.12335260841380509","0.45062293113330165","0","","","","","",""
"","do_trial","279","1919418","0.0-254.0-0.0","723.7999999970198","","","","50","1,0,1","5","coast","203","probe-179","1","0.07925522793460969","0.43733282812246366","0","","","","","",""
"","do_trial","280","1925360","0.0-255.0-0.0","389.19999999552965","","","","49","1,0,0","5","coast","204","probe-04","0.7353786303440097","0.10446874857243071","0.5817838348152147","1","","","","","",""
"","do_trial","281","1931540","0.0-256.0-0.0","625.2999999970198","","","","49","1,0,1","5","coast","205","probe-78","0.8490763242634201","0.1182931176818213","0.5983937023634013","1","","","","","",""
"","do_trial","282","1938034","0.0-257.0-0.0","941","","","","49","1,0,1","5","coast","206","probe-89","0.8248412174408084","0.10760810452632998","0.3515082562851192","1","","","","","",""
"","do_trial","283","1944476","0.0-258.0-0.0","887.2999999970198","","","","49","1,0,1","5","coast","207","probe-115","0.8678542237508942","0.18634161539368002","0.3348494873607094","1","","","","","",""
"","do_trial","284","1950639","0.0-259.0-0.0","606.5","","","","49","1,1,1","5","coast","208","probe-129","0.7427319428434918","0.19342692328284128","0.35211772326059676","1","","","","","",""
"","do_trial","285","1956591","0.0-260.0-0.0","393.6000000014901","","","","49","0,0,0","5","coast","209","probe-34","0.5569469847129378","0.19295827512683056","0.3618794808314528","0","","","","","",""
"","do_trial","286","1962501","0.0-261.0-0.0","357.1000000014901","","","","49","0,0,0","5","coast","210","probe-26","0.5355706756058102","0.23924595638123594","0.5236452014627685","0","","","","","",""
"","do_trial","287","1968372","0.0-262.0-0.0","306.20000000298023","","","","50","1,0,1","5","coast","211","probe-90","0.5688115464266814","0.15048777117473136","0.6301744263951552","0","","","","","",""
"","do_trial","288","1974263","0.0-263.0-0.0","341.20000000298023","","","","51","1,0,1","5","coast","212","probe-140","0.5110244972392269","0.21189799703886084","0.6043097049675348","1","","","","","",""
"","do_trial","289","1980190","0.0-264.0-0.0","376.8999999985099","","","","51","0,0,1","5","coast","213","probe-124","0.4615967792113708","0.05007102098097947","0.7461166818133689","1","","","","","",""
"","do_trial","290","1986023","0.0-265.0-0.0","273.8999999985099","","","","51","1,0,1","5","coast","214","probe-21","0.4109463003715008","0.07501568799817085","0.6743503620950955","1","","","","","",""
"","do_trial","291","1992503","0.0-266.0-0.0","924.1000000014901","","","","51","1,0,0","5","coast","215","probe-14","0.4432073047051","0.13112315835770505","0.6833458957400295","0","","","","","",""
"","do_trial","292","1998724","0.0-267.0-0.0","668.2000000029802","","","","49","0,0,1","5","coast","216","probe-216","0.5423384119042325","0.20733561851395726","0.7589511157011916","0","","","","","",""
"","do_trial","293","2004750","0.0-268.0-0.0","472.5","","","","50","0,0,1","5","coast","217","probe-51","0.5070301443257192","0.12206474427841442","0.8506199184312817","0","","","","","",""
"","do_trial","294","2010734","0.0-269.0-0.0","429.1000000014901","","","","50","0,0,1","5","coast","218","probe-223","0.4051609890903821","0.17699983768320127","0.6498111450721683","0","","","","","",""
"","do_trial","295","2016586","0.0-270.0-0.0","296.5","","","","51","0,0,1","5","coast","219","probe-83","0.44021145762262076","0.1451134486960572","0.8047855930441093","1","","","","","",""
"","do_trial","296","2022418","0.0-271.0-0.0","277.6000000014901","","","","51","1,0,1","5","coast","220","probe-37","0.2823416536811948","0.2337080434456645","0.8880575212734908","1","","","","","",""
"","do_trial","297","2028645","0.0-272.0-0.0","671.8000000044703","","","","51","0,0,1","5","coast","221","probe-55","0.4056691930590905","0.24867878601523252","0.823970926377138","1","","","","","",""
"","do_trial","298","2034541","0.0-273.0-0.0","339.79999999701977","","","","51","0,0,1","5","coast","222","probe-175","0.4210686365862473","0.1439698099699151","0.7552291161807472","1","","","","","",""
"","do_trial","299","2040942","0.0-274.0-0.0","847.7000000029802","","","","51","0,0,1","5","coast","223","probe-239","0.12421818018028255","0.16271288546447785","0.859368344920065","1","","","","","",""
"","do_trial","300","2046912","0.0-275.0-0.0","418.5","","","","51","0,0,1","5","coast","224","probe-227","0.17518211171173576","0.14457282699748908","0.9208903924905935","1","","","","","",""
"","do_trial","301","2053323","0.0-276.0-0.0","855.5999999940395","","","","51","0,0,1","5","coast","225","probe-114","0.3954291911935841","0.17103710552246157","0.8400026424745104","1","","","","","",""
"","do_trial","302","2059216","0.0-277.0-0.0","336.5","","","","51","0,0,1","5","coast","226","probe-237","0.26942141065958114","0.20311811316939918","0.7986395067493877","1","","","","","",""
"","do_trial","303","2065284","0.0-278.0-0.0","509.5","","","","51","1,0,1","5","coast","227","probe-134","0.1980938485216771","0.2112044794235495","0.9125997315450641","1","","","","","",""
"","do_trial","304","2071359","0.0-279.0-0.0","519.5","","","","51","1,0,1","5","coast","228","probe-183","0.191499708585066","0.2053853032432958","0.8743264194382545","1","","","","","",""
"","do_trial","305","2077338","0.0-280.0-0.0","426.1000000014901","","","","51","0,0,0","5","coast","229","probe-70","0.14519443933876505","0.2960205951035854","0.7043312340429486","0","","","","","",""
"","do_trial","306","2083166","0.0-281.0-0.0","275.19999999552965","","","","51","0,0,1","5","coast","230","probe-154","0.14667479822840382","0.3780025692364262","0.7897710680560058","1","","","","","",""
"","do_trial","307","2089090","0.0-282.0-0.0","369.5","","","","51","0,0,1","5","coast","231","probe-181","0.20731107265385593","0.3432616097749227","0.7521343954150794","1","","","","","",""
"","do_trial","308","2095138","0.0-283.0-0.0","494.40000000596046","","","","51","0,0,1","5","coast","232","probe-195","0.3053836100526275","0.17973642657579933","0.8244101348377814","1","","","","","",""
"","do_trial","309","2101210","0.0-284.0-0.0","517.1999999955297","","","","51","0,0,1","5","coast","233","probe-73","0.24835270974708729","0.07994982321735716","0.8382776682381365","1","","","","","",""
"","do_trial","310","2107245","0.0-285.0-0.0","478.8999999985099","","","","51","0,0,1","5","coast","234","probe-188","0.31523816602283267","0.15547147262489316","0.8762427416812242","1","","","","","",""
"","do_trial","311","2113163","0.0-286.0-0.0","364.8999999985099","","","","51","1,0,1","5","coast","235","probe-65","0.3773009580172683","0.1031536768950372","0.839514058253243","1","","","","","",""
"","do_trial","312","2119761","0.0-287.0-0.0","1043.0999999940395","","","","51","0,0,0","5","coast","236","probe-153","0.32293931982285246","0.05852628163556879","0.7012401907620059","0","","","","","",""
"","do_trial","313","2125742","0.0-288.0-0.0","433.3999999985099","","","","51","1,0,1","5","coast","237","probe-23","0.2926827928800873","0.12130061080178242","0.8040846126872265","1","","","","","",""
"","do_trial","314","2131751","0.0-289.0-0.0","450.80000000447035","","","","51","0,0,1","5","coast","238","probe-214","0.3350700683529671","0.14438716617158845","0.7833916889348725","1","","","","","",""
"","do_trial","315","2137924","0.0-290.0-0.0","616.7999999970198","","","","51","0,0,0","5","coast","239","probe-112","0.45835642129640475","0.08073368137340778","0.6721027291084515","0","","","","","",""
"","do_bye","316","2139434","0.0-291.0-0.0","null","","","","null","","","","","","","","","","","","","","",""
"","html-keyboard-response","317","2259444","0.0-291.0-1.0","null","<div class='center'><p>You may take a break now!</p><p> Stretch for a little bit. Get a glass of water.</p><p> You have two minutes to rest. Then, the game will automatically move on.</p><p>If you’d like to get started on the second half of the experiment sooner, then press the <b>space bar</b></p></div>","null","","","","","","","","","","","","","","","","",""
"","html-keyboard-response","318","2276490","0.0-291.0-2.0","17044.5","<div class='center'><p>You’ve arrived at the final destination of your journey! Unfortunately, it’s very foggy out, so you won’t be able to see it in the distance like in previous places you've visited.</p><p>You’ll still be deciding which pirates you want to rob ships. However, because of the fog you also won’t be able to see the ship in the distance. </p><p><b>[Press the space bar to continue]</b></p></div>","32","","","","","","","","","","","","","","","","",""
"","html-keyboard-response","319","2321918","0.0-291.0-3.0","45425.39999999851","<div class='center'><p> Sometimes you’ll be asked if you’ve seen a ship before (see the example below). You will use the 5, 6, 7, 8 buttons on your keyboard to respond. </p><p> If you definitely did not see the ship, pick the the big red thumbs down by pressing <b>5</b>.</p><p> If you don’t think you saw it but aren’t sure, then pick the small red thumbs down by pressing <b>6</b>.</p><p> If you think you might have seen it, then pick the small green thumbs up by pressing <b>7</b>.</p><p> If you definitely did see this ship before, then pick the big thumb green thumbs up by pressing <b>8</b>.</p><p> If you recall correctly, then you’ll get a gold coin!</p><p><b>[Press the space bar to begin the next phase of the experiment]</b></p><p><img src='run_exp/static/images/example_recog_trial.png' height='500'></p></div>","32","","","","","","","","","","","","","","","","",""
"","do_welcome","320","2323426","0.0-291.0-4.0","null","","","","null","","","","","","","","","","","","","","",""
"","do_trial","321","2329487","0.0-292.0-0.0","null","","","","null","0,0,1","6","blank","240","null","0.4887043477321037","0.11313091189909197","1","","","","","","",""
"","do_recog","322","2335504","0.0-293.0-0.0","null","","","","null","","","","241","probe-115","","","","","1","[object Object]","207","5","0",""
"","do_trial","323","2339451","0.0-294.0-0.0","392.3999999985099","","","","50","1,1,1","6","blank","242","null","0.44126550441917267","0.10029345224507047","0.837635635054522","1","","","","","",""
"","do_recog","324","2342868","0.0-295.0-0.0","1902.7000000029802","","","","56","","","","243","probe-34","","","","","1","[object Object]","209","5","1",""
"","do_trial","325","2347752","0.0-296.0-0.0","1333.1000000014901","","","","49","0,0,1","6","blank","244","null","0.43169630998312464","0.2024731970667579","0.7173480021369486","0","","","","","",""
"","do_trial","326","2352072","0.0-297.0-0.0","764.3999999985099","","","","50","1,1,1","6","blank","245","null","0.4634498540372012","0.15590668306554192","0.8148778758599475","1","","","","","",""
"","do_recog","327","2355428","0.0-298.0-0.0","1843.8999999985099","","","","56","","","","246","probe-33","","","","","1","[object Object]","127","3","1",""
"","do_trial","328","2360929","0.0-299.0-0.0","1943.7999999970198","","","","51","0,0,1","6","blank","247","null","0.39923598839802105","0.11801817134491875","0.7943403917113147","1","","","","","",""
"","do_trial","329","2366005","0.0-300.0-0.0","1522.7000000029802","","","","50","1,0,1","6","blank","248","null","0.2707802641773225","0.18726337523676545","0.7659999066100879","0","","","","","",""
"","do_trial","330","2369901","0.0-301.0-0.0","337.30000000447035","","","","51","0,0,0","6","blank","249","null","0.26421254283795104","0.08265228780034754","0.8473340964303128","0","","","","","",""
"","do_recog","331","2373503","0.0-302.0-0.0","2093.5","","","","54","","","","250","probe-250","","","","","0","[object Object]","null","null","1",""
"","do_trial","332","2378075","0.0-303.0-0.0","1022.2999999970198","","","","49","1,0,1","6","blank","251","null","0.23890513097755173","0.14972846010800134","0.9451416017092322","1","","","","","",""
"","do_recog","333","2381497","0.0-304.0-0.0","1913.1000000014901","","","","54","","","","252","probe-100","","","","","1","[object Object]","42","1","0",""
"","do_trial","334","2385827","0.0-305.0-0.0","780.5999999940395","","","","50","1,0,0","6","blank","253","null","0.2634732923148686","0.17866554787608097","0.8288722931762027","0","","","","","",""
"","do_recog","335","2388692","0.0-306.0-0.0","1354","","","","53","","","","254","probe-05","","","","","1","[object Object]","89","2","0",""
"","do_trial","336","2393006","0.0-307.0-0.0","763.7999999970198","","","","49","0,0,1","6","blank","255","null","0.22441531596983116","0.09622284070468133","0.9355225822481577","0","","","","","",""
"","do_recog","337","2396078","0.0-308.0-0.0","1562.7000000029802","","","","55","","","","256","probe-110","","","","","1","[object Object]","122","3","1",""
"","do_trial","338","2400315","0.0-309.0-0.0","680.2000000029802","","","","51","0,0,0","6","blank","257","null","0.4497742087157369","0.2565357782806241","0.4940133723755434","0","","","","","",""
"","do_trial","339","2404191","0.0-310.0-0.0","320.8999999985099","","","","51","0,0,0","6","blank","258","null","0.5038145969645175","0.3564180592241646","0.3775912917250567","0","","","","","",""
"","do_trial","340","2408088","0.0-311.0-0.0","341.30000000447035","","","","50","1,1,0","6","blank","259","null","0.5077544008804177","0.22965662024031852","0.18505202477847013","1","","","","","",""
"","do_recog","341","2410933","0.0-312.0-0.0","1331","","","","56","","","","260","probe-189","","","","","1","[object Object]","200","5","1",""
"","do_trial","342","2415059","0.0-313.0-0.0","576.5","","","","50","0,0,0","6","blank","261","null","0.7266838131625843","0.31196872670249265","0.14053085916730398","0","","","","","",""
"","do_recog","343","2418372","0.0-314.0-0.0","1803.8000000044703","","","","54","","","","262","probe-96","","","","","1","[object Object]","162","4","0",""
"","do_trial","344","2422517","0.0-315.0-0.0","589.5","","","","49","1,1,0","6","blank","263","null","0.8643902357715129","0.4114039715307836","0.11526669506534408","1","","","","","",""
"","do_recog","345","2425392","0.0-316.0-0.0","1365.7999999970198","","","","55","","","","264","probe-249","","","","","0","[object Object]","null","null","0",""
"","do_trial","346","2430023","0.0-317.0-0.0","1072.8999999985099","","","","49","1,0,0","6","blank","265","null","0.7582703998110424","0.3118894696641934","0.09500825394454139","1","","","","","",""
"","do_trial","347","2434315","0.0-318.0-0.0","735.7000000029802","","","","49","1,0,0","6","blank","266","null","0.7833297186307734","0.3583668308788521","0.11226712216013426","1","","","","","",""
"","do_trial","348","2438412","0.0-319.0-0.0","545.6000000014901","","","","49","1,0,0","6","blank","267","null","0.6899136428913976","0.35187964459018","0.10368093753745393","1","","","","","",""
"","do_trial","349","2442628","0.0-320.0-0.0","663.1000000014901","","","","49","1,0,0","6","blank","268","null","0.9204649294740463","0.29447190502487686","0.05476049969846846","1","","","","","",""
"","do_trial","350","2446780","0.0-321.0-0.0","606.6000000014901","","","","49","1,0,0","6","blank","269","null","0.9447861195384328","0.26759292146270347","0.278716191330319","1","","","","","",""
"","do_recog","351","2449808","0.0-322.0-0.0","1518.2999999970198","","","","55","","","","270","probe-170","","","","","1","[object Object]","165","4","1",""
"","do_trial","352","2454215","0.0-323.0-0.0","851.2000000029802","","","","49","1,0,0","6","blank","271","null","0.8171535154190167","0.33370286878314276","0.34066472966775585","1","","","","","",""
"","do_recog","353","2458067","0.0-324.0-0.0","2339.3000000044703","","","","56","","","","272","probe-129","","","","","1","[object Object]","208","5","1",""
"","do_trial","354","2462775","0.0-325.0-0.0","1153.3000000044703","","","","49","1,0,0","6","blank","273","null","0.6843379835054537","0.3119450423163595","0.39628836869762657","1","","","","","",""
"","do_recog","355","2465759","0.0-326.0-0.0","1472.2000000029802","","","","54","","","","274","probe-247","","","","","0","[object Object]","null","null","1",""
"","do_trial","356","2470285","0.0-327.0-0.0","973.7000000029802","","","","49","1,0,0","6","blank","275","null","0.8632357832267432","0.42927344925912553","0.1393048017023044","1","","","","","",""
"","do_recog","357","2472797","0.0-328.0-0.0","997.7999999970198","","","","56","","","","276","probe-105","","","","","1","[object Object]","84","2","1",""
"","do_trial","358","2477095","0.0-329.0-0.0","743","","","","49","1,1,0","6","blank","277","null","0.9435996164343956","0.476544564535365","0.08817434819639652","1","","","","","",""
"","do_trial","359","2481167","0.0-330.0-0.0","515.5","","","","49","0,1,0","6","blank","278","null","0.7611967590892991","0.5263212970555894","0.05199136963571469","0","","","","","",""
"","do_trial","360","2485239","0.0-331.0-0.0","519.2999999970198","","","","50","1,1,1","6","blank","279","null","0.8234885887229603","0.42974638292031464","0.05754233751457935","1","","","","","",""
"","do_trial","361","2489410","0.0-332.0-0.0","618.9000000059605","","","","50","1,0,0","6","blank","280","null","0.7895237227137822","0.4854450710170188","0.09300851269051955","0","","","","","",""
"","do_trial","362","2493281","0.0-333.0-0.0","313.5","","","","50","0,0,1","6","blank","281","null","0.5848570726292993","0.40366598787332236","0.10349329485504226","0","","","","","",""
"","do_recog","363","2496250","0.0-334.0-0.0","1458.7000000029802","","","","55","","","","282","probe-256","","","","","0","[object Object]","null","null","0",""
"","do_trial","364","2500450","0.0-335.0-0.0","644.8999999985099","","","","50","0,0,0","6","blank","283","null","0.7450872805592788","0.5343861637390789","0.08923138916515816","0","","","","","",""
"","do_recog","365","2503081","0.0-336.0-0.0","1120.1000000014901","","","","56","","","","284","probe-238","","","","","1","[object Object]","120","3","1",""
"","do_trial","366","2507233","0.0-337.0-0.0","599","","","","51","1,1,0","6","blank","285","null","0.7503623446526938","0.5345687710638305","0.05209109034686584","0","","","","","",""
"","do_trial","367","2511485","0.0-338.0-0.0","695.7999999970198","","","","50","1,1,0","6","blank","286","null","1","0.4345650422596717","0.15797136226252462","1","","","","","",""
"","do_trial","368","2515843","0.0-339.0-0.0","802.6000000014901","","","","50","0,0,0","6","blank","287","null","0.92758149236673","0.375433708050531","0.14713120266521762","0","","","","","",""
"","do_recog","369","2519273","0.0-340.0-0.0","1920.1000000014901","","","","53","","","","288","probe-74","","","","","1","[object Object]","161","4","0",""
"","do_trial","370","2523646","0.0-341.0-0.0","818.1000000014901","","","","49","1,0,0","6","blank","289","null","0.7627229596011135","0.36973497009412326","0.13508289862931702","1","","","","","",""
"","do_recog","371","2526510","0.0-342.0-0.0","1351.1000000014901","","","","55","","","","290","probe-136","","","","","1","[object Object]","88","2","1",""
"","do_trial","372","2531016","0.0-343.0-0.0","952.6000000014901","","","","49","1,1,0","6","blank","291","null","0.7496489183574893","0.38601316317284295","0.14690040540153945","1","","","","","",""
"","do_trial","373","2535202","0.0-344.0-0.0","631.1000000014901","","","","49","1,0,0","6","blank","292","null","0.6880985928400845","0.48248018493232786","0.14015914069378202","1","","","","","",""
"","do_trial","374","2539454","0.0-345.0-0.0","694.7000000029802","","","","49","0,1,0","6","blank","293","null","0.7341760971577077","0.46822613275961694","0.14671426278210528","0","","","","","",""
"","do_recog","375","2542234","0.0-346.0-0.0","1266.1000000014901","","","","56","","","","294","probe-64","","","","","1","[object Object]","164","4","1",""
"","do_trial","376","2546345","0.0-347.0-0.0","555.8999999985099","","","","49","1,1,0","6","blank","295","null","0.7842807633164278","0.5311929602681659","0.050246552036729446","1","","","","","",""
"","do_trial","377","2550475","0.0-348.0-0.0","577.1000000014901","","","","49","1,1,0","6","blank","296","null","0.7884682426230871","0.4647765323136369","0.10887492965438834","1","","","","","",""
"","do_recog","378","2552892","0.0-349.0-0.0","903.3000000044703","","","","56","","","","297","probe-24","","","","","1","[object Object]","121","3","1",""
"","do_trial","379","2557021","0.0-350.0-0.0","575.6999999955297","","","","49","1,1,0","6","blank","298","null","0.6472679553415938","0.5706113606531621","0.15195941907955146","1","","","","","",""
"","do_recog","380","2560355","0.0-351.0-0.0","1824.6000000014901","","","","53","","","","299","probe-193","","","","","1","[object Object]","44","1","0",""
"","do_trial","381","2564322","0.0-352.0-0.0","410.69999999552965","","","","49","1,1,0","6","blank","300","null","0.680571810292947","0.5156636925071704","0.08386314554046408","1","","","","","",""
"","do_recog","382","2566673","0.0-353.0-0.0","840.2999999970198","","","","56","","","","301","probe-255","","","","","0","[object Object]","null","null","0",""
"","do_trial","383","2570719","0.0-354.0-0.0","491.1000000014901","","","","49","0,0,0","6","blank","302","null","0.6523304769126339","0.5241861947375799","0.05505246029133073","0","","","","","",""
"","do_trial","384","2575012","0.0-355.0-0.0","740","","","","49","1,1,0","6","blank","303","null","0.5132446127755633","0.4906859474394466","0.2511296080847933","1","","","","","",""
"","do_trial","385","2579467","0.0-356.0-0.0","899.1999999955297","","","","49","0,1,1","6","blank","304","null","0.4064013865823338","0.5607037957312272","0.3986369764647955","0","","","","","",""
"","do_trial","386","2583406","0.0-357.0-0.0","383.69999999552965","","","","50","1,1,0","6","blank","305","null","0.21304933355021832","0.583807233819303","0.20741762580126163","1","","","","","",""
"","do_recog","387","2585998","0.0-358.0-0.0","1078.7999999970198","","","","55","","","","306","probe-138","","","","","1","[object Object]","81","2","1",""
"","do_trial","388","2590583","0.0-359.0-0.0","1028.2999999970198","","","","50","1,1,0","6","blank","307","null","0.20873735508544095","0.7590679615956195","0.2532651206335209","1","","","","","",""
"","do_recog","389","2593510","0.0-360.0-0.0","1413.6000000014901","","","","55","","","","308","probe-235","","","","","1","[object Object]","40","1","1",""
"","do_trial","390","2597723","0.0-361.0-0.0","660.7999999970198","","","","50","0,1,1","6","blank","309","null","0.1067540957755452","0.723105006926759","0.3399209971782054","1","","","","","",""
"","do_trial","391","2601989","0.0-362.0-0.0","711","","","","50","0,1,1","6","blank","310","null","0.16402301071539163","0.7272879915471068","0.2871066313644731","1","","","","","",""
"","do_trial","392","2606145","0.0-363.0-0.0","601.4000000059605","","","","50","0,0,0","6","blank","311","null","0.20207338794293578","0.8400538866985765","0.359649602900191","0","","","","","",""
"","do_trial","393","2610148","0.0-364.0-0.0","445","","","","51","0,1,0","6","blank","312","null","0.10196361234417832","0.9033528573955237","0.3407460380396536","0","","","","","",""
"","do_recog","394","2613095","0.0-365.0-0.0","1432.5999999940395","","","","55","","","","313","probe-85","","","","","1","[object Object]","80","2","1",""
"","do_trial","395","2617448","0.0-366.0-0.0","798.2999999970198","","","","51","0,1,1","6","blank","314","null","0.08599546892860127","0.8128929513322948","0.4952532177763394","1","","","","","",""
"","do_trial","396","2621617","0.0-367.0-0.0","614.1000000014901","","","","51","0,1,0","6","blank","315","null","0.08568581932974562","0.8203132880483034","0.4292259151832902","0","","","","","",""
"","do_trial","397","2625805","0.0-368.0-0.0","631.7000000029802","","","","49","0,0,0","6","blank","316","null","0.10285671333048335","0.7393775887437463","0.25023905551969533","0","","","","","",""
"","do_trial","398","2629709","0.0-369.0-0.0","349.6000000014901","","","","49","0,1,0","6","blank","317","null","0.2461861044591567","0.6443121055575118","0.1170341816327301","0","","","","","",""
"","do_recog","399","2632385","0.0-370.0-0.0","1162.2000000029802","","","","55","","","","318","probe-158","","","","","1","[object Object]","87","2","1",""
"","do_trial","400","2636622","0.0-371.0-0.0","684.6000000014901","","","","49","1,1,0","6","blank","319","null","0.21312913969749986","0.6868461742499359","0.28564334839859007","1","","","","","",""
"","do_recog","401","2640009","0.0-372.0-0.0","1872.5","","","","54","","","","320","probe-179","","","","","1","[object Object]","203","5","0",""
"","do_trial","402","2644055","0.0-373.0-0.0","490.8999999985099","","","","49","1,1,1","6","blank","321","null","0.2653596040236089","0.622831339045907","0.38883469913481605","1","","","","","",""
"","do_recog","403","2646817","0.0-374.0-0.0","1247.6000000014901","","","","55","","","","322","probe-118","","","","","1","[object Object]","124","3","1",""
"","do_trial","404","2651014","0.0-375.0-0.0","641.5","","","","49","0,0,1","6","blank","323","null","0.2711253978338819","0.8048723867848626","0.4583356120576811","0","","","","","",""
"","do_recog","405","2653530","0.0-376.0-0.0","1003.3999999985099","","","","55","","","","324","probe-80","","","","","1","[object Object]","43","1","1",""
"","do_trial","406","2657732","0.0-377.0-0.0","651.3000000044703","","","","50","0,1,0","6","blank","325","null","0.2866559590671488","0.70684655151622","0.4241555302783477","1","","","","","",""
"","do_recog","407","2661183","0.0-378.0-0.0","1941.8000000044703","","","","54","","","","326","probe-48","","","","","1","[object Object]","86","2","0",""
"","do_trial","408","2665549","0.0-379.0-0.0","812.1000000014901","","","","50","0,1,0","6","blank","327","null","0.14028815841345094","0.7638062375358179","0.4358748320236132","1","","","","","",""
"","do_recog","409","2668103","0.0-380.0-0.0","1040.0999999940395","","","","55","","","","328","probe-228","","","","","1","[object Object]","82","2","1",""
"","do_trial","410","2672506","0.0-381.0-0.0","851.2000000029802","","","","50","0,1,1","6","blank","329","null","0.14807196787009708","0.7934232269863989","0.48721680709112053","1","","","","","",""
"","do_recog","411","2675461","0.0-382.0-0.0","1446.3000000044703","","","","54","","","","330","probe-78","","","","","1","[object Object]","205","5","0",""
"","do_trial","412","2679929","0.0-383.0-0.0","920.7000000029802","","","","50","0,0,0","6","blank","331","null","0.05466813611919465","0.7339216043738341","0.35488398027435725","0","","","","","",""
"","do_recog","413","2682469","0.0-384.0-0.0","1030.2000000029802","","","","56","","","","332","probe-205","","","","","1","[object Object]","41","1","1",""
"","do_trial","414","2686359","0.0-385.0-0.0","337.70000000298023","","","","51","0,1,1","6","blank","333","null","0.11416893591218089","1","0.42897578406697423","1","","","","","",""
"","do_recog","415","2688804","0.0-386.0-0.0","932","","","","55","","","","334","probe-57","","","","","1","[object Object]","202","5","1",""
"","do_trial","416","2693224","0.0-387.0-0.0","867.7000000029802","","","","51","0,0,1","6","blank","335","null","0.053412512345832025","0.8715471807732628","0.5202096671545055","1","","","","","",""
"","do_recog","417","2695609","0.0-388.0-0.0","870.3999999985099","","","","56","","","","336","probe-44","","","","","1","[object Object]","85","2","1",""
"","do_trial","418","2700015","0.0-389.0-0.0","850.5","","","","51","0,1,0","6","blank","337","null","0.1783088862026321","0.9351823686474068","0.4787728798965576","0","","","","","",""
"","do_recog","419","2702603","0.0-390.0-0.0","1078.6999999955297","","","","56","","","","338","probe-173","","","","","1","[object Object]","128","3","1",""
"","do_trial","420","2706736","0.0-391.0-0.0","576.0999999940395","","","","51","0,0,0","6","blank","339","null","0.19598729140224433","0.8453703983439971","0.37090615221787937","0","","","","","",""
"","do_trial","421","2710947","0.0-392.0-0.0","654.1999999955297","","","","49","0,1,1","6","blank","340","null","0.05278977232005286","0.8959399046458816","0.4241160711752734","0","","","","","",""
"","do_trial","422","2714994","0.0-393.0-0.0","490","","","","50","0,1,0","6","blank","341","null","0.12162421771675844","0.8145788456102007","0.34082608633304357","1","","","","","",""
"","do_recog","423","2718352","0.0-394.0-0.0","1847.7000000029802","","","","54","","","","342","probe-145","","","","","1","[object Object]","49","1","0",""
"","do_trial","424","2723254","0.0-395.0-0.0","1347.3999999985099","","","","50","0,1,1","6","blank","343","null","0.1352583508601963","0.7447957232343445","0.39015145128826917","1","","","","","",""
"","do_recog","425","2726429","0.0-396.0-0.0","1660.7999999970198","","","","56","","","","344","probe-19","","","","","1","[object Object]","201","5","1",""
"","do_trial","426","2730825","0.0-397.0-0.0","839.7999999970198","","","","50","0,0,1","6","blank","345","null","0.16365130615568063","0.659514445282687","0.451192724847872","0","","","","","",""
"","do_trial","427","2735047","0.0-398.0-0.0","665.3999999985099","","","","51","0,1,1","6","blank","346","null","0.21534648708203805","0.7582795698776985","0.4708304368122623","1","","","","","",""
"","do_recog","428","2737586","0.0-399.0-0.0","1024.7000000029802","","","","56","","","","347","probe-211","","","","","1","[object Object]","126","3","1",""
"","do_trial","429","2742334","0.0-400.0-0.0","1195.3999999985099","","","","51","1,1,0","6","blank","348","null","0.22641224261585355","0.9346378226276403","0.40788209489547356","0","","","","","",""
"","do_recog","430","2745461","0.0-401.0-0.0","1613","","","","56","","","","349","probe-152","","","","","1","[object Object]","166","4","1",""
"","do_trial","431","2749674","0.0-402.0-0.0","659","","","","51","0,1,0","6","blank","350","null","0.504194019833903","0.6403331261671313","0.18306885025140207","0","","","","","",""
"","do_recog","432","2751986","0.0-403.0-0.0","801.1999999955297","","","","56","","","","351","probe-141","","","","","1","[object Object]","123","3","1",""
"","do_trial","433","2756067","0.0-404.0-0.0","527","","","","49","1,0,0","6","blank","352","null","0.7531479690326881","0.5416927409755662","0.1206104823918111","1","","","","","",""
"","do_trial","434","2761325","0.0-405.0-0.0","1704.7000000029802","","","","50","1,1,0","6","blank","353","null","0.8538569590982963","0.39632371202915934","0.16337553821232872","1","","","","","",""
"","do_trial","435","2765665","0.0-406.0-0.0","781.3999999985099","","","","49","1,0,0","6","blank","354","null","0.8662448180790344","0.36385234142276973","0.09977663856675355","1","","","","","",""
"","do_trial","436","2770089","0.0-407.0-0.0","872.1000000014901","","","","51","1,1,0","6","blank","355","null","0.8749120426265841","0.47950544354149155","0.11263516194650457","0","","","","","",""
"","do_trial","437","2774167","0.0-408.0-0.0","522.6000000014901","","","","50","1,0,0","6","blank","356","null","0.8572670091228736","0.35564176518091695","0.23332180151762139","0","","","","","",""
"","do_recog","438","2776861","0.0-409.0-0.0","1183.8000000044703","","","","56","","","","357","probe-04","","","","","1","[object Object]","204","5","1",""
"","do_trial","439","2780959","0.0-410.0-0.0","542.7000000029802","","","","49","1,1,0","6","blank","358","null","0.9415648802753208","0.25531004451708134","0.20714738898092885","1","","","","","",""
"","do_trial","440","2785152","0.0-411.0-0.0","638.5","","","","50","1,1,0","6","blank","359","null","0.9233722230416932","0.39285985520643096","0.1982883323191279","1","","","","","",""
"","do_trial","441","2789290","0.0-412.0-0.0","585","","","","49","1,0,0","6","blank","360","null","0.9340931684546315","0.39109650433862037","0.13383304568669704","1","","","","","",""
"","do_trial","442","2793566","0.0-413.0-0.0","722","","","","50","1,1,0","6","blank","361","null","0.8948560993429188","0.3690726751797766","0.13750065900532132","1","","","","","",""
"","do_recog","443","2797012","0.0-414.0-0.0","1935.1000000014901","","","","54","","","","362","probe-144","","","","","1","[object Object]","160","4","0",""
"","do_trial","444","2801201","0.0-415.0-0.0","634.6999999955297","","","","49","1,0,0","6","blank","363","null","0.8225062130307409","0.26975999671775247","0.09479996999032494","1","","","","","",""
"","do_trial","445","2805453","0.0-416.0-0.0","694.8999999985099","","","","50","0,0,0","6","blank","364","null","0.8320285262133842","0.19901214318782423","0.05188006156947654","0","","","","","",""
"","do_trial","446","2809318","0.0-417.0-0.0","309.69999999552965","","","","49","1,0,0","6","blank","365","null","0.9217524890830445","0.20626067523189456","0.07409867892937542","1","","","","","",""
"","do_trial","447","2813854","0.0-418.0-0.0","979.7999999970198","","","","51","1,1,0","6","blank","366","null","0.8564424631147034","0.29668076536930427","0.2274544502198862","0","","","","","",""
"","do_recog","448","2816739","0.0-419.0-0.0","1372.5","","","","55","","","","367","probe-89","","","","","1","[object Object]","206","5","1",""
"","do_trial","449","2820936","0.0-420.0-0.0","644.0999999940395","","","","49","1,0,0","6","blank","368","null","0.931353625888338","0.32589472393520164","0.17755199563445417","1","","","","","",""
"","do_recog","450","2824047","0.0-421.0-0.0","1596.1000000014901","","","","54","","","","369","probe-252","","","","","0","[object Object]","null","null","1",""
"","do_trial","451","2828144","0.0-422.0-0.0","548.5","","","","49","1,0,0","6","blank","370","null","0.9128199587765188","0.32614909514315643","0.19837681676947697","1","","","","","",""
"","do_recog","452","2830554","0.0-423.0-0.0","896.7999999970198","","","","56","","","","371","probe-111","","","","","1","[object Object]","47","1","1",""
"","do_trial","453","2834762","0.0-424.0-0.0","653.6999999955297","","","","49","0,1,0","6","blank","372","null","0.8338403848762136","0.4193089902187681","0.2203676309398869","0","","","","","",""
"","do_recog","454","2837577","0.0-425.0-0.0","1305.8999999985099","","","","55","","","","373","probe-182","","","","","1","[object Object]","129","3","1",""
"","do_trial","455","2841716","0.0-426.0-0.0","590.2000000029802","","","","50","0,1,0","6","blank","374","null","0.7575590701966369","0.4346423660735575","0.327372133260953","1","","","","","",""
"","do_trial","456","2846488","0.0-427.0-0.0","1224.2000000029802","","","","51","1,1,0","6","blank","375","null","0.8453464819561959","0.41005600358241806","0.28287384245833963","0","","","","","",""
"","do_recog","457","2849686","0.0-428.0-0.0","1692.8999999985099","","","","55","","","","376","probe-47","","","","","1","[object Object]","45","1","1",""
"","do_trial","458","2853823","0.0-429.0-0.0","593.5999999940395","","","","49","1,1,0","6","blank","377","null","0.8640583500820879","0.21257855352909363","0.23704624119399995","1","","","","","",""
"","do_trial","459","2857882","0.0-430.0-0.0","512.3999999985099","","","","50","1,0,0","6","blank","378","null","1","0.15868707988886582","0.1761257412200678","0","","","","","",""
"","do_trial","460","2861841","0.0-431.0-0.0","407.5","","","","49","1,0,0","6","blank","379","null","0.9112973054235635","0.41163042295002444","0.27297499988124424","1","","","","","",""
"","do_trial","461","2866096","0.0-432.0-0.0","705.6000000014901","","","","51","1,0,0","6","blank","380","null","0.7981625021074605","0.5099537683547817","0.21626277989505732","0","","","","","",""
"","do_recog","462","2868690","0.0-433.0-0.0","1082.3999999985099","","","","55","","","","381","probe-185","","","","","1","[object Object]","83","2","1",""
"","do_trial","463","2872718","0.0-434.0-0.0","475.3999999985099","","","","49","1,0,0","6","blank","382","null","0.9405197918283038","0.3249480689623649","0.10950453871435549","1","","","","","",""
"","do_trial","464","2877065","0.0-435.0-0.0","793.8999999985099","","","","49","1,0,1","6","blank","383","null","0.9475846804843062","0.20331511013080447","0.11327136708525334","1","","","","","",""
"","do_trial","465","2881238","0.0-436.0-0.0","622.8999999985099","","","","49","1,0,0","6","blank","384","null","0.7597972471561966","0.1706998333841303","0.1519001596923261","1","","","","","",""
"","do_trial","466","2885516","0.0-437.0-0.0","726.5","","","","49","1,1,0","6","blank","385","null","0.7894385965838855","0.21105062762140436","0.11936936443944512","1","","","","","",""
"","do_trial","467","2889638","0.0-438.0-0.0","565.2000000029802","","","","49","0,0,0","6","blank","386","null","0.7006288342325274","0.27818461491148144","0.23880204650104545","0","","","","","",""
"","do_trial","468","2893675","0.0-439.0-0.0","483.8999999985099","","","","51","0,0,0","6","blank","387","null","0.7692464690187794","0.23545230619349633","0.07147315735652451","0","","","","","",""
"","do_recog","469","2896434","0.0-440.0-0.0","1250.7000000029802","","","","56","","","","388","probe-39","","","","","1","[object Object]","168","4","1",""
"","do_trial","470","2900390","0.0-441.0-0.0","405.70000000298023","","","","50","1,0,0","6","blank","389","null","0.9245066480010773","0.2168915051592436","0.17224575506672735","0","","","","","",""
"","do_trial","471","2904641","0.0-442.0-0.0","698.2999999970198","","","","50","1,1,1","6","blank","390","null","0.6253891094025289","0.6123859487361908","0.18703839896583152","1","","","","","",""
"","do_trial","472","2908735","0.0-443.0-0.0","539.3999999985099","","","","50","1,1,0","6","blank","391","null","0.40209255106048536","0.7098805557207273","0.12483977148850692","1","","","","","",""
"","do_trial","473","2912900","0.0-444.0-0.0","608.9000000059605","","","","49","1,1,0","6","blank","392","null","0.1976918302734105","0.8366447506964318","0.42592035744369483","1","","","","","",""
"","do_trial","474","2917092","0.0-445.0-0.0","636","","","","49","0,1,0","6","blank","393","null","0.14920944217499915","0.9343331731611408","0.3667059031939594","0","","","","","",""
"","do_recog","475","2920040","0.0-446.0-0.0","1436.8999999985099","","","","55","","","","394","probe-45","","","","","1","[object Object]","167","4","1",""
