"success","trial_type","trial_index","time_elapsed","internal_node_id","rt","stimulus","key_press","subject_id","response","choice_outcomes","context_n","context_img_id","trial_n","probe_img_id","pR_red","pR_white","pR_black","outcome","is_valid","image_to_show","probed_trial","probed_context","correct","context_id"
"true","fullscreen","0","31119","0.0-0.0","","","","","","","","","","","","","","","","","","","",""
"","pavlovia","1","31121","0.0-1.0","","","","","","","","","","","","","","","","","","","",""
"","html-keyboard-response","2","44442","0.0-2.0","13320.800000190735","<div class='center'><p>Welcome! This experiment will last ~1 hour. In this experiment, you are the head captain of a pirate ship traveling around the world to different places. You will complete several different tasks during this experiment. Here is an overview of these tasks:</p><br><p>1. Tutorial and quiz</p><p>2. Pick a pirate game in 6 different places</p><p>3. Pick a pirate game and memory game</p><p>4. Final questions and payment</p><br><p>If you complete the entire experiment, you will receive $15 and a possible bonus payment.</p><p><b>[Press the space bar to begin the tutorial]</b></p></div>","32","61326754c30ccc2f4312d482","","","","","","","","","","","","","","","",""
"","html-keyboard-response","3","54725","0.0-3.0","10282","<div class='center'><p>You are the head captain of a pirate ship.</p><p> Your pirates rob other ships as they leave the marketplace port.</p> These ships have just sold all their goods at the marketplace, so they have lots and lots of gold on them.</p><p><img src='run_exp/static/images/ship_center.png' height='400'></p><p><b>[Press the space bar to continue]</b></p></div>","32","","","","","","","","","","","","","","","","",""
"","html-keyboard-response","4","69945","0.0-4.0","15220","<div class='center'><p>As the head captain, you do not have to rob any ships yourself.</p><p>You get to choose which pirate you want to rob the next ship. </p><p>If they are successful at robbing the ship, then you will get gold coins.</p><p> If they are not successful, then you will get no gold coins.</p><p> The more coins you collect, the more bonus money you will win. So, choose your pirate wisely.</p><p><img src='run_exp/static/images/goal.png' height='400'></p><p><b>[Press the space bar to continue]</b></p><div>","32","","","","","","","","","","","","","","","","",""
"","html-keyboard-response","5","83904","0.0-5.0","13958.599999904633","<div class='center'><p>Even the most skilled pirate will not be able to rob EVERY ship.</p><p> Some ships will have very strong defenses against attacks.</p><p> For example, blue beard, here,  is very good at robbing ships.</p><p> You can press the <b>‘1’</b> button on the keyboard to choose him.</p><p> Try choosing him 10 times to see how often he is successful at robbing ships. </p><p><img src='run_exp/static/images/blue.png' height='500'></p></div>","49","","","","","","","","","","","","","","","","",""
"","html-keyboard-response","6","85419","0.0-6.0","null","<br><br><br><br><p><img src='run_exp/static/images/blue_win.png' height='500'></p>","null","","","","","","","","","","","","","","","","",""
"","html-keyboard-response","7","87091","0.0-7.0","1672","<br><br><br><br><p><img src='run_exp/static/images/blue.png' height='500'></p>","49","","","","","","","","","","","","","","","","",""
"","html-keyboard-response","8","88606","0.0-8.0","null","<br><br><br><br><p><img src='run_exp/static/images/blue_win.png' height='500'></p>","null","","","","","","","","","","","","","","","","",""
"","html-keyboard-response","9","89310","0.0-9.0","704.1999998092651","<br><br><br><br><p><img src='run_exp/static/images/blue.png' height='500'></p>","49","","","","","","","","","","","","","","","","",""
"","html-keyboard-response","10","90821","0.0-10.0","null","<br><br><br><br><p><img src='run_exp/static/images/blue_win.png' height='500'></p>","null","","","","","","","","","","","","","","","","",""
"","html-keyboard-response","11","91155","0.0-11.0","332.6000003814697","<br><br><br><br><p><img src='run_exp/static/images/blue.png' height='500'></p>","49","","","","","","","","","","","","","","","","",""
"","html-keyboard-response","12","92656","0.0-12.0","null","<br><br><br><br><p><img src='run_exp/static/images/blue_no_win.png' height='500'></p>","null","","","","","","","","","","","","","","","","",""
"","html-keyboard-response","13","92932","0.0-13.0","275.30000019073486","<br><br><br><br><p><img src='run_exp/static/images/blue.png' height='500'></p>","49","","","","","","","","","","","","","","","","",""
"","html-keyboard-response","14","94432","0.0-14.0","null","<br><br><br><br><p><img src='run_exp/static/images/blue_win.png' height='500'></p>","null","","","","","","","","","","","","","","","","",""
"","html-keyboard-response","15","94708","0.0-15.0","275","<br><br><br><br><p><img src='run_exp/static/images/blue.png' height='500'></p>","49","","","","","","","","","","","","","","","","",""
"","html-keyboard-response","16","96210","0.0-16.0","null","<br><br><br><br><p><img src='run_exp/static/images/blue_win.png' height='500'></p>","null","","","","","","","","","","","","","","","","",""
"","html-keyboard-response","17","96461","0.0-17.0","250.30000019073486","<br><br><br><br><p><img src='run_exp/static/images/blue.png' height='500'></p>","49","","","","","","","","","","","","","","","","",""
"","html-keyboard-response","18","97965","0.0-18.0","null","<br><br><br><br><p><img src='run_exp/static/images/blue_win.png' height='500'></p>","null","","","","","","","","","","","","","","","","",""
"","html-keyboard-response","19","98243","0.0-19.0","277.30000019073486","<br><br><br><br><p><img src='run_exp/static/images/blue.png' height='500'></p>","49","","","","","","","","","","","","","","","","",""
"","html-keyboard-response","20","99757","0.0-20.0","null","<br><br><br><br><p><img src='run_exp/static/images/blue_no_win.png' height='500'></p>","null","","","","","","","","","","","","","","","","",""
"","html-keyboard-response","21","100083","0.0-21.0","325.40000009536743","<br><br><br><br><p><img src='run_exp/static/images/blue.png' height='500'></p>","49","","","","","","","","","","","","","","","","",""
"","html-keyboard-response","22","101599","0.0-22.0","null","<br><br><br><br><p><img src='run_exp/static/images/blue_win.png' height='500'></p>","null","","","","","","","","","","","","","","","","",""
"","html-keyboard-response","23","101851","0.0-23.0","251.60000038146973","<br><br><br><br><p><img src='run_exp/static/images/blue.png' height='500'></p>","49","","","","","","","","","","","","","","","","",""
"","html-keyboard-response","24","103358","0.0-24.0","null","<br><br><br><br><p><img src='run_exp/static/images/blue_win.png' height='500'></p>","null","","","","","","","","","","","","","","","","",""
"","html-keyboard-response","25","105687","0.0-25.0","2328.2000002861023","<div class='center'><p> See, he was successful at robbing the ships most of the time but not every time. </p><p><b>[Press the space bar to continue]</b></p></div>","32","","","","","","","","","","","","","","","","",""
"","html-keyboard-response","26","110756","0.0-26.0","5069.099999904633","<div class='center'><p>In the game, you will get to choose which of three pirates you want to rob the next ship. <p>Press the <b>‘1’</b> button on your keyboard to pick the pirate with the red beard.</p><p> Press <b>‘2’</b> to pick the pirate with the white beard.</p><p> Press <b>‘3’</b> to pick the pirate with the black beard.</p><p>Try picking a pirate now!</p><p><img src='run_exp/static/images/all_pirates.png' height='500'></p></div>","50","","","","","","","","","","","","","","","","",""
"","html-keyboard-response","27","113838","0.0-27.0-0.0","3080.2000002861023","<div class='center'><p>This pirate was successful at robbing the ship!</p><p><img src='run_exp/static/images/white_win.png' height='500'></p><p><b>[Press the space bar to continue]</b></p></div>","32","","","","","","","","","","","","","","","","",""
"","html-keyboard-response","28","114923","0.0-27.0-1.0","1084.5","<div class='center'><p>Now try choosing another</p><p><img src='run_exp/static/images/all_pirates.png' height='500'></p></div>","49","","","","","","","","","","","","","","","","",""
"","html-keyboard-response","29","116253","0.0-28.0-0.0","1329.6999998092651","<div class='center'><p>This pirate was not successful at robbing the ship!</p><p><img src='run_exp/static/images/red_no_win.png' height='500'></p><p><b>[Press the space bar to continue]</b></p></div>","32","","","","","","","","","","","","","","","","",""
"","html-keyboard-response","30","120669","0.0-29.0-0.0","4415.799999713898","<div class='center'><p>You’ll stop at these 6 places on your journey.</p><p><img src='run_exp/static/images/all_contexts.png' height='500'></p><p><b>[Press the space bar to continue]</b></p></div>","32","","","","","","","","","","","","","","","","",""
"","html-keyboard-response","31","133592","0.0-29.0-1.0","12922","<div class='center'><p>How good a pirate is at robbing ships will depend on the current place.</p><p> Some pirates will have been to the place before, and will have more experience robbing ships there.</p><p>So, they will be more successful at stealing gold and bringing it back to you.</p><p><b>[Press the space bar to continue]</b></p></div>","32","","","","","","","","","","","","","","","","",""
"","html-keyboard-response","32","149318","0.0-29.0-2.0","15725.400000095367","<div class='center'><p>How successful a pirate is at robbing ships can also change in a place.<p> Ships may hear about the pirates coming and will improve their defenses. This may make it more difficult to rob them.</p><p> Ships may also grow lazy and lower their defenses. This may make it easier to rob them.</p><br><p>Things are always changing on the high seas! So, try your best to pay attention!</p><p><img src='run_exp/static/images/contingency.png' height='500'></p><p><b>[Press the space bar to continue]</b></p></div>","32","","","","","","","","","","","","","","","","",""
"","html-keyboard-response","33","193092","0.0-29.0-3.0","43773.5","<div class='center'><p>Once you choose a pirate to rob a ship, you’ll be shown the ship they are robbing.</p><p>The ship will have a picture of the item they sold at the marketplace.</p><p> Try your best to remember the ship and where you saw the ship.</p><p> You’ll have to remember this for later, and remembering this correctly will help you win more bonus money!</p><p>You can remember the ship by remembering the item they sold at the marketplace</p><p>A helpful strategy is to try to come up with a story of the chosen pirate and ship’s item interacting with the scene.</p><p> For example, a ship might have sold travel mugs and you could imagine red beard walking through the city with a travel mug. </p><p>Or imagine an apple falling from a tree into white beard's hands in the forest.</p><p><img src='run_exp/static/images/example_probe.png' height='500'></p><p><b>[Press the space bar to continue]</b></p></div>","32","","","","","","","","","","","","","","","","",""
"","html-keyboard-response","34","202902","0.0-29.0-4.0","9809.099999904633","<div class='center'><p>If you don’t make your choice fast enough, you’ll have to wait a few seconds before you can make another one. </p><p>You can’t win more gold. You just have to sit and wait.</p><p><img src='run_exp/static/images/hurry_up.png' height='500'></p><p><b>[Press the space bar to continue]</b></p></div>","32","","","","","","","","","","","","","","","","",""
"","html-keyboard-response","35","252405","0.0-29.0-5.0","49502.59999990463","<div class='center'><p>Again, you have two important things to do: </p><b><p> 1. Pick the pirate who you think will be most successful at robbing the next ship.</p></b><b><p> 2. Remember where a pirate robbed a ship.</p> </b><p>Both are important in determining how much bonus money you’ll win.</p><br><p>Let’s try a practice game. The game will start by showing you the pirates. First pick a pirate using the <b> 1, 2, 3 </b> buttons on your keyboard. When you are shown a ship, try to remember the place you’re in by making up a story.</p><p> You only have 3 seconds to pick a pirate, so please make a choice quickly! If you are too slow, you’ll have to wait a bit during the time out.</p><p> Don’t feel rushed, but please do try to make a choice every time.</p><p>How good a pirate is at robbing a ship will change depending on the place they are in and how good the defenses are of the ship.</p> <p>This is just a practice game, so you’re not playing for money. </p><p>You’ll receive a bag which may or may not contain gold coins.</p><p> In the real game, though, you’ll be able to see whether or not you received the gold coins.</p><p> Good luck, remember press <b>'1'</b> to choose red beard, <b>'2'</b> to choose white beard, and <b>'3'</b> to choose black beard</p><p><b>[Press the space bar to begin the practice game]</b></p></div>","32","","","","","","","","","","","","","","","","",""
"","do_trial_prac","36","259027","0.0-29.0-6.0","2107.800000190735","","","","49","","","","","","","","","","","","","","",""
"","do_trial_prac","37","265709","0.0-29.0-7.0","2171.4000000953674","","","","49","","","","","","","","","","","","","","",""
"","do_trial_prac","38","271951","0.0-29.0-8.0","1728.7999997138977","","","","49","","","","","","","","","","","","","","",""
"","do_trial_prac","39","278744","0.0-29.0-9.0","2288.800000190735","","","","51","","","","","","","","","","","","","","",""
"","do_trial_prac","40","284043","0.0-29.0-10.0","790.6000003814697","","","","50","","","","","","","","","","","","","","",""
"","html-keyboard-response","41","292462","0.0-29.0-11.0","8418.699999809265","<div class='center'><p>Great job on the practice game!</p><p> Now, you will be asked you some true or false questions to make sure you really understand the rules of the game.</p><p> Press <b>'1'</b> on the keyboard for true and press <b>'2'</b> for false.</p><p><b>[Press the space bar to begin the quiz]</b></p></div>","32","","","","","","","","","","","","","","","","",""
"","html-keyboard-response","42","298018","0.0-29.0-12.0","5555.199999809265","<div class='center'><p>You win bonus money by making choices as fast as possible.</p><p>Press 1 for true and press  2 for false.</p></div>","50","","","","","","","","","","","","","","","","",""
"","html-keyboard-response","43","299284","0.0-30.0-0.0","1265.5","<br><br><br><br><p>That's correct!</p> <p><b>[press the space bar to continue with the quiz]</b></p>","32","","","","","","","","","","","","","","","","",""
"","html-keyboard-response","44","305285","0.0-30.0-1.0","6000.300000190735","<div class='center'><p>You press the <b>‘3’</b> button on the keyboard to choose the red bearded pirate? </p><p>Press 1 for true and press  2 for false.</p></div>","50","","","","","","","","","","","","","","","","",""
"","html-keyboard-response","45","306414","0.0-31.0-0.0","1128.5","<br><br><br><br><p>That's correct!</p> <p><b>[press the space bar to continue with the quiz]</b></p>","32","","","","","","","","","","","","","","","","",""
"","html-keyboard-response","46","309770","0.0-31.0-1.0","3355.9000000953674","<div class='center'><p>A pirate will always be equally successful at robbing ships in each place</p><p>Press 1 for true and press  2 for false.</p></div>","50","","","","","","","","","","","","","","","","",""
"","html-keyboard-response","47","310667","0.0-32.0-0.0","896.4000000953674","<br><br><br><br><p>That's correct!</p> <p><b>[press the space bar to continue with the quiz]</b></p>","32","","","","","","","","","","","","","","","","",""
"","html-keyboard-response","48","312909","0.0-32.0-1.0","2242.5","<div class='center'><p>You should remember the place where a pirate robbed a ship.</p><p>Press 1 for true and press  2 for false.</p></div>","49","","","","","","","","","","","","","","","","",""
"","html-keyboard-response","49","313713","0.0-33.0-0.0","798.3000001907349","<br><br><br><br><p>That's correct!</p> <p><b>[press the space bar to continue with the quiz]</b></p>","32","","","","","","","","","","","","","","","","",""
"","html-keyboard-response","50","315521","0.0-34.0-0.0","1800.5","<br><br><br><br><p>Good job! You’re now ready to move on to the real game!</p> <p><br>[press the space bar to begin!]</br></p>","32","","","","","","","","","","","","","","","","",""
"","do_welcome","51","317031","0.0-35.0-0.0","null","","","","null","","","","","","","","","","","","","","",""
"","do_trial","52","324616","0.0-36.0-0.0","2041.2999997138977","","","","49","1,1,0","0","coast","0","probe-146","1","0.4","0.1","1","","","","","",""
"","do_trial","53","332001","0.0-37.0-0.0","1833.3999996185303","","","","50","1,1,0","0","coast","1","probe-23","1","0.4722884868197598","0.2173425309637274","1","","","","","",""
"","do_trial","54","338056","0.0-38.0-0.0","null","","","","null","1,1,0","0","coast","2","probe-167","1","0.5158913324005971","0.3172415138355401","","","","","","",""
"","do_trial","55","344556","0.0-39.0-0.0","964.5","","","","51","1,1,0","0","coast","3","probe-228","1","0.48787449789220155","0.24654790368113025","0","","","","","",""
"","do_trial","56","351553","0.0-40.0-0.0","1451.5999999046326","","","","50","0,0,0","0","coast","4","probe-139","0.8649825021300018","0.43196516446210065","0.11482306772315941","0","","","","","",""
"","do_trial","57","357597","0.0-41.0-0.0","508.40000009536743","","","","49","1,1,0","0","coast","5","probe-217","0.6394458347295647","0.458727327838611","0.07369357950477294","1","","","","","",""
"","do_trial","58","364126","0.0-42.0-0.0","994.5999999046326","","","","51","1,0,0","0","coast","6","probe-164","0.8007890503917743","0.4633504955559415","0.11354151487163218","0","","","","","",""
"","do_trial","59","370507","0.0-43.0-0.0","829.4000000953674","","","","50","0,0,0","0","coast","7","probe-81","0.6739096474970739","0.5270197501096365","0.09154961519398036","0","","","","","",""
"","do_trial","60","376355","0.0-44.0-0.0","308.59999990463257","","","","49","1,0,0","0","coast","8","probe-207","0.7865139381633327","0.3779173983147895","0.05047180536436558","1","","","","","",""
"","do_trial","61","383441","0.0-45.0-0.0","1548.5","","","","50","1,0,0","0","coast","9","probe-13","0.8237279450731402","0.4843963074883199","0.23283063655862501","0","","","","","",""
"","do_trial","62","389389","0.0-46.0-0.0","413","","","","51","1,1,0","0","coast","10","probe-144","0.6406887919945398","0.5755288734064473","0.14131035562587854","0","","","","","",""
"","do_trial","63","395192","0.0-47.0-0.0","262.5","","","","49","1,1,1","0","coast","11","probe-192","0.5887380413005879","0.6397519276546706","0.1315808782689394","1","","","","","",""
"","do_trial","64","401067","0.0-48.0-0.0","329.90000009536743","","","","50","0,1,0","0","coast","12","probe-108","0.52373135915133","0.741940103991887","0.11655530052023219","1","","","","","",""
"","do_trial","65","406892","0.0-49.0-0.0","289.90000009536743","","","","51","0,1,0","0","coast","13","probe-66","0.4385505594306964","0.5969795999905618","0.08927812415820896","0","","","","","",""
"","do_trial","66","413099","0.0-50.0-0.0","664.7000002861023","","","","49","0,1,0","0","coast","14","probe-148","0.32524034991454087","0.7103649509825752","0.13199284302677478","0","","","","","",""
"","do_trial","67","418945","0.0-51.0-0.0","303.09999990463257","","","","50","1,1,0","0","coast","15","probe-191","0.3100560937738413","0.9365676059149323","0.12716641378812618","1","","","","","",""
"","do_trial","68","424848","0.0-52.0-0.0","368.5","","","","51","1,0,0","0","coast","16","probe-118","0.35329724612667934","0.8079032439163861","0.07828724285320403","0","","","","","",""
"","do_trial","69","430632","0.0-53.0-0.0","248.40000009536743","","","","49","0,1,0","0","coast","17","probe-47","0.21400999491219036","0.8682095961353238","0.08549199158256104","0","","","","","",""
"","do_trial","70","436998","0.0-54.0-0.0","832.3999996185303","","","","50","1,1,0","0","coast","18","probe-238","0.3015110040440013","0.8277932643464742","0.12651622490092382","1","","","","","",""
"","do_trial","71","442892","0.0-55.0-0.0","346.90000009536743","","","","51","0,1,0","0","coast","19","probe-05","0.32199900938236087","0.9300023776771029","0.23821227372897816","0","","","","","",""
"","do_trial","72","449678","0.0-56.0-0.0","1241.0999999046326","","","","49","1,1,0","0","coast","20","probe-194","0.44744197469319974","0.9212716268831221","0.0857625960266013","1","","","","","",""
"","do_trial","73","456054","0.0-57.0-0.0","841.6000003814697","","","","50","0,1,0","0","coast","21","probe-90","0.6036135722690505","0.9318306309633465","0.05357490111743959","1","","","","","",""
"","do_trial","74","462576","0.0-58.0-0.0","981.7999997138977","","","","51","1,1,0","0","coast","22","probe-160","0.6019340917469972","0.8265471872713377","0.0776978393760869","0","","","","","",""
"","do_trial","75","468473","0.0-59.0-0.0","360.30000019073486","","","","49","1,1,1","0","coast","23","probe-74","0.5518289088024505","0.6914154360712516","0.09588803120177965","1","","","","","",""
"","do_trial","76","474649","0.0-60.0-0.0","642.9000000953674","","","","50","0,1,0","0","coast","24","probe-18","0.5590157728279114","0.7468949501291269","0.08820402248527101","1","","","","","",""
"","do_trial","77","480789","0.0-61.0-0.0","594.7000002861023","","","","51","1,1,0","0","coast","25","probe-43","0.6226819788604309","0.7690544576953859","0.17401334911000318","0","","","","","",""
"","do_trial","78","486545","0.0-62.0-0.0","219.90000009536743","","","","50","0,0,0","0","coast","26","probe-72","0.546522578600572","0.7678449828784626","0.06350744410960468","0","","","","","",""
"","do_trial","79","492388","0.0-63.0-0.0","310.09999990463257","","","","49","0,1,0","0","coast","27","probe-46","0.6979716832860249","0.6519768284460048","0.07025009711021997","0","","","","","",""
"","do_trial","80","499176","0.0-64.0-0.0","1252.5","","","","49","0,1,0","0","coast","28","probe-219","0.7170641199158839","0.5308573609661434","0.0540783908090536","0","","","","","",""
"","do_trial","81","505015","0.0-65.0-0.0","293.90000009536743","","","","50","1,0,0","0","coast","29","probe-45","0.5702611376164907","0.6034298055672672","0.05595775057791579","0","","","","","",""
"","do_trial","82","510787","0.0-66.0-0.0","238.2000002861023","","","","51","1,1,0","0","coast","30","probe-42","0.6870570677937716","0.7444165565618154","0.05000693910428147","0","","","","","",""
"","do_trial","83","516533","0.0-67.0-0.0","203","","","","51","1,0,0","0","coast","31","probe-09","0.7178303201610075","0.7009046147947887","0.05601354059603395","0","","","","","",""
"","do_trial","84","523039","0.0-68.0-0.0","971.7000002861023","","","","50","0,1,0","0","coast","32","probe-123","0.5714856007794424","0.8001983970172912","0.09240423104784365","1","","","","","",""
"","do_trial","85","528801","0.0-69.0-0.0","221.80000019073486","","","","49","1,1,0","0","coast","33","probe-224","0.44995774011362083","0.7968620878142164","0.17929121056025685","1","","","","","",""
"","do_trial","86","534914","0.0-70.0-0.0","582.0999999046326","","","","50","1,1,0","0","coast","34","probe-34","0.45577328235736025","0.9044538832036304","0.05558490720408349","1","","","","","",""
"","do_trial","87","540752","0.0-71.0-0.0","299.40000009536743","","","","51","1,1,0","0","coast","35","probe-37","0.5216503874415622","0.8775188261994378","0.1250061824407498","0","","","","","",""
"","do_trial","88","546564","0.0-72.0-0.0","273.30000019073486","","","","49","1,0,0","0","coast","36","probe-158","0.40224437387522344","0.7190447426688844","0.09029491077663407","1","","","","","",""
"","do_trial","89","552323","0.0-73.0-0.0","215.5","","","","50","0,1,0","0","coast","37","probe-111","0.35649239228721463","0.7656585397275373","0.05892530486649452","1","","","","","",""
"","do_trial","90","558051","0.0-74.0-0.0","194","","","","49","0,1,0","0","coast","38","probe-75","0.3844499350156298","0.7605732593466141","0.08827845284894015","0","","","","","",""
"","do_trial","91","564009","0.0-75.0-0.0","425","","","","51","1,1,0","0","coast","39","probe-36","0.5516711249350809","0.8107932994882537","0.18743128793221023","0","","","","","",""
"","do_bye","92","565520","0.0-76.0-0.0","null","","","","null","","","","","","","","","","","","","","",""
"","do_travel","93","571531","0.0-77.0-0.0","null","","","","null","","","","","","","","","","","","","","",""
"","do_welcome","94","573035","0.0-77.0-1.0","null","","","","null","","","","","","","","","","","","","","",""
"","do_trial","95","579775","0.0-78.0-0.0","1191.5","","","","50","0,1,0","1","city","40","probe-32","0.6532314058303242","1","0.09145559813231578","1","","","","","",""
"","do_trial","96","586893","0.0-79.0-0.0","1578.5","","","","49","0,1,0","1","city","41","probe-234","0.5878525766411131","1","0.056853921631352","0","","","","","",""
"","do_trial","97","592720","0.0-80.0-0.0","283.7000002861023","","","","49","1,1,0","1","city","42","probe-15","0.6001492458366741","1","0.06690299884057534","1","","","","","",""
"","do_trial","98","598484","0.0-81.0-0.0","218","","","","50","1,1,0","1","city","43","probe-211","0.48022697066645204","1","0.05421357888944459","1","","","","","",""
"","do_trial","99","604324","0.0-82.0-0.0","304.40000009536743","","","","51","0,1,0","1","city","44","probe-230","0.3892858739116143","0.8582453039468032","0.07615535498711518","0","","","","","",""
"","do_trial","100","610191","0.0-83.0-0.0","322.59999990463257","","","","49","1,1,0","1","city","45","probe-83","0.33751283059336024","0.8639097511831922","0.1099578463394878","1","","","","","",""
"","do_trial","101","616006","0.0-84.0-0.0","269.59999990463257","","","","50","0,1,0","1","city","46","probe-58","0.27083549273798896","0.805487653656883","0.1379454670441965","1","","","","","",""
"","do_trial","102","621935","0.0-85.0-0.0","392","","","","51","1,1,0","1","city","47","probe-60","0.26154666169054747","0.6800342966554405","0.1106086949676925","0","","","","","",""
"","do_trial","103","627721","0.0-86.0-0.0","246.40000009536743","","","","49","0,1,0","1","city","48","probe-56","0.23541424185395005","0.8221107685961863","0.09512675567124274","0","","","","","",""
"","do_trial","104","633419","0.0-87.0-0.0","165.69999980926514","","","","50","0,1,0","1","city","49","probe-53","0.33453554378329003","0.8133111061057603","0.05523590922071692","1","","","","","",""
"","do_trial","105","639171","0.0-88.0-0.0","207.69999980926514","","","","51","0,1,0","1","city","50","probe-173","0.30301925005963026","0.6537206487228729","0.40991786989072665","0","","","","","",""
"","do_trial","106","644936","0.0-89.0-0.0","223.30000019073486","","","","50","1,1,1","1","city","51","probe-176","0.30138201251876673","0.4126139647601362","0.5966803122391414","1","","","","","",""
"","do_trial","107","650718","0.0-90.0-0.0","242","","","","49","0,1,0","1","city","52","probe-39","0.26932156891381487","0.30656524717402533","0.6415801117409324","0","","","","","",""
"","do_trial","108","656592","0.0-91.0-0.0","330.40000009536743","","","","49","0,0,1","1","city","53","probe-50","0.31684180620412655","0.2992579765053373","0.6721702710217282","0","","","","","",""
"","do_trial","109","662323","0.0-92.0-0.0","196.30000019073486","","","","50","1,1,1","1","city","54","probe-08","0.2706167068538798","0.4423309443807784","0.7998132465709651","1","","","","","",""
"","do_trial","110","668070","0.0-93.0-0.0","215","","","","51","1,0,0","1","city","55","probe-159","0.21581750651405845","0.34722986957779656","0.6515117867361846","0","","","","","",""
"","do_trial","111","673820","0.0-94.0-0.0","217","","","","50","0,1,1","1","city","56","probe-214","0.10699605776913967","0.37126449815846424","0.7754020489299256","1","","","","","",""
"","do_trial","112","679585","0.0-95.0-0.0","221.5","","","","49","0,1,0","1","city","57","probe-12","0.08135583421619465","0.2753445517559072","0.581757117882858","0","","","","","",""
"","do_trial","113","685299","0.0-96.0-0.0","176.80000019073486","","","","49","0,0,1","1","city","58","probe-126","0.21761438773174047","0.41313223583045017","0.638886421369359","0","","","","","",""
"","do_trial","114","691101","0.0-97.0-0.0","257.19999980926514","","","","50","0,1,0","1","city","59","probe-65","0.08105399526372145","0.4903650457865591","0.6176348690303037","1","","","","","",""
"","do_trial","115","696891","0.0-98.0-0.0","245.19999980926514","","","","51","0,1,1","1","city","60","probe-30","0.061547766954379836","0.3942236674962464","0.7392922750017157","1","","","","","",""
"","do_trial","116","702787","0.0-99.0-0.0","352.5","","","","50","0,0,1","1","city","61","probe-180","0.15805041707101686","0.3067472639112567","0.9469777996515879","0","","","","","",""
"","do_trial","117","708600","0.0-100.0-0.0","271.5","","","","49","0,0,0","1","city","62","probe-97","0.11258573736847798","0.2649650625418942","0.852092541254028","0","","","","","",""
"","do_trial","118","714368","0.0-101.0-0.0","230.89999961853027","","","","50","0,1,1","1","city","63","probe-99","0.06374835338431799","0.49155877786463587","0.9178801447413697","1","","","","","",""
"","do_trial","119","720372","0.0-102.0-0.0","462.09999990463257","","","","51","0,1,1","1","city","64","probe-17","0.06984854095709517","0.36071937106057356","0.7983992848777163","1","","","","","",""
"","do_trial","120","726628","0.0-103.0-0.0","722.2999997138977","","","","49","0,0,1","1","city","65","probe-119","0.1920048116666089","0.3865633241727607","0.830985437050902","0","","","","","",""
"","do_trial","121","732298","0.0-104.0-0.0","129.40000009536743","","","","50","1,0,1","1","city","66","probe-61","0.1475806619759041","0.297368819543091","0.8156646211109407","0","","","","","",""
"","do_trial","122","738034","0.0-105.0-0.0","200.80000019073486","","","","49","0,0,1","1","city","67","probe-165","0.18361226500669237","0.41605018410161776","0.8988467536841763","0","","","","","",""
"","do_trial","123","743647","0.0-106.0-0.0","78.5","","","","50","0,1,1","1","city","68","probe-71","0.28201695613354416","0.43368077836583824","0.8724018503245488","1","","","","","",""
"","do_trial","124","749421","0.0-107.0-0.0","241.59999990463257","","","","51","1,0,1","1","city","69","probe-205","0.2969672476164672","0.3685618185050029","0.8340023606166703","1","","","","","",""
"","do_trial","125","755154","0.0-108.0-0.0","200.59999990463257","","","","49","0,1,1","1","city","70","probe-84","0.14676759400033926","0.3250726611625221","0.8360130264678205","0","","","","","",""
"","do_trial","126","760905","0.0-109.0-0.0","212.39999961853027","","","","50","0,0,1","1","city","71","probe-67","0.23150127762964268","0.4366657350170526","0.7800642436854764","0","","","","","",""
"","do_trial","127","766718","0.0-110.0-0.0","274.7999997138977","","","","49","0,0,0","1","city","72","probe-168","0.19097583692474537","0.4321828017222804","0.8131351299683505","0","","","","","",""
"","do_trial","128","772476","0.0-111.0-0.0","216.09999990463257","","","","50","0,1,1","1","city","73","probe-129","0.16974546311159713","0.2796018287120847","0.7502459919747603","1","","","","","",""
"","do_trial","129","779564","0.0-112.0-0.0","1550.5999999046326","","","","51","0,0,1","1","city","74","probe-114","0.09525603659856109","0.3612558231592388","0.8605421957038729","1","","","","","",""
"","do_trial","130","785360","0.0-113.0-0.0","253.30000019073486","","","","49","0,1,1","1","city","75","probe-52","0.1182612860540786","0.36590857651799097","0.7042185289536441","0","","","","","",""
"","do_trial","131","791160","0.0-114.0-0.0","253","","","","50","0,0,1","1","city","76","probe-235","0.05441662320467771","0.35900051095310004","0.8777257698090856","0","","","","","",""
"","do_trial","132","796959","0.0-115.0-0.0","259.09999990463257","","","","49","0,0,1","1","city","77","probe-102","0.05730836736220507","0.4821222963139389","0.845227618799044","0","","","","","",""
"","do_trial","133","802724","0.0-116.0-0.0","224.7999997138977","","","","51","0,0,1","1","city","78","probe-134","0.07363865497662965","0.269188877372727","0.853661993481285","1","","","","","",""
"","do_trial","134","808539","0.0-117.0-0.0","272","","","","50","0,1,1","1","city","79","probe-240","0.16877793066781657","0.2899392810090907","0.939230083178991","1","","","","","",""
"","do_bye","135","810048","0.0-118.0-0.0","null","","","","null","","","","","","","","","","","","","","",""
"","do_travel","136","816050","0.0-119.0-0.0","null","","","","null","","","","","","","","","","","","","","",""
"","do_welcome","137","817557","0.0-119.0-1.0","null","","","","null","","","","","","","","","","","","","","",""
"","do_trial","138","824732","0.0-120.0-0.0","1632.9000000953674","","","","49","0,1,1","2","mountain","80","probe-154","0.21916453648573309","0.23568856469890975","1","0","","","","","",""
"","do_trial","139","831376","0.0-121.0-0.0","1099","","","","50","0,0,1","2","mountain","81","probe-22","0.29880225373833874","0.2619870600357547","1","0","","","","","",""
"","do_trial","140","837383","0.0-122.0-0.0","470.59999990463257","","","","51","1,0,1","2","mountain","82","probe-177","0.2959536189791097","0.3420776594970797","1","1","","","","","",""
"","do_trial","141","843261","0.0-123.0-0.0","336.40000009536743","","","","49","0,0,1","2","mountain","83","probe-155","0.2980399054944465","0.385713947248385","1","0","","","","","",""
"","do_trial","142","849085","0.0-124.0-0.0","276.69999980926514","","","","50","1,0,1","2","mountain","84","probe-95","0.2675690072133355","0.4651047794688518","0.7834557322735353","0","","","","","",""
"","do_trial","143","854793","0.0-125.0-0.0","172.7000002861023","","","","51","0,1,1","2","mountain","85","probe-113","0.13411012166165298","0.5389423440701013","0.713644822708623","1","","","","","",""
"","do_trial","144","860809","0.0-126.0-0.0","479","","","","50","0,1,0","2","mountain","86","probe-236","0.11823530618171614","0.7167076700929101","0.6987301749380543","1","","","","","",""
"","do_trial","145","866632","0.0-127.0-0.0","285.30000019073486","","","","51","1,1,1","2","mountain","87","probe-01","0.19838208027700296","0.5402464618156113","0.6915434605956297","1","","","","","",""
"","do_trial","146","872442","0.0-128.0-0.0","268.80000019073486","","","","50","1,1,1","2","mountain","88","probe-79","0.16191636171160118","0.518767345552122","0.8900261444868063","1","","","","","",""
"","do_trial","147","878184","0.0-129.0-0.0","196.7999997138977","","","","49","0,0,1","2","mountain","89","probe-16","0.10910312899084669","0.3916631227349543","0.8959976257241163","0","","","","","",""
"","do_trial","148","883956","0.0-130.0-0.0","239.2000002861023","","","","50","0,0,1","2","mountain","90","probe-213","0.11341330418958535","0.5830838312976037","0.6717894341634929","0","","","","","",""
"","do_trial","149","889573","0.0-131.0-0.0","71.69999980926514","","","","49","0,1,0","2","mountain","91","probe-33","0.1494579734915433","0.7110150749861991","0.5541541679849019","0","","","","","",""
"","do_trial","150","895114","0.0-132.0-0.0","0.09999990463256836","","","","50","0,1,1","2","mountain","92","probe-135","0.07395634629984034","0.7957802213530303","0.5814438724039777","1","","","","","",""
"","do_trial","151","901002","0.0-133.0-0.0","343.59999990463257","","","","51","1,0,0","2","mountain","93","probe-55","0.07501715317932657","0.7617139779054805","0.4987427955380684","0","","","","","",""
"","do_trial","152","906881","0.0-134.0-0.0","340.7000002861023","","","","50","0,1,0","2","mountain","94","probe-82","0.09697600766590644","0.7370849225927224","0.38261846810208094","1","","","","","",""
"","do_trial","153","912649","0.0-135.0-0.0","236.19999980926514","","","","49","0,1,0","2","mountain","95","probe-229","0.056584230336361195","0.8667460446529455","0.2941678813743201","0","","","","","",""
"","do_trial","154","918214","0.0-136.0-0.0","19.100000381469727","","","","50","0,1,0","2","mountain","96","probe-68","0.09258924829997078","0.9265190257725507","0.29229174360486637","1","","","","","",""
"","do_trial","155","924069","0.0-137.0-0.0","323.5","","","","49","0,1,0","2","mountain","97","probe-227","0.09536901372618697","0.8133019748399395","0.3296336090216604","0","","","","","",""
"","do_trial","156","929762","0.0-138.0-0.0","148.2000002861023","","","","50","0,1,1","2","mountain","98","probe-179","0.06510164765765558","0.8822757170223595","0.48062937781457826","1","","","","","",""
"","do_trial","157","935586","0.0-139.0-0.0","278.90000009536743","","","","51","0,1,0","2","mountain","99","probe-232","0.064455266301114","0.8522627729103062","0.45846678007667585","0","","","","","",""
"","do_trial","158","941640","0.0-140.0-0.0","518.1999998092651","","","","50","0,1,0","2","mountain","100","probe-40","0.05507892218859347","0.9337086281976305","0.37050199441805004","1","","","","","",""
"","do_trial","159","947797","0.0-141.0-0.0","614.5","","","","49","1,1,0","2","mountain","101","probe-131","0.12664592819931422","0.9246061873535587","0.4003485394655962","1","","","","","",""
"","do_trial","160","953885","0.0-142.0-0.0","542.8000001907349","","","","51","0,1,0","2","mountain","102","probe-209","0.23564940453598218","0.8316103977635595","0.390915865469497","0","","","","","",""
"","do_trial","161","959648","0.0-143.0-0.0","224.2999997138977","","","","51","0,1,0","2","mountain","103","probe-193","0.3118392783798369","0.9295234630236381","0.38444799125362566","0","","","","","",""
"","do_trial","162","965428","0.0-144.0-0.0","248","","","","51","0,1,1","2","mountain","104","probe-222","0.1490199036505366","0.8022076918303667","0.5054136753965064","1","","","","","",""
"","do_trial","163","972456","0.0-145.0-0.0","1495.7999997138977","","","","49","0,1,0","2","mountain","105","probe-91","0.14465251020758924","0.9134977552975337","0.3505921317826217","0","","","","","",""
"","do_trial","164","977989","0.0-146.0-0.0","0.09999990463256836","","","","49","0,0,0","2","mountain","106","probe-221","0.20660872713945122","0.8853752833084372","0.4177522755922133","0","","","","","",""
"","do_trial","165","983566","0.0-147.0-0.0","45.40000009536743","","","","49","0,0,0","2","mountain","107","probe-88","0.23536027461962414","0.7255011857724809","0.3777702267857839","0","","","","","",""
"","do_trial","166","989141","0.0-148.0-0.0","31.800000190734863","","","","50","1,1,0","2","mountain","108","probe-80","0.1914828990750296","0.5970715816320297","0.34559065902770963","1","","","","","",""
"","do_trial","167","995363","0.0-149.0-0.0","675.8000001907349","","","","50","0,1,1","2","mountain","109","probe-171","0.24448137804725328","0.7673792216919516","0.3117688922913084","1","","","","","",""
"","do_trial","168","1001182","0.0-150.0-0.0","281.2000002861023","","","","49","1,1,0","2","mountain","110","probe-206","0.1934512601483148","0.7336342159802887","0.31248544766567216","1","","","","","",""
"","do_trial","169","1006997","0.0-151.0-0.0","281.19999980926514","","","","49","0,1,0","2","mountain","111","probe-137","0.07496884377734014","0.724767317029041","0.48749207700565955","0","","","","","",""
"","do_trial","170","1012774","0.0-152.0-0.0","239.30000019073486","","","","51","0,1,1","2","mountain","112","probe-44","0.0715651343217209","0.8932226141387414","0.5171866334775347","1","","","","","",""
"","do_trial","171","1019095","0.0-153.0-0.0","780.4000000953674","","","","51","0,1,0","2","mountain","113","probe-200","0.08151208834322046","0.8584581951468023","0.4328240295974209","0","","","","","",""
"","do_trial","172","1024895","0.0-154.0-0.0","257.09999990463257","","","","51","0,1,1","2","mountain","114","probe-125","0.2552153725364019","0.8533770653161753","0.3822638153740306","1","","","","","",""
"","do_trial","173","1030921","0.0-155.0-0.0","491.80000019073486","","","","51","0,1,1","2","mountain","115","probe-161","0.28613914775187005","0.7863624672321536","0.5285243587487398","1","","","","","",""
"","do_trial","174","1036775","0.0-156.0-0.0","313.69999980926514","","","","49","0,0,0","2","mountain","116","probe-27","0.1906543741167415","0.7521955044241367","0.4580836423186749","0","","","","","",""
"","do_trial","175","1042598","0.0-157.0-0.0","276.90000009536743","","","","49","0,0,1","2","mountain","117","probe-216","0.07932142062443472","0.8265183691916438","0.43662725836514005","0","","","","","",""
"","do_trial","176","1048382","0.0-158.0-0.0","238","","","","49","0,1,1","2","mountain","118","probe-38","0.1570138436168464","0.8321986987325926","0.412396918960295","0","","","","","",""
"","do_trial","177","1054101","0.0-159.0-0.0","180.30000019073486","","","","49","0,1,0","2","mountain","119","probe-48","0.08883034612537631","0.9260254817359065","0.4101524369962429","0","","","","","",""
"","do_bye","178","1055609","0.0-160.0-0.0","null","","","","null","","","","","","","","","","","","","","",""
"","do_travel","179","1061620","0.0-161.0-0.0","null","","","","null","","","","","","","","","","","","","","",""
"","do_welcome","180","1063127","0.0-161.0-1.0","null","","","","null","","","","","","","","","","","","","","",""
"","do_trial","181","1070450","0.0-162.0-0.0","1785.6999998092651","","","","49","0,1,0","3","forest","120","probe-130","0.08388033885470048","1","0.4594233524727451","0","","","","","",""
"","do_trial","182","1077695","0.0-163.0-0.0","1700.1999998092651","","","","50","0,1,0","3","forest","121","probe-94","0.1059485104176124","1","0.4528514169595488","1","","","","","",""
"","do_trial","183","1083999","0.0-164.0-0.0","764.7000002861023","","","","50","1,1,1","3","forest","122","probe-54","0.08639928532086211","1","0.436024968991309","1","","","","","",""
"","do_trial","184","1090188","0.0-165.0-0.0","647.5999999046326","","","","51","0,1,0","3","forest","123","probe-117","0.08282067543607881","1","0.5297654286719964","0","","","","","",""
"","do_trial","185","1098045","0.0-166.0-0.0","2320.4000000953674","","","","49","0,1,0","3","forest","124","probe-149","0.09883882657778272","0.9245144237396632","0.6487409015534974","0","","","","","",""
"","do_trial","186","1103873","0.0-167.0-0.0","291.19999980926514","","","","50","0,0,0","3","forest","125","probe-237","0.15343247063420917","0.8427709102022667","0.40009569674858897","0","","","","","",""
"","do_trial","187","1109599","0.0-168.0-0.0","192.19999980926514","","","","51","0,1,1","3","forest","126","probe-110","0.20615626944427146","0.892990899800882","0.21968554430864115","1","","","","","",""
"","do_trial","188","1115871","0.0-169.0-0.0","733.5999999046326","","","","51","0,1,0","3","forest","127","probe-166","0.20038744909623682","0.7756892826712042","0.348198581300434","0","","","","","",""
"","do_trial","189","1121685","0.0-170.0-0.0","276.80000019073486","","","","51","0,0,0","3","forest","128","probe-93","0.05203909845678382","0.7511636397058304","0.43499991128540516","0","","","","","",""
"","do_trial","190","1127442","0.0-171.0-0.0","214","","","","51","0,1,0","3","forest","129","probe-210","0.06627617839152176","0.7909289662920618","0.4640522304224193","0","","","","","",""
"","do_trial","191","1133049","0.0-172.0-0.0","62.799999713897705","","","","51","0,1,0","3","forest","130","probe-122","0.1233063234123749","0.5870727184743828","0.6301015920096995","0","","","","","",""
"","do_trial","192","1138745","0.0-173.0-0.0","154.2000002861023","","","","51","0,1,0","3","forest","131","probe-24","0.30951971074178386","0.45248886090829593","0.5652254561773046","0","","","","","",""
"","do_trial","193","1144395","0.0-174.0-0.0","104.7999997138977","","","","51","1,0,0","3","forest","132","probe-103","0.34425385278220844","0.2660526500637955","0.6026747164948378","0","","","","","",""
"","do_trial","194","1150749","0.0-175.0-0.0","810.8999996185303","","","","51","0,0,0","3","forest","133","probe-133","0.42617795831995553","0.2903269262553673","0.6399024980219498","0","","","","","",""
"","do_trial","195","1156462","0.0-176.0-0.0","171.80000019073486","","","","50","1,0,1","3","forest","134","probe-128","0.33803900616183086","0.1305196097095413","0.7093567180380973","0","","","","","",""
"","do_trial","196","1162179","0.0-177.0-0.0","176.59999990463257","","","","50","1,0,1","3","forest","135","probe-107","0.4618160168018159","0.12687366476916068","0.8722517469849068","0","","","","","",""
"","do_trial","197","1167951","0.0-178.0-0.0","238.59999990463257","","","","50","0,0,1","3","forest","136","probe-96","0.4934160966171103","0.16879267633862996","0.9224785865649001","0","","","","","",""
"","do_trial","198","1173705","0.0-179.0-0.0","221.2000002861023","","","","51","0,0,1","3","forest","137","probe-04","0.3778467287665207","0.0661393818506253","0.8345145864573732","1","","","","","",""
"","do_trial","199","1179516","0.0-180.0-0.0","271.7000002861023","","","","51","0,0,1","3","forest","138","probe-10","0.3822585271079999","0.13146204392946514","0.9410746532018986","1","","","","","",""
"","do_trial","200","1185348","0.0-181.0-0.0","292.80000019073486","","","","50","0,0,1","3","forest","139","probe-19","0.4046015019595776","0.07507097742171398","0.8564678227644317","0","","","","","",""
"","do_trial","201","1191025","0.0-182.0-0.0","138.7999997138977","","","","50","1,0,1","3","forest","140","probe-138","0.298122428365859","0.2549415689664188","0.7720730688122847","0","","","","","",""
"","do_trial","202","1196740","0.0-183.0-0.0","172","","","","50","1,0,1","3","forest","141","probe-78","0.36140654646312137","0.14074536935883206","0.8178108006779669","0","","","","","",""
"","do_trial","203","1202739","0.0-184.0-0.0","457.19999980926514","","","","50","0,1,1","3","forest","142","probe-162","0.254862103142621","0.23557302191795848","0.8543953585072898","1","","","","","",""
"","do_trial","204","1208496","0.0-185.0-0.0","217.2999997138977","","","","50","0,0,1","3","forest","143","probe-152","0.1672906160765646","0.07863154360280554","0.9251542358436866","0","","","","","",""
"","do_trial","205","1214414","0.0-186.0-0.0","377.2999997138977","","","","50","0,0,0","3","forest","144","probe-112","0.1476976737826992","0.19512577567201866","0.6981645654745064","0","","","","","",""
"","do_trial","206","1220152","0.0-187.0-0.0","194.90000009536743","","","","50","0,1,1","3","forest","145","probe-73","0.3379920044820017","0.3661265217663521","0.8163664307078036","1","","","","","",""
"","do_trial","207","1225922","0.0-188.0-0.0","223.7999997138977","","","","50","1,0,1","3","forest","146","probe-07","0.3785623260437484","0.22496115650174825","0.8582114869218603","0","","","","","",""
"","do_trial","208","1231679","0.0-189.0-0.0","218.30000019073486","","","","50","0,1,1","3","forest","147","probe-225","0.4142557700343115","0.22556365883800147","0.8102659336987894","1","","","","","",""
"","do_trial","209","1237659","0.0-190.0-0.0","437.40000009536743","","","","49","1,0,1","3","forest","148","probe-105","0.4715214403198334","0.2259084447346767","0.7693145729932299","1","","","","","",""
"","do_trial","210","1243474","0.0-191.0-0.0","282.09999990463257","","","","49","1,0,1","3","forest","149","probe-198","0.5633520985553768","0.14798064608099884","0.8027059192954675","1","","","","","",""
"","do_trial","211","1249448","0.0-192.0-0.0","427.90000009536743","","","","49","1,0,1","3","forest","150","probe-178","0.4386150819876749","0.14812287177931535","0.8236387476280758","1","","","","","",""
"","do_trial","212","1255349","0.0-193.0-0.0","370.30000019073486","","","","49","0,0,1","3","forest","151","probe-69","0.3090025654062819","0.14540140190604023","0.839034207187397","0","","","","","",""
"","do_trial","213","1261148","0.0-194.0-0.0","263.5","","","","49","0,0,1","3","forest","152","probe-147","0.2768650479350056","0.07935153733898648","0.9399985091419514","0","","","","","",""
"","do_trial","214","1266880","0.0-195.0-0.0","196.5","","","","49","1,0,1","3","forest","153","probe-104","0.3301965493266558","0.1213170604128949","0.8881569858097171","1","","","","","",""
"","do_trial","215","1273661","0.0-196.0-0.0","1239.9000000953674","","","","50","0,0,1","3","forest","154","probe-150","0.3224487587425462","0.17419661733652564","0.9363302564354455","0","","","","","",""
"","do_trial","216","1279488","0.0-197.0-0.0","285.5","","","","50","0,0,1","3","forest","155","probe-220","0.23905463743575792","0.08382190207952721","0.9029706063772275","0","","","","","",""
"","do_trial","217","1285276","0.0-198.0-0.0","245.30000019073486","","","","50","0,0,1","3","forest","156","probe-132","0.3070196381729757","0.22611766068467412","0.8671414483021164","0","","","","","",""
"","do_trial","218","1291072","0.0-199.0-0.0","251.2000002861023","","","","50","1,0,1","3","forest","157","probe-215","0.26555445862302357","0.27875554582993556","0.8925927167428489","0","","","","","",""
"","do_trial","219","1297063","0.0-200.0-0.0","452.40000009536743","","","","50","0,1,1","3","forest","158","probe-169","0.20474441209338068","0.3136371826174041","0.872522312019114","1","","","","","",""
"","do_trial","220","1303122","0.0-201.0-0.0","523.8000001907349","","","","50","1,0,1","3","forest","159","probe-77","0.2774104892112544","0.21115845769932587","0.8324865621610722","0","","","","","",""
"","do_bye","221","1304631","0.0-202.0-0.0","null","","","","null","","","","","","","","","","","","","","",""
"","do_travel","222","1310638","0.0-203.0-0.0","null","","","","null","","","","","","","","","","","","","","",""
"","do_welcome","223","1312151","0.0-203.0-1.0","null","","","","null","","","","","","","","","","","","","","",""
"","do_trial","224","1319219","0.0-204.0-0.0","1534.2999997138977","","","","49","0,0,1","4","countryside","160","probe-201","0.21016418859070876","0.17846578152348674","1","0","","","","","",""
"","do_trial","225","1324810","0.0-205.0-0.0","57.59999990463257","","","","49","0,0,1","4","countryside","161","probe-212","0.3126551492635574","0.13475350531129576","1","0","","","","","",""
"","do_trial","226","1330391","0.0-206.0-0.0","44.59999990463257","","","","49","0,1,1","4","countryside","162","probe-151","0.4434920840642234","0.2369037760053453","1","0","","","","","",""
"","do_trial","227","1337177","0.0-207.0-0.0","1248.1000003814697","","","","49","1,0,1","4","countryside","163","probe-21","0.41274413025323065","0.2360319771579885","1","1","","","","","",""
"","do_trial","228","1343112","0.0-208.0-0.0","397.80000019073486","","","","49","1,0,1","4","countryside","164","probe-199","0.32751404609326357","0.13517651849187956","0.8528600228744363","1","","","","","",""
"","do_trial","229","1348916","0.0-209.0-0.0","266","","","","49","0,0,1","4","countryside","165","probe-223","0.3923233616196599","0.10193670863884544","0.8707796891530452","0","","","","","",""
"","do_trial","230","1354454","0.0-210.0-0.0","0.09999990463256836","","","","49","0,0,1","4","countryside","166","probe-239","0.4262361584803355","0.1185226780307433","0.9246537020095962","0","","","","","",""
"","do_trial","231","1360265","0.0-211.0-0.0","279","","","","49","0,0,1","4","countryside","167","probe-87","0.33684893008594996","0.10221261315897075","0.8939369693080497","0","","","","","",""
"","do_trial","232","1366028","0.0-212.0-0.0","228.59999990463257","","","","49","0,0,1","4","countryside","168","probe-170","0.48739569026168383","0.23537157713528595","0.7814118913212913","0","","","","","",""
"","do_trial","233","1372289","0.0-213.0-0.0","722.0999999046326","","","","49","1,0,0","4","countryside","169","probe-106","0.46867301130718103","0.21717338013831572","0.8192450563902657","1","","","","","",""
"","do_trial","234","1379115","0.0-214.0-0.0","1288.1999998092651","","","","50","0,0,0","4","countryside","170","probe-127","0.332288680055148","0.5216529856896582","0.6464409051151268","0","","","","","",""
"","do_trial","235","1385201","0.0-215.0-0.0","545.6999998092651","","","","50","0,1,0","4","countryside","171","probe-35","0.16464631787655884","0.7068341062030344","0.44641460087667867","1","","","","","",""
"","do_trial","236","1391039","0.0-216.0-0.0","306.5","","","","50","0,1,0","4","countryside","172","probe-156","0.20099481925606508","0.6608192991061812","0.46405099118135296","1","","","","","",""
"","do_trial","237","1397181","0.0-217.0-0.0","605.0999999046326","","","","50","0,0,1","4","countryside","173","probe-203","0.2542405854367926","0.5507347311683465","0.48534202351068895","0","","","","","",""
"","do_trial","238","1403164","0.0-218.0-0.0","445.59999990463257","","","","50","0,1,1","4","countryside","174","probe-153","0.17512928093382013","0.6716809772266916","0.472778786780046","1","","","","","",""
"","do_trial","239","1409141","0.0-219.0-0.0","431.40000009536743","","","","50","0,1,1","4","countryside","175","probe-197","0.14382982202488626","0.6570624260263961","0.33319930434813816","1","","","","","",""
"","do_trial","240","1415809","0.0-220.0-0.0","1130.5","","","","51","0,1,0","4","countryside","176","probe-51","0.15280858874892617","0.6965061286917742","0.398056869329976","0","","","","","",""
"","do_trial","241","1421585","0.0-221.0-0.0","242.5","","","","51","0,0,0","4","countryside","177","probe-185","0.14830682789318447","0.7367477205528988","0.435068473489912","0","","","","","",""
"","do_trial","242","1427398","0.0-222.0-0.0","278.7999997138977","","","","51","0,1,0","4","countryside","178","probe-233","0.14374422564234154","0.8168636047636355","0.4381529456429162","0","","","","","",""
"","do_trial","243","1433163","0.0-223.0-0.0","223.7999997138977","","","","51","0,1,1","4","countryside","179","probe-63","0.1772197177394092","0.8930911028487549","0.5226974516936151","1","","","","","",""
"","do_trial","244","1438977","0.0-224.0-0.0","276.09999990463257","","","","51","1,1,0","4","countryside","180","probe-186","0.17717906698463284","0.7961871989107305","0.4933518952257327","0","","","","","",""
"","do_trial","245","1445119","0.0-225.0-0.0","600.8999996185303","","","","51","0,1,0","4","countryside","181","probe-231","0.1728274293297518","0.884576137106219","0.3366574584817103","0","","","","","",""
"","do_trial","246","1451347","0.0-226.0-0.0","688.6999998092651","","","","51","0,1,1","4","countryside","182","probe-29","0.22693636801663772","0.8581954158602672","0.37566737273763756","1","","","","","",""
"","do_trial","247","1457156","0.0-227.0-0.0","274.40000009536743","","","","51","0,0,0","4","countryside","183","probe-31","0.1105764985285996","0.729003801672356","0.19030835963524198","0","","","","","",""
"","do_trial","248","1463239","0.0-228.0-0.0","547.6999998092651","","","","51","0,0,0","4","countryside","184","probe-183","0.0605039587052858","0.7118999025639967","0.26934401070694963","0","","","","","",""
"","do_trial","249","1469058","0.0-229.0-0.0","272.2000002861023","","","","51","0,0,0","4","countryside","185","probe-195","0.12631721790932438","0.8329275581467627","0.17392034078821975","0","","","","","",""
"","do_trial","250","1474810","0.0-230.0-0.0","213.59999990463257","","","","51","0,1,1","4","countryside","186","probe-25","0.19071705447730014","0.8300552258167104","0.38535723987159115","1","","","","","",""
"","do_trial","251","1480621","0.0-231.0-0.0","265.7000002861023","","","","51","0,1,0","4","countryside","187","probe-101","0.07246107541316495","0.839025446591682","0.34407928699027646","0","","","","","",""
"","do_trial","252","1486400","0.0-232.0-0.0","243.5","","","","51","0,1,0","4","countryside","188","probe-202","0.09385133880476816","0.7919946570240675","0.42744633815028216","0","","","","","",""
"","do_trial","253","1492249","0.0-233.0-0.0","316.2999997138977","","","","51","1,0,1","4","countryside","189","probe-174","0.1836176254534147","0.7891655431726037","0.275812123057981","1","","","","","",""
"","do_trial","254","1499155","0.0-234.0-0.0","1369.0999999046326","","","","49","0,1,1","4","countryside","190","probe-92","0.12584335166379634","0.7259386263064773","0.32617342997203397","0","","","","","",""
"","do_trial","255","1504989","0.0-235.0-0.0","299.90000009536743","","","","49","0,1,0","4","countryside","191","probe-03","0.15726108484720705","0.903319807875678","0.3495584693987536","0","","","","","",""
"","do_trial","256","1510796","0.0-236.0-0.0","263.19999980926514","","","","49","0,1,0","4","countryside","192","probe-70","0.21212072699996665","0.8814882470269721","0.2650324963281652","0","","","","","",""
"","do_trial","257","1516593","0.0-237.0-0.0","257.90000009536743","","","","49","0,0,0","4","countryside","193","probe-98","0.11668463461438287","0.830716474819481","0.3138200956449541","0","","","","","",""
"","do_trial","258","1522336","0.0-238.0-0.0","198.90000009536743","","","","49","0,0,1","4","countryside","194","probe-226","0.18762761998068514","0.7547911441944619","0.28319967668041457","0","","","","","",""
"","do_trial","259","1528002","0.0-239.0-0.0","120.80000019073486","","","","49","0,0,1","4","countryside","195","probe-145","0.14742605016383217","0.6143045872585349","0.2933673846821196","0","","","","","",""
"","do_trial","260","1533771","0.0-240.0-0.0","234.69999980926514","","","","49","1,1,0","4","countryside","196","probe-59","0.1962879055692482","0.7171276661313867","0.33844817336619715","1","","","","","",""
"","do_trial","261","1539562","0.0-241.0-0.0","252.40000009536743","","","","49","0,0,0","4","countryside","197","probe-140","0.27341909113156526","0.6592143456949873","0.2950457074079028","0","","","","","",""
"","do_trial","262","1545429","0.0-242.0-0.0","331.5","","","","49","1,1,0","4","countryside","198","probe-100","0.30457303439586275","0.7196417620095116","0.30902756966909667","1","","","","","",""
"","do_trial","263","1551332","0.0-243.0-0.0","359","","","","50","1,1,1","4","countryside","199","probe-157","0.35298930262843853","0.8136727020163312","0.25849203969703377","1","","","","","",""
"","do_bye","264","1552836","0.0-244.0-0.0","null","","","","null","","","","","","","","","","","","","","",""
"","do_travel","265","1558845","0.0-245.0-0.0","null","","","","null","","","","","","","","","","","","","","",""
"","do_welcome","266","1560355","0.0-245.0-1.0","null","","","","null","","","","","","","","","","","","","","",""
"","do_trial","267","1566961","0.0-246.0-0.0","1060.1999998092651","","","","51","0,1,1","5","highway","200","probe-121","0.39044621346824526","1","0.2894276210893119","1","","","","","",""
"","do_trial","268","1572754","0.0-247.0-0.0","249.30000019073486","","","","51","0,1,0","5","highway","201","probe-188","0.3299648769284226","1","0.24760418805882253","0","","","","","",""
"","do_trial","269","1578481","0.0-248.0-0.0","192.2000002861023","","","","51","0,1,1","5","highway","202","probe-187","0.2511479700258283","1","0.24680190014936826","1","","","","","",""
"","do_trial","270","1584333","0.0-249.0-0.0","318.90000009536743","","","","51","0,1,0","5","highway","203","probe-49","0.19453347290907566","1","0.3706222003511072","0","","","","","",""
"","do_trial","271","1590029","0.0-250.0-0.0","160.2999997138977","","","","51","1,0,0","5","highway","204","probe-57","0.21835251268768993","0.8373768480935101","0.32266790175325716","0","","","","","",""
"","do_trial","272","1595768","0.0-251.0-0.0","206","","","","51","0,1,0","5","highway","205","probe-181","0.21018324264343272","0.8280104135775019","0.386701231396288","0","","","","","",""
"","do_trial","273","1601563","0.0-252.0-0.0","252.5","","","","51","1,1,1","5","highway","206","probe-136","0.15663344434536317","0.7559957596749776","0.4753014004142119","1","","","","","",""
"","do_trial","274","1607806","0.0-253.0-0.0","708.4000000953674","","","","50","0,1,0","5","highway","207","probe-163","0.05203844446856325","0.8019639828996087","0.4052949700375668","1","","","","","",""
"","do_trial","275","1613642","0.0-254.0-0.0","290.2000002861023","","","","50","1,1,1","5","highway","208","probe-89","0.13137023561836086","0.7683981827555614","0.4294532806082518","1","","","","","",""
"","do_trial","276","1619517","0.0-255.0-0.0","328.80000019073486","","","","50","0,1,1","5","highway","209","probe-11","0.22883893074677158","0.7798151851852337","0.47882708547385877","1","","","","","",""
"","do_trial","277","1625335","0.0-256.0-0.0","273.59999990463257","","","","50","0,1,0","5","highway","210","probe-208","0.35487455603634177","0.6885845871096252","0.32994809603795544","1","","","","","",""
"","do_trial","278","1631395","0.0-257.0-0.0","515.8000001907349","","","","49","0,0,0","5","highway","211","probe-141","0.3631010450010194","0.6219579797468188","0.3354739714055313","0","","","","","",""
"","do_trial","279","1638378","0.0-258.0-0.0","1447.5","","","","49","1,1,0","5","highway","212","probe-28","0.4848870522663873","0.4471324911772139","0.14129055201472251","1","","","","","",""
"","do_trial","280","1644206","0.0-259.0-0.0","285","","","","49","0,0,0","5","highway","213","probe-02","0.5852405676970964","0.33751687589533774","0.10147720523717434","0","","","","","",""
"","do_trial","281","1650018","0.0-260.0-0.0","279","","","","49","0,0,0","5","highway","214","probe-189","0.6113305763034562","0.23084169137871213","0.1812741664406818","0","","","","","",""
"","do_trial","282","1655785","0.0-261.0-0.0","233.90000009536743","","","","49","0,0,0","5","highway","215","probe-116","0.6452371615028103","0.37724068175572334","0.374073710571289","0","","","","","",""
"","do_trial","283","1661514","0.0-262.0-0.0","186.7999997138977","","","","49","1,1,0","5","highway","216","probe-204","0.6586606034166965","0.2831259235447014","0.1025485660731034","1","","","","","",""
"","do_trial","284","1667357","0.0-263.0-0.0","307.90000009536743","","","","49","0,0,0","5","highway","217","probe-14","0.7120495616076812","0.31209536152632433","0.19122297999164603","0","","","","","",""
"","do_trial","285","1673175","0.0-264.0-0.0","276","","","","49","0,1,0","5","highway","218","probe-182","0.7726070058425283","0.4654552409728688","0.1435387903120803","0","","","","","",""
"","do_trial","286","1678919","0.0-265.0-0.0","205.59999990463257","","","","49","1,0,0","5","highway","219","probe-143","0.9071484182294124","0.38019632309595325","0.08867504833094532","1","","","","","",""
"","do_trial","287","1684896","0.0-266.0-0.0","432.59999990463257","","","","49","0,1,0","5","highway","220","probe-85","0.8883828427743293","0.41001274130104015","0.09918553883993207","0","","","","","",""
"","do_trial","288","1690689","0.0-267.0-0.0","250.19999980926514","","","","49","1,1,0","5","highway","221","probe-196","0.7715365802596879","0.3926045561528939","0.059374637783611135","1","","","","","",""
"","do_trial","289","1696976","0.0-268.0-0.0","742.8000001907349","","","","51","1,1,0","5","highway","222","probe-115","0.8138445121313865","0.3692051346974203","0.14007727230309808","0","","","","","",""
"","do_trial","290","1702785","0.0-269.0-0.0","268","","","","51","1,1,0","5","highway","223","probe-175","0.854646013347735","0.4472137763418669","0.25990127058283974","0","","","","","",""
"","do_trial","291","1708699","0.0-270.0-0.0","381.09999990463257","","","","51","1,1,0","5","highway","224","probe-184","0.8546891444101102","0.5546444339898335","0.28058434361123996","0","","","","","",""
"","do_trial","292","1714480","0.0-271.0-0.0","248","","","","51","1,0,0","5","highway","225","probe-86","0.8777188245689124","0.5411330675863806","0.23930592224387973","0","","","","","",""
"","do_trial","293","1720313","0.0-272.0-0.0","287.40000009536743","","","","51","1,1,0","5","highway","226","probe-172","0.9247777823668196","0.518569092856246","0.26149439078982667","0","","","","","",""
"","do_trial","294","1726027","0.0-273.0-0.0","173.19999980926514","","","","51","0,1,0","5","highway","227","probe-142","0.9147217974347045","0.42794206134933255","0.09086633727494144","0","","","","","",""
"","do_trial","295","1731962","0.0-274.0-0.0","400.90000009536743","","","","51","1,0,0","5","highway","228","probe-76","0.7143338388794173","0.45752125525644216","0.2880335157150239","0","","","","","",""
"","do_trial","296","1738190","0.0-275.0-0.0","682.6000003814697","","","","51","0,1,0","5","highway","229","probe-190","0.6559080737782783","0.4767462822430191","0.20623023426541934","0","","","","","",""
"","do_trial","297","1743999","0.0-276.0-0.0","272.40000009536743","","","","51","1,1,0","5","highway","230","probe-06","0.6565461487263781","0.34966871984925557","0.21529671732087838","0","","","","","",""
"","do_trial","298","1749773","0.0-277.0-0.0","236","","","","51","1,0,0","5","highway","231","probe-26","0.6342581367836309","0.351394320267451","0.17515728599497718","0","","","","","",""
"","do_trial","299","1755762","0.0-278.0-0.0","447.40000009536743","","","","51","1,0,1","5","highway","232","probe-124","0.6827979533866895","0.3518100804129199","0.2621561728356579","1","","","","","",""
"","do_trial","300","1761716","0.0-279.0-0.0","413.7000002861023","","","","51","1,0,0","5","highway","233","probe-41","0.6702847555669907","0.3577796434492938","0.13880201522795668","0","","","","","",""
"","do_trial","301","1767611","0.0-280.0-0.0","358.6000003814697","","","","51","1,0,0","5","highway","234","probe-20","0.6565942807198536","0.361471694304953","0.12437616303615459","0","","","","","",""
"","do_trial","302","1773476","0.0-281.0-0.0","331","","","","51","0,0,0","5","highway","235","probe-109","0.7537984672399479","0.4076127020942336","0.2741680203330495","0","","","","","",""
"","do_trial","303","1779305","0.0-282.0-0.0","282.7999997138977","","","","51","1,1,0","5","highway","236","probe-218","0.6730640067770083","0.504119317407467","0.2511373288471214","0","","","","","",""
"","do_trial","304","1784845","0.0-283.0-0.0","0.09999990463256836","","","","51","0,1,0","5","highway","237","probe-62","0.6106794572001781","0.470981210777049","0.0790652643515179","0","","","","","",""
"","do_trial","305","1790898","0.0-284.0-0.0","515.1999998092651","","","","51","1,1,1","5","highway","238","probe-120","0.8009871497138404","0.4305447015963278","0.11612804599834445","1","","","","","",""
"","do_trial","306","1798164","0.0-285.0-0.0","1722.3999996185303","","","","50","1,0,0","5","highway","239","probe-64","0.8339391500367669","0.41278656329779273","0.14942075812841843","0","","","","","",""
"","do_bye","307","1799677","0.0-286.0-0.0","null","","","","null","","","","","","","","","","","","","","",""
"","html-keyboard-response","308","1806762","0.0-286.0-1.0","7084.400000095367","<div class='center'><p>You may take a break now!</p><p> Stretch for a little bit. Get a glass of water.</p><p> You have two minutes to rest. Then, the game will automatically move on.</p><p>If you’d like to get started on the second half of the experiment sooner, then press the <b>space bar</b></p></div>","32","","","","","","","","","","","","","","","","",""
"","html-keyboard-response","309","1817241","0.0-286.0-2.0","10478.599999904633","<div class='center'><p>You’ve arrived at the final destination of your journey! Unfortunately, it’s very foggy out, so you won’t be able to see it in the distance like in previous places you've visited.</p><p>You’ll still be deciding which pirates you want to rob ships. However, because of the fog you also won’t be able to see the ship in the distance. </p><p><b>[Press the space bar to continue]</b></p></div>","32","","","","","","","","","","","","","","","","",""
"","html-keyboard-response","310","1827989","0.0-286.0-3.0","10747.300000190735","<div class='center'><p> Sometimes you’ll be asked if you’ve seen a ship before (see the example below). You will use the 5, 6, 7, 8 buttons on your keyboard to respond. </p><p> If you definitely did not see the ship, pick the the big red thumbs down by pressing <b>5</b>.</p><p> If you don’t think you saw it but aren’t sure, then pick the small red thumbs down by pressing <b>6</b>.</p><p> If you think you might have seen it, then pick the small green thumbs up by pressing <b>7</b>.</p><p> If you definitely did see this ship before, then pick the big thumb green thumbs up by pressing <b>8</b>.</p><p> If you recall correctly, then you’ll get a gold coin!</p><p><b>[Press the space bar to begin the next phase of the experiment]</b></p><p><img src='run_exp/static/images/example_recog_trial.png' height='500'></p></div>","32","","","","","","","","","","","","","","","","",""
"","do_welcome","311","1829502","0.0-286.0-4.0","null","","","","null","","","","","","","","","","","","","","",""
"","do_trial","312","1835252","0.0-287.0-0.0","2203.7000002861023","","","","50","1,0,0","6","blank","240","null","1","0.2850184961103172","0.2238873373587478","0","","","","","",""
"","do_recog","313","1841271","0.0-288.0-0.0","null","","","","null","","","","241","probe-199","","","","","1","[object Object]","164","4","0",""
"","do_trial","314","1845968","0.0-289.0-0.0","1158","","","","49","1,0,1","6","blank","242","null","0.9133858401467574","0.35574992693554436","0.13669045152607942","1","","","","","",""
"","do_recog","315","1849244","0.0-290.0-0.0","1759.1999998092651","","","","53","","","","243","probe-49","","","","","1","[object Object]","203","5","0",""
"","do_trial","316","1853895","0.0-291.0-0.0","1106.2999997138977","","","","50","0,0,0","6","blank","244","null","0.6994955437272722","0.22596654283812156","0.3138220383803631","0","","","","","",""
"","do_trial","317","1859962","0.0-292.0-0.0","2529.2999997138977","","","","51","0,0,1","6","blank","245","null","0.6276775525511655","0.34570574288724887","0.3417679813237882","1","","","","","",""
"","do_trial","318","1865030","0.0-293.0-0.0","1532.8000001907349","","","","49","1,0,0","6","blank","246","null","0.707711893135706","0.45203901995507645","0.22635847238574816","1","","","","","",""
"","do_recog","319","1868188","0.0-294.0-0.0","1645.6000003814697","","","","56","","","","247","probe-236","","","","","1","[object Object]","86","2","1",""
"","do_trial","320","1872355","0.0-295.0-0.0","622.7000002861023","","","","49","1,0,0","6","blank","248","null","0.7560511267525181","0.43471294912243175","0.2515985828699613","1","","","","","",""
"","do_trial","321","1876750","0.0-296.0-0.0","860.5","","","","49","1,0,0","6","blank","249","null","0.7040430702458835","0.3438927316112181","0.05336588951352615","1","","","","","",""
"","do_trial","322","1880602","0.0-297.0-0.0","307.59999990463257","","","","50","1,1,0","6","blank","250","null","0.9461764325311001","0.4486783616530103","0.126184568255982","1","","","","","",""
"","do_trial","323","1884479","0.0-298.0-0.0","331.90000009536743","","","","51","1,1,0","6","blank","251","null","0.8662508348209909","0.5546260188779207","0.08537382247880057","0","","","","","",""
"","do_trial","324","1888814","0.0-299.0-0.0","803.5999999046326","","","","50","1,0,0","6","blank","252","null","0.729246674522822","0.43115187970485574","0.11749562290389605","0","","","","","",""
"","do_trial","325","1892745","0.0-300.0-0.0","389","","","","49","1,0,1","6","blank","253","null","0.7367679707802285","0.32425672456908033","0.48374511306574536","1","","","","","",""
"","do_trial","326","1896672","0.0-301.0-0.0","391.19999980926514","","","","49","1,1,1","6","blank","254","null","0.6004372148392301","0.2778484765419961","0.734686730715926","1","","","","","",""
"","do_recog","327","1900559","0.0-302.0-0.0","2378.199999809265","","","","54","","","","255","probe-187","","","","","1","[object Object]","202","5","0",""
"","do_trial","328","1905603","0.0-303.0-0.0","1501.8000001907349","","","","49","1,0,1","6","blank","256","null","0.5580788300818341","0.1882912020298541","0.7105171731877843","1","","","","","",""
"","do_recog","329","1909538","0.0-304.0-0.0","2425.1000003814697","","","","53","","","","257","probe-212","","","","","1","[object Object]","161","4","0",""
"","do_trial","330","1913766","0.0-305.0-0.0","680.5999999046326","","","","49","0,0,1","6","blank","258","null","0.5448311964916365","0.12776876039536764","0.848854508620875","0","","","","","",""
"","do_recog","331","1917385","0.0-306.0-0.0","2106.2000002861023","","","","55","","","","259","probe-87","","","","","1","[object Object]","167","4","1",""
"","do_trial","332","1921513","0.0-307.0-0.0","594.3000001907349","","","","50","0,0,1","6","blank","260","null","0.4771129942857643","0.06954598533430567","0.8327347189457226","0","","","","","",""
"","do_trial","333","1925690","0.0-308.0-0.0","630.2000002861023","","","","51","0,0,1","6","blank","261","null","0.5506663390847305","0.1112243895780534","0.7429104490464615","1","","","","","",""
"","do_trial","334","1929729","0.0-309.0-0.0","503.5","","","","49","0,1,0","6","blank","262","null","0.440472493968846","0.16009260235403552","0.7457893244284753","0","","","","","",""
"","do_recog","335","1933301","0.0-310.0-0.0","2060","","","","53","","","","263","probe-121","","","","","1","[object Object]","200","5","0",""
"","do_trial","336","1937392","0.0-311.0-0.0","547.3999996185303","","","","50","1,0,1","6","blank","264","null","0.3556754317126129","0.16427465331524893","0.8872530708050872","0","","","","","",""
"","do_trial","337","1941408","0.0-312.0-0.0","472.09999990463257","","","","49","0,0,1","6","blank","265","null","0.4884045832218202","0.1757929919591505","0.8815622409078401","0","","","","","",""
"","do_recog","338","1945277","0.0-313.0-0.0","2356.0999999046326","","","","54","","","","266","probe-249","","","","","0","[object Object]","null","null","1",""
"","do_trial","339","1949090","0.0-314.0-0.0","270","","","","51","0,0,1","6","blank","267","null","0.4347008726151973","0.18702822950293904","0.7231312203932855","1","","","","","",""
"","do_recog","340","1952134","0.0-315.0-0.0","1528.9000000953674","","","","53","","","","268","probe-170","","","","","1","[object Object]","168","4","0",""
"","do_trial","341","1956173","0.0-316.0-0.0","503.80000019073486","","","","50","0,0,1","6","blank","269","null","0.33774854752617123","0.12866934576205846","0.7472568907457856","0","","","","","",""
"","do_trial","342","1960041","0.0-317.0-0.0","328.90000009536743","","","","49","1,0,1","6","blank","270","null","0.32769711577435345","0.1268298030516584","0.7735436847169355","1","","","","","",""
"","do_recog","343","1963490","0.0-318.0-0.0","1931.0999999046326","","","","55","","","","271","probe-237","","","","","1","[object Object]","125","3","1",""
"","do_trial","344","1967317","0.0-319.0-0.0","280.8999996185303","","","","50","0,0,1","6","blank","272","null","0.31273209608590524","0.12444174121351703","0.8271484360933917","0","","","","","",""
"","do_trial","345","1971078","0.0-320.0-0.0","224.59999990463257","","","","49","1,0,1","6","blank","273","null","0.3660689375432227","0.06433009689187599","0.9159889989391222","1","","","","","",""
"","do_recog","346","1974357","0.0-321.0-0.0","1766.3000001907349","","","","54","","","","274","probe-256","","","","","0","[object Object]","null","null","1",""
"","do_trial","347","1978206","0.0-322.0-0.0","312.59999990463257","","","","51","1,0,1","6","blank","275","null","0.43843256008682047","0.12134337489295664","0.7870677333879119","1","","","","","",""
"","do_trial","348","1982397","0.0-323.0-0.0","649.6999998092651","","","","50","1,0,1","6","blank","276","null","0.4483764545488645","0.1220059215370814","0.7213060732049955","0","","","","","",""
"","do_trial","349","1986494","0.0-324.0-0.0","551.3000001907349","","","","49","1,0,1","6","blank","277","null","0.39358748440613045","0.05435114119898695","0.8521963075221609","1","","","","","",""
"","do_trial","350","1990744","0.0-325.0-0.0","708.5999999046326","","","","50","0,0,1","6","blank","278","null","0.3742651332873783","0.05043464650627675","0.7303018835968195","0","","","","","",""
"","do_trial","351","1994559","0.0-326.0-0.0","278.90000009536743","","","","50","0,1,1","6","blank","279","null","0.3565652299634443","0.19371818619847755","0.7905057254413316","1","","","","","",""
"","do_recog","352","1997298","0.0-327.0-0.0","1227","","","","54","","","","280","probe-149","","","","","1","[object Object]","124","3","0",""
"","do_trial","353","2001111","0.0-328.0-0.0","271.90000009536743","","","","51","1,0,1","6","blank","281","null","0.46401258811934454","0.18871947322946242","0.9243005884471177","1","","","","","",""
"","do_recog","354","2004303","0.0-329.0-0.0","1673.1999998092651","","","","56","","","","282","probe-136","","","","","1","[object Object]","206","5","1",""
"","do_trial","355","2008145","0.0-330.0-0.0","303.1000003814697","","","","51","0,0,1","6","blank","283","null","0.42237241242241835","0.10898102183941008","1","1","","","","","",""
"","do_recog","356","2011659","0.0-331.0-0.0","1995.6999998092651","","","","54","","","","284","probe-117","","","","","1","[object Object]","123","3","0",""
"","do_trial","357","2015719","0.0-332.0-0.0","520.4000000953674","","","","51","0,0,1","6","blank","285","null","0.26748582536905663","0.09340264251635728","0.7672889929965072","1","","","","","",""
"","do_trial","358","2019574","0.0-333.0-0.0","321.80000019073486","","","","51","0,0,1","6","blank","286","null","0.5232104048202618","0.15233446824210556","0.7356550448699081","1","","","","","",""
"","do_recog","359","2022790","0.0-334.0-0.0","1710","","","","55","","","","287","probe-32","","","","","1","[object Object]","40","1","1",""
"","do_trial","360","2026796","0.0-335.0-0.0","472","","","","51","0,0,1","6","blank","288","null","0.4515596369334952","0.07835753212615468","0.740887877859924","1","","","","","",""
"","do_trial","361","2031027","0.0-336.0-0.0","695.1999998092651","","","","50","1,0,1","6","blank","289","null","0.41224520677360427","0.1095123098286466","0.8143692381343042","0","","","","","",""
"","do_trial","362","2034880","0.0-337.0-0.0","313.30000019073486","","","","50","0,0,1","6","blank","290","null","0.3652901068808652","0.14922008003658635","0.7742326064270354","0","","","","","",""
"","do_recog","363","2038054","0.0-338.0-0.0","1664.3999996185303","","","","54","","","","291","probe-130","","","","","1","[object Object]","120","3","0",""
"","do_trial","364","2041858","0.0-339.0-0.0","257","","","","50","0,0,1","6","blank","292","null","0.5025342267330841","0.19104969241545766","0.8277321295597544","0","","","","","",""
"","do_recog","365","2044798","0.0-340.0-0.0","1431.5","","","","53","","","","293","probe-21","","","","","1","[object Object]","163","4","0",""
"","do_trial","366","2048602","0.0-341.0-0.0","256.40000009536743","","","","50","1,0,1","6","blank","294","null","0.39255818222905314","0.14257627835413436","0.9448224995430168","0","","","","","",""
"","do_trial","367","2052672","0.0-342.0-0.0","535.6999998092651","","","","50","0,0,1","6","blank","295","null","0.4046788755924777","0.15809347098697454","0.87476975123328","0","","","","","",""
"","do_trial","368","2056610","0.0-343.0-0.0","403.7999997138977","","","","50","1,0,0","6","blank","296","null","0.36076540230124293","0.1793776530029686","0.843356423563067","0","","","","","",""
"","do_trial","369","2060554","0.0-344.0-0.0","407.59999990463257","","","","50","0,0,1","6","blank","297","null","0.30386976802573684","0.17446124313883665","0.7974005860899068","0","","","","","",""
"","do_trial","370","2064390","0.0-345.0-0.0","300.5","","","","50","0,0,1","6","blank","298","null","0.21738940579806298","0.1503717881189222","0.8082854909046455","0","","","","","",""
"","do_trial","371","2068281","0.0-346.0-0.0","344.2000002861023","","","","49","1,1,1","6","blank","299","null","0.5845718161073483","0.2527278412519143","0.6571250949963978","1","","","","","",""
"","do_recog","372","2071271","0.0-347.0-0.0","1474.1000003814697","","","","54","","","","300","probe-246","","","","","0","[object Object]","null","null","1",""
"","do_trial","373","2075411","0.0-348.0-0.0","600.3000001907349","","","","49","1,0,0","6","blank","301","null","0.7877627300070181","0.22743692369087942","0.5370427597410958","1","","","","","",""
"","do_trial","374","2079636","0.0-349.0-0.0","678.7000002861023","","","","49","1,1,1","6","blank","302","null","0.8312403716509341","0.24706554986472132","0.49279310068006227","1","","","","","",""
"","do_trial","375","2083706","0.0-350.0-0.0","532.8999996185303","","","","49","1,0,0","6","blank","303","null","0.831583198647607","0.1164728456258592","0.6524271238133502","1","","","","","",""
"","do_recog","376","2087031","0.0-351.0-0.0","1814.7000002861023","","","","56","","","","304","probe-223","","","","","1","[object Object]","165","4","1",""
"","do_trial","377","2090849","0.0-352.0-0.0","278.59999990463257","","","","49","1,0,1","6","blank","305","null","0.9472760550772812","0.16550639395896588","0.4726426313225027","1","","","","","",""
"","do_recog","378","2093872","0.0-353.0-0.0","1515.0999999046326","","","","54","","","","306","probe-79","","","","","1","[object Object]","88","2","0",""
"","do_trial","379","2097641","0.0-354.0-0.0","229.7000002861023","","","","50","1,0,0","6","blank","307","null","0.9492225805090737","0.15632319381188572","0.620163978866401","0","","","","","",""
"","do_recog","380","2100631","0.0-355.0-0.0","1485.1999998092651","","","","53","","","","308","probe-239","","","","","1","[object Object]","166","4","0",""
"","do_trial","381","2104793","0.0-356.0-0.0","621.9000000953674","","","","51","1,0,0","6","blank","309","null","0.898402780371816","0.0844080481057576","0.6490669150964246","0","","","","","",""
"","do_recog","382","2107448","0.0-357.0-0.0","1138","","","","56","","","","310","probe-60","","","","","1","[object Object]","47","1","1",""
"","do_trial","383","2111250","0.0-358.0-0.0","261.7000002861023","","","","50","1,0,1","6","blank","311","null","0.7863709634313714","0.0684017072162824","0.6004464336045864","0","","","","","",""
"","do_trial","384","2115187","0.0-359.0-0.0","401.5","","","","49","1,1,1","6","blank","312","null","0.7269750316640216","0.0976298645391386","0.514616174973238","1","","","","","",""
"","do_trial","385","2119194","0.0-360.0-0.0","469.09999990463257","","","","49","0,0,1","6","blank","313","null","0.7338326110043785","0.0878955259013948","0.48507316324302496","0","","","","","",""
"","do_trial","386","2123121","0.0-361.0-0.0","394.7999997138977","","","","50","1,0,0","6","blank","314","null","0.7163476099294469","0.08121914753037655","0.46682900089021284","0","","","","","",""
"","do_recog","387","2125816","0.0-362.0-0.0","1185.5","","","","56","","","","315","probe-155","","","","","1","[object Object]","83","2","1",""
"","do_trial","388","2129631","0.0-363.0-0.0","280.7000002861023","","","","51","1,0,1","6","blank","316","null","0.7465185311909128","0.05742189027239673","0.48247180359710884","1","","","","","",""
"","do_trial","389","2133599","0.0-364.0-0.0","432.69999980926514","","","","51","1,0,0","6","blank","317","null","0.801095219842457","0.1317880734477852","0.47178050196581894","0","","","","","",""
"","do_recog","390","2136528","0.0-365.0-0.0","1412.5999999046326","","","","54","","","","318","probe-54","","","","","1","[object Object]","122","3","0",""
"","do_trial","391","2140390","0.0-366.0-0.0","329.90000009536743","","","","49","1,0,1","6","blank","319","null","0.8072788773238359","0.1224308613236556","0.609069557044414","1","","","","","",""
"","do_recog","392","2142986","0.0-367.0-0.0","1077.6999998092651","","","","56","","","","320","probe-56","","","","","1","[object Object]","48","1","1",""
"","do_trial","393","2146798","0.0-368.0-0.0","265.69999980926514","","","","50","1,0,1","6","blank","321","null","0.7053005391858989","0.057815868483559935","0.611416300026136","0","","","","","",""
"","do_trial","394","2150702","0.0-369.0-0.0","357","","","","51","0,1,0","6","blank","322","null","0.6863864907520351","0.23246948998082026","0.5618377297543259","0","","","","","",""
"","do_trial","395","2154793","0.0-370.0-0.0","547","","","","51","1,0,0","6","blank","323","null","0.7932807786803229","0.1276680701791692","0.5301643514389105","0","","","","","",""
"","do_recog","396","2157222","0.0-371.0-0.0","924.2000002861023","","","","56","","","","324","probe-22","","","","","1","[object Object]","81","2","1",""
"","do_trial","397","2161048","0.0-372.0-0.0","279.40000009536743","","","","50","0,0,0","6","blank","325","null","0.8210531548992943","0.31660364663852014","0.38368809802676296","0","","","","","",""
"","do_recog","398","2164143","0.0-373.0-0.0","1580.8999996185303","","","","53","","","","326","probe-245","","","","","0","[object Object]","null","null","1",""
"","do_trial","399","2168036","0.0-374.0-0.0","357.30000019073486","","","","49","1,0,0","6","blank","327","null","1","0.2817860290388063","0.3873694781483098","1","","","","","",""
"","do_trial","400","2172223","0.0-375.0-0.0","652.3000001907349","","","","49","1,0,0","6","blank","328","null","0.8511051377704035","0.3183031824905689","0.4273252684784153","1","","","","","",""
"","do_trial","401","2176100","0.0-376.0-0.0","342","","","","49","1,0,1","6","blank","329","null","0.7931486791533057","0.20453444951246272","0.2960543030031468","1","","","","","",""
"","do_trial","402","2180120","0.0-377.0-0.0","480","","","","49","0,0,0","6","blank","330","null","0.7287620261451214","0.06790973290634965","0.3884154992312972","0","","","","","",""
"","do_trial","403","2183976","0.0-378.0-0.0","322.2000002861023","","","","49","1,0,0","6","blank","331","null","0.7542794886364032","0.13774220472443696","0.42572551308473316","1","","","","","",""
"","do_recog","404","2186660","0.0-379.0-0.0","1177.5999999046326","","","","54","","","","332","probe-211","","","","","1","[object Object]","43","1","0",""
"","do_trial","405","2190434","0.0-380.0-0.0","228.90000009536743","","","","50","1,0,1","6","blank","333","null","0.836903285109401","0.08302037972496587","0.38414926795052096","0","","","","","",""
"","do_recog","406","2192928","0.0-381.0-0.0","984.8000001907349","","","","56","","","","334","probe-230","","","","","1","[object Object]","44","1","1",""
"","do_trial","407","2196718","0.0-382.0-0.0","257.19999980926514","","","","50","1,0,0","6","blank","335","null","0.883821029889846","0.09991071838606995","0.34415386430245376","0","","","","","",""
"","do_recog","408","2199060","0.0-383.0-0.0","825.6000003814697","","","","56","","","","336","probe-201","","","","","1","[object Object]","160","4","1",""
"","do_trial","409","2202847","0.0-384.0-0.0","244.90000009536743","","","","51","1,0,1","6","blank","337","null","0.8112454398010424","0.11929383683435509","0.2703974491645465","1","","","","","",""
"","do_recog","410","2205517","0.0-385.0-0.0","1157","","","","56","","","","338","probe-181","","","","","1","[object Object]","205","5","1",""
"","do_trial","411","2209270","0.0-386.0-0.0","215","","","","51","1,0,1","6","blank","339","null","0.7920328450408383","0.20415119831259312","0.26833381062119865","1","","","","","",""
"","do_recog","412","2212095","0.0-387.0-0.0","1320.2000002861023","","","","54","","","","340","probe-151","","","","","1","[object Object]","162","4","0",""
"","do_trial","413","2215880","0.0-388.0-0.0","251","","","","51","1,0,1","6","blank","341","null","0.7311719079215925","0.19875688959193144","0.37402775120365117","1","","","","","",""
"","do_recog","414","2218718","0.0-389.0-0.0","1324.1999998092651","","","","56","","","","342","probe-166","","","","","1","[object Object]","127","3","1",""
"","do_trial","415","2222569","0.0-390.0-0.0","306.90000009536743","","","","49","1,1,1","6","blank","343","null","0.4529240505772857","0.40372219382389757","0.47188918001922325","1","","","","","",""
"","do_trial","416","2226780","0.0-391.0-0.0","676.3999996185303","","","","49","0,1,1","6","blank","344","null","0.359967014531407","0.5798571136191869","0.3285602859427801","0","","","","","",""
"","do_trial","417","2230674","0.0-392.0-0.0","360.19999980926514","","","","49","1,1,0","6","blank","345","null","0.3355577907222778","0.5302436775092747","0.3433753852631847","1","","","","","",""
"","do_trial","418","2234696","0.0-393.0-0.0","487.80000019073486","","","","49","0,0,0","6","blank","346","null","0.31548645482442705","0.6256862843116302","0.3237615925608421","0","","","","","",""
"","do_trial","419","2238538","0.0-394.0-0.0","300","","","","49","1,1,0","6","blank","347","null","0.20055978708940697","0.5841884594880126","0.46206100331845096","1","","","","","",""
"","do_recog","420","2241446","0.0-395.0-0.0","1400.7000002861023","","","","56","","","","348","probe-163","","","","","1","[object Object]","207","5","1",""
"","do_trial","421","2245195","0.0-396.0-0.0","205.5","","","","50","0,1,0","6","blank","349","null","0.06416728311877583","0.7583051920568348","0.5327005471966688","1","","","","","",""
"","do_recog","422","2247429","0.0-397.0-0.0","716.3999996185303","","","","56","","","","350","probe-95","","","","","1","[object Object]","84","2","1",""
"","do_trial","423","2251161","0.0-398.0-0.0","198.59999990463257","","","","51","0,1,1","6","blank","351","null","0.07521014298564327","0.8352152621290365","0.4770276607612676","1","","","","","",""
"","do_trial","424","2255112","0.0-399.0-0.0","415.59999990463257","","","","51","0,1,0","6","blank","352","null","0.07641285451251249","0.714168281554732","0.30035136620399444","0","","","","","",""
"","do_trial","425","2258874","0.0-400.0-0.0","226.19999980926514","","","","51","0,1,1","6","blank","353","null","0.16548041522132895","0.883953056676979","0.38639979630438426","1","","","","","",""
"","do_recog","426","2261810","0.0-401.0-0.0","1422.6999998092651","","","","55","","","","354","probe-110","","","","","1","[object Object]","126","3","1",""
"","do_trial","427","2265625","0.0-402.0-0.0","270.19999980926514","","","","50","0,1,1","6","blank","355","null","0.2195049130672374","0.9408106506750636","0.5084020227630935","1","","","","","",""
"","do_recog","428","2268574","0.0-403.0-0.0","1435.1999998092651","","","","54","","","","356","probe-83","","","","","1","[object Object]","45","1","0",""
"","do_trial","429","2272278","0.0-404.0-0.0","165","","","","51","0,1,0","6","blank","357","null","0.25392110173225585","0.82766980181106","0.6142982498219469","0","","","","","",""
"","do_recog","430","2274862","0.0-405.0-0.0","1076.8999996185303","","","","56","","","","358","probe-106","","","","","1","[object Object]","169","4","1",""
"","do_trial","431","2278781","0.0-406.0-0.0","382.5","","","","49","0,1,1","6","blank","359","null","0.32134442018793996","0.7882730667364739","0.648429937785656","0","","","","","",""
"","do_recog","432","2281528","0.0-407.0-0.0","1239.6999998092651","","","","56","","","","360","probe-93","","","","","1","[object Object]","128","3","1",""
"","do_trial","433","2285609","0.0-408.0-0.0","534.5","","","","49","0,1,0","6","blank","361","null","0.14335126356280692","0.8021359616798666","0.5197988959932542","0","","","","","",""
"","do_recog","434","2287906","0.0-409.0-0.0","778.7999997138977","","","","56","","","","362","probe-177","","","","","1","[object Object]","82","2","1",""
"","do_trial","435","2291650","0.0-410.0-0.0","205.39999961853027","","","","50","0,1,0","6","blank","363","null","0.08431263096355064","0.7196759475756072","0.3904880661838572","1","","","","","",""
"","do_trial","436","2295854","0.0-411.0-0.0","665","","","","51","0,0,1","6","blank","364","null","0.14796324211213516","0.7268344222291171","0.35911178392436205","1","","","","","",""
"","do_trial","437","2299938","0.0-412.0-0.0","541.5999999046326","","","","50","0,1,0","6","blank","365","null","0.2514063880442185","0.7092218389768068","0.3869166583456125","1","","","","","",""
"","do_trial","438","2303804","0.0-413.0-0.0","332.19999980926514","","","","50","1,0,0","6","blank","366","null","0.2676019811078675","0.6899166963736153","0.41922494529525245","0","","","","","",""
"","do_trial","439","2307721","0.0-414.0-0.0","381.30000019073486","","","","49","1,1,1","6","blank","367","null","0.29474067298843054","0.7733430957862257","0.4535319457731806","1","","","","","",""
"","do_recog","440","2310079","0.0-415.0-0.0","840","","","","56","","","","368","probe-11","","","","","1","[object Object]","209","5","1",""
"","do_trial","441","2313824","0.0-416.0-0.0","210.80000019073486","","","","51","0,0,0","6","blank","369","null","0.12915325040154618","0.7503293949832083","0.3617444199016604","0","","","","","",""
"","do_trial","442","2317658","0.0-417.0-0.0","295.19999980926514","","","","50","0,1,0","6","blank","370","null","0.2451308702844805","0.7271267622766812","0.334332228717001","1","","","","","",""
"","do_recog","443","2320557","0.0-418.0-0.0","1392.9000000953674","","","","54","","","","371","probe-257","","","","","0","[object Object]","null","null","1",""
"","do_trial","444","2324321","0.0-419.0-0.0","226.89999961853027","","","","49","0,1,0","6","blank","372","null","0.1989075915893646","1","0.3794550091670035","0","","","","","",""
"","do_trial","445","2328201","0.0-420.0-0.0","340.19999980926514","","","","49","0,1,0","6","blank","373","null","0.11503066755120632","0.8934780370863115","0.4246227619197696","0","","","","","",""
"","do_recog","446","2330879","0.0-421.0-0.0","1162.1999998092651","","","","56","","","","374","probe-15","","","","","1","[object Object]","42","1","1",""
"","do_trial","447","2334679","0.0-422.0-0.0","255.10000038146973","","","","49","0,1,1","6","blank","375","null","0.07704499326175775","0.741076806055995","0.4735879092532425","0","","","","","",""
"","do_recog","448","2336920","0.0-423.0-0.0","727.9000000953674","","","","56","","","","376","probe-01","","","","","1","[object Object]","87","2","1",""
"","do_trial","449","2340706","0.0-424.0-0.0","252","","","","49","0,0,0","6","blank","377","null","0.11024741869689983","0.745155650881582","0.44552681865909605","0","","","","","",""
"","do_trial","450","2344547","0.0-425.0-0.0","307.90000009536743","","","","49","0,1,0","6","blank","378","null","0.06665545159726897","0.7872447551813875","0.42468641986671885","0","","","","","",""
"","do_recog","451","2346994","0.0-426.0-0.0","941.5999999046326","","","","56","","","","379","probe-57","","","","","1","[object Object]","204","5","1",""
"","do_trial","452","2350778","0.0-427.0-0.0","238.09999990463257","","","","49","0,1,0","6","blank","380","null","0.18631499091448775","0.823483709751121","0.4758218613807977","0","","","","","",""
"","do_recog","453","2354229","0.0-428.0-0.0","1947.1000003814697","","","","54","","","","381","probe-16","","","","","1","[object Object]","89","2","0",""
"","do_trial","454","2357963","0.0-429.0-0.0","188","","","","49","0,1,1","6","blank","382","null","0.23601700043393087","0.7561324268309159","0.5821209873801294","0","","","","","",""
"","do_recog","455","2360417","0.0-430.0-0.0","936.3000001907349","","","","56","","","","383","probe-234","","","","","1","[object Object]","41","1","1",""
"","do_trial","456","2364139","0.0-431.0-0.0","187","","","","50","0,1,0","6","blank","384","null","0.09717458423447033","0.7569231115659883","0.4251932317015501","1","","","","","",""
"","do_recog","457","2367193","0.0-432.0-0.0","1549.3999996185303","","","","55","","","","385","probe-94","","","","","1","[object Object]","121","3","1",""
"","do_trial","458","2370969","0.0-433.0-0.0","233.09999990463257","","","","51","0,0,0","6","blank","386","null","0.15550698726021608","0.8502729072514486","0.469973303911267","0","","","","","",""
"","do_recog","459","2373589","0.0-434.0-0.0","1102.9000000953674","","","","56","","","","387","probe-53","","","","","1","[object Object]","49","1","1",""
"","do_trial","460","2377763","0.0-435.0-0.0","640","","","","51","0,0,0","6","blank","388","null","0.08525934227249408","0.7787292217122957","0.43001009529948064","0","","","","","",""
"","do_recog","461","2380397","0.0-436.0-0.0","1125","","","","56","","","","389","probe-210","","","","","1","[object Object]","129","3","1",""
"","do_trial","462","2385036","0.0-437.0-0.0","1100.2000002861023","","","","51","0,0,1","6","blank","390","null","0.16692626417984882","0.4666767093198784","0.6003621602025322","1","","","","","",""
"","do_recog","463","2388330","0.0-438.0-0.0","1778.3000001907349","","","","53","","","","391","probe-259","","","","","0","[object Object]","null","null","1",""
"","do_trial","464","2392727","0.0-439.0-0.0","863.4000000953674","","","","50","0,0,1","6","blank","392","null","0.18498277826297435","0.43984657811522404","0.7169341931278598","0","","","","","",""
"","do_recog","465","2396128","0.0-440.0-0.0","1885","","","","54","","","","393","probe-154","","","","","1","[object Object]","80","2","0",""
"","do_trial","466","2400368","0.0-441.0-0.0","696","","","","51","0,0,1","6","blank","394","null","0.352294999570392","0.48382410914019175","0.9164192652334987","1","","","","","",""
"","do_recog","467","2402908","0.0-442.0-0.0","1027.7999997138977","","","","56","","","","395","probe-89","","","","","1","[object Object]","208","5","1",""
"","do_trial","468","2407087","0.0-443.0-0.0","633.7999997138977","","","","51","0,1,1","6","blank","396","null","0.36534438646351847","0.4258161006968786","0.7863449061675377","1","","","","","",""
"","do_trial","469","2411330","0.0-444.0-0.0","709.5999999046326","","","","51","1,0,1","6","blank","397","null","0.40708698508559266","0.37596907880492125","0.8729362189652398","1","","","","","",""
"","do_trial","470","2415185","0.0-445.0-0.0","313.90000009536743","","","","50","0,0,1","6","blank","398","null","0.4989060053212058","0.3282037352477062","0.8050378614065841","0","","","","","",""
"","do_recog","471","2418352","0.0-446.0-0.0","1653.6999998092651","","","","56","","","","399","probe-58","","","","","1","[object Object]","46","1","1",""
"","do_trial","472","2422414","0.0-447.0-0.0","520.2000002861023","","","","49","0,0,1","6","blank","400","null","0.39225479916444217","0.25795055431168123","0.93996438709134","0","","","","","",""
"","do_trial","473","2426498","0.0-448.0-0.0","551.5","","","","50","0,1,1","6","blank","401","null","0.41208706842162107","0.1368119735100504","0.8919077539783435","1","","","","","",""
"","do_trial","474","2430520","0.0-449.0-0.0","476","","","","51","0,0,1","6","blank","402","null","0.3601123873280361","0.1503046151468231","0.9048996648081183","1","","","","","",""
"","do_trial","475","2434566","0.0-450.0-0.0","506.59999990463257","","","","51","0,0,1","6","blank","403","null","0.24013106327139455","0.18151547714133778","0.8961332563429086","1","","","","","",""
"","do_trial","476","2438683","0.0-451.0-0.0","581.8000001907349","","","","51","1,0,1","6","blank","404","null","0.2709324847131741","0.06350102234239172","0.789044436336728","1","","","","","",""
"","do_trial","477","2442686","0.0-452.0-0.0","466.80000019073486","","","","49","1,0,0","6","blank","405","null","0.15584812680308005","0.0945607537580888","0.7277404230261508","1","","","","","",""
"","do_recog","478","2445018","0.0-453.0-0.0","823.0999999046326","","","","56","","","","406","probe-113","","","","","1","[object Object]","85","2","1",""
"","do_trial","479","2448831","0.0-454.0-0.0","278.59999990463257","","","","50","0,0,0","6","blank","407","null","0.28890215021161086","0.13469797970128572","0.7630012167247792","0","","","","","",""
"","do_recog","480","2451012","0.0-455.0-0.0","670.5","","","","56","","","","408","probe-188","","","","","1","[object Object]","201","5","1",""
"","do_trial","481","2454803","0.0-456.0-0.0","254.7999997138977","","","","51","0,0,1","6","blank","409","null","0.30317209741752166","0.16999174115673174","0.7907775664105522","1","","","","","",""
