"success","trial_type","trial_index","time_elapsed","internal_node_id","rt","stimulus","key_press","subject_id","response","choice_outcomes","context_n","context_img_id","trial_n","probe_img_id","pR_red","pR_white","pR_black","outcome","is_valid","image_to_show","probed_trial","probed_context","correct","context_id"
"true","fullscreen","0","3549","0.0-0.0","","","","","","","","","","","","","","","","","","","",""
"","pavlovia","1","3553","0.0-1.0","","","","","","","","","","","","","","","","","","","",""
"","html-keyboard-response","2","6472","0.0-2.0","2917.100000023842","<div class='center'><p>Welcome! This experiment will last ~1 hour. In this experiment, you are the head captain of a pirate ship traveling around the world to different places. You will complete several different tasks during this experiment. Here is an overview of these tasks:</p><br><p>1. Tutorial and quiz</p><p>2. Pick a pirate game in 6 different places</p><p>3. Pick a pirate game and memory game</p><p>4. Final questions and payment</p><br><p>If you complete the entire experiment, you will receive $15 and a possible bonus payment.</p><p><b>[Press the space bar to begin the tutorial]</b></p></div>","32","60fd50570dd4923fec4a6f50","","","","","","","","","","","","","","","",""
"","html-keyboard-response","3","10148","0.0-3.0","3674.399999976158","<div class='center'><p>You are the head captain of a pirate ship.</p><p> Your pirates rob other ships as they leave the marketplace port.</p> These ships have just sold all their goods at the marketplace, so they have lots and lots of gold on them.</p><p><img src='run_exp/static/images/ship_center.png' height='400'></p><p><b>[Press the space bar to continue]</b></p></div>","32","","","","","","","","","","","","","","","","",""
"","html-keyboard-response","4","16598","0.0-4.0","6449","<div class='center'><p>As the head captain, you do not have to rob any ships yourself.</p><p>You get to choose which pirate you want to rob the next ship. </p><p>If they are successful at robbing the ship, then you will get gold coins.</p><p> If they are not successful, then you will get no gold coins.</p><p> The more coins you collect, the more bonus money you will win. So, choose your pirate wisely.</p><p><img src='run_exp/static/images/goal.png' height='400'></p><p><b>[Press the space bar to continue]</b></p><div>","32","","","","","","","","","","","","","","","","",""
"","html-keyboard-response","5","23974","0.0-5.0","7374.700000047684","<div class='center'><p>Even the most skilled pirate will not be able to rob EVERY ship.</p><p> Some ships will have very strong defenses against attacks.</p><p> For example, blue beard, here,  is very good at robbing ships.</p><p> You can press the <b>‘1’</b> button on the keyboard to choose him.</p><p> Try choosing him 10 times to see how often he is successful at robbing ships. </p><p><img src='run_exp/static/images/blue.png' height='500'></p></div>","49","","","","","","","","","","","","","","","","",""
"","html-keyboard-response","6","25480","0.0-6.0","null","<br><br><br><br><p><img src='run_exp/static/images/blue_win.png' height='500'></p>","null","","","","","","","","","","","","","","","","",""
"","html-keyboard-response","7","27759","0.0-7.0","2277.399999976158","<br><br><br><br><p><img src='run_exp/static/images/blue.png' height='500'></p>","49","","","","","","","","","","","","","","","","",""
"","html-keyboard-response","8","29265","0.0-8.0","null","<br><br><br><br><p><img src='run_exp/static/images/blue_win.png' height='500'></p>","null","","","","","","","","","","","","","","","","",""
"","html-keyboard-response","9","32961","0.0-9.0","3694.599999964237","<br><br><br><br><p><img src='run_exp/static/images/blue.png' height='500'></p>","49","","","","","","","","","","","","","","","","",""
"","html-keyboard-response","10","34466","0.0-10.0","null","<br><br><br><br><p><img src='run_exp/static/images/blue_win.png' height='500'></p>","null","","","","","","","","","","","","","","","","",""
"","html-keyboard-response","11","35279","0.0-11.0","812.5","<br><br><br><br><p><img src='run_exp/static/images/blue.png' height='500'></p>","49","","","","","","","","","","","","","","","","",""
"","html-keyboard-response","12","36785","0.0-12.0","null","<br><br><br><br><p><img src='run_exp/static/images/blue_no_win.png' height='500'></p>","null","","","","","","","","","","","","","","","","",""
"","html-keyboard-response","13","37560","0.0-13.0","773.5","<br><br><br><br><p><img src='run_exp/static/images/blue.png' height='500'></p>","49","","","","","","","","","","","","","","","","",""
"","html-keyboard-response","14","39066","0.0-14.0","null","<br><br><br><br><p><img src='run_exp/static/images/blue_win.png' height='500'></p>","null","","","","","","","","","","","","","","","","",""
"","html-keyboard-response","15","40035","0.0-15.0","968.3999999761581","<br><br><br><br><p><img src='run_exp/static/images/blue.png' height='500'></p>","49","","","","","","","","","","","","","","","","",""
"","html-keyboard-response","16","41541","0.0-16.0","null","<br><br><br><br><p><img src='run_exp/static/images/blue_win.png' height='500'></p>","null","","","","","","","","","","","","","","","","",""
"","html-keyboard-response","17","42348","0.0-17.0","805.9000000357628","<br><br><br><br><p><img src='run_exp/static/images/blue.png' height='500'></p>","49","","","","","","","","","","","","","","","","",""
"","html-keyboard-response","18","43854","0.0-18.0","null","<br><br><br><br><p><img src='run_exp/static/images/blue_win.png' height='500'></p>","null","","","","","","","","","","","","","","","","",""
"","html-keyboard-response","19","44436","0.0-19.0","581.2000000476837","<br><br><br><br><p><img src='run_exp/static/images/blue.png' height='500'></p>","49","","","","","","","","","","","","","","","","",""
"","html-keyboard-response","20","45942","0.0-20.0","null","<br><br><br><br><p><img src='run_exp/static/images/blue_no_win.png' height='500'></p>","null","","","","","","","","","","","","","","","","",""
"","html-keyboard-response","21","48259","0.0-21.0","2316.800000011921","<br><br><br><br><p><img src='run_exp/static/images/blue.png' height='500'></p>","49","","","","","","","","","","","","","","","","",""
"","html-keyboard-response","22","49762","0.0-22.0","null","<br><br><br><br><p><img src='run_exp/static/images/blue_win.png' height='500'></p>","null","","","","","","","","","","","","","","","","",""
"","html-keyboard-response","23","50267","0.0-23.0","504","<br><br><br><br><p><img src='run_exp/static/images/blue.png' height='500'></p>","49","","","","","","","","","","","","","","","","",""
"","html-keyboard-response","24","51773","0.0-24.0","null","<br><br><br><br><p><img src='run_exp/static/images/blue_win.png' height='500'></p>","null","","","","","","","","","","","","","","","","",""
"","html-keyboard-response","25","56007","0.0-25.0","4233.199999988079","<div class='center'><p> See, he was successful at robbing the ships most of the time but not every time. </p><p><b>[Press the space bar to continue]</b></p></div>","32","","","","","","","","","","","","","","","","",""
"","html-keyboard-response","26","62748","0.0-26.0","6739.699999988079","<div class='center'><p>In the game, you will get to choose which of three pirates you want to rob the next ship. <p>Press the <b>‘1’</b> button on your keyboard to pick the pirate with the red beard.</p><p> Press <b>‘2’</b> to pick the pirate with the white beard.</p><p> Press <b>‘3’</b> to pick the pirate with the black beard.</p><p>Try picking a pirate now!</p><p><img src='run_exp/static/images/all_pirates.png' height='500'></p></div>","50","","","","","","","","","","","","","","","","",""
"","html-keyboard-response","27","64969","0.0-27.0-0.0","2218.899999976158","<div class='center'><p>This pirate was successful at robbing the ship!</p><p><img src='run_exp/static/images/white_win.png' height='500'></p><p><b>[Press the space bar to continue]</b></p></div>","32","","","","","","","","","","","","","","","","",""
"","html-keyboard-response","28","65943","0.0-27.0-1.0","973","<div class='center'><p>Now try choosing another</p><p><img src='run_exp/static/images/all_pirates.png' height='500'></p></div>","51","","","","","","","","","","","","","","","","",""
"","html-keyboard-response","29","67163","0.0-28.0-0.0","1218.8999999761581","<div class='center'><p>This pirate was not successful at robbing the ship!</p><p><img src='run_exp/static/images/black_no_win.png' height='500'></p><p><b>[Press the space bar to continue]</b></p></div>","32","","","","","","","","","","","","","","","","",""
"","html-keyboard-response","30","69995","0.0-29.0-0.0","2831.199999988079","<div class='center'><p>You’ll stop at these 6 places on your journey.</p><p><img src='run_exp/static/images/all_contexts.png' height='500'></p><p><b>[Press the space bar to continue]</b></p></div>","32","","","","","","","","","","","","","","","","",""
"","html-keyboard-response","31","71289","0.0-29.0-1.0","1294.3999999761581","<div class='center'><p>How good a pirate is at robbing ships will depend on the current place.</p><p> Some pirates will have been to the place before, and will have more experience robbing ships there.</p><p>So, they will be more successful at stealing gold and bringing it back to you.</p><p><b>[Press the space bar to continue]</b></p></div>","32","","","","","","","","","","","","","","","","",""
"","html-keyboard-response","32","72802","0.0-29.0-2.0","1511.800000011921","<div class='center'><p>How successful a pirate is at robbing ships can also change in a place.<p> Ships may hear about the pirates coming and will improve their defenses. This may make it more difficult to rob them.</p><p> Ships may also grow lazy and lower their defenses. This may make it easier to rob them.</p><br><p>Things are always changing on the high seas! So, try your best to pay attention!</p><p><img src='run_exp/static/images/contingency.png' height='500'></p><p><b>[Press the space bar to continue]</b></p></div>","32","","","","","","","","","","","","","","","","",""
"","html-keyboard-response","33","75024","0.0-29.0-3.0","2221.800000011921","<div class='center'><p>Once you choose a pirate to rob a ship, you’ll be shown the ship they are robbing.</p><p>The ship will have a picture of the item they sold at the marketplace.</p><p> Try your best to remember the ship and where you saw the ship.</p><p> You’ll have to remember this for later, and remembering this correctly will help you win more bonus money!</p><p>You can remember the ship by remembering the item they sold at the marketplace</p><p>A helpful strategy is to try to come up with a story of the chosen pirate and ship’s item interacting with the scene.</p><p> For example, a ship might have sold travel mugs and you could imagine red beard walking through the city with a travel mug. </p><p>Or imagine an apple falling from a tree into white beard's hands in the forest.</p><p><img src='run_exp/static/images/example_probe.png' height='500'></p><p><b>[Press the space bar to continue]</b></p></div>","32","","","","","","","","","","","","","","","","",""
"","html-keyboard-response","34","77513","0.0-29.0-4.0","2487.899999976158","<div class='center'><p>If you don’t make your choice fast enough, you’ll have to wait a few seconds before you can make another one. </p><p>You can’t win more gold. You just have to sit and wait.</p><p><img src='run_exp/static/images/hurry_up.png' height='500'></p><p><b>[Press the space bar to continue]</b></p></div>","32","","","","","","","","","","","","","","","","",""
"","html-keyboard-response","35","85195","0.0-29.0-5.0","7680.399999976158","<div class='center'><p>Again, you have two important things to do: </p><b><p> 1. Pick the pirate who you think will be most successful at robbing the next ship.</p></b><b><p> 2. Remember where a pirate robbed a ship.</p> </b><p>Both are important in determining how much bonus money you’ll win.</p><br><p>Let’s try a practice game. The game will start by showing you the pirates. First pick a pirate using the <b> 1, 2, 3 </b> buttons on your keyboard. When you are shown a ship, try to remember the place you’re in by making up a story.</p><p> You only have 3 seconds to pick a pirate, so please make a choice quickly! If you are too slow, you’ll have to wait a bit during the time out.</p><p> Don’t feel rushed, but please do try to make a choice every time.</p><p>How good a pirate is at robbing a ship will change depending on the place they are in and how good the defenses are of the ship.</p> <p>This is just a practice game, so you’re not playing for money. </p><p>You’ll receive a bag which may or may not contain gold coins.</p><p> In the real game, though, you’ll be able to see whether or not you received the gold coins.</p><p> Good luck, remember press <b>'1'</b> to choose red beard, <b>'2'</b> to choose white beard, and <b>'3'</b> to choose black beard</p><p><b>[Press the space bar to begin the practice game]</b></p></div>","32","","","","","","","","","","","","","","","","",""
"","do_trial_prac","36","91388","0.0-29.0-6.0","1682.800000011921","","","","49","","","","","","","","","","","","","","",""
"","do_trial_prac","37","96731","0.0-29.0-7.0","832.1999999880791","","","","50","","","","","","","","","","","","","","",""
"","do_trial_prac","38","101665","0.0-29.0-8.0","424.30000001192093","","","","51","","","","","","","","","","","","","","",""
"","do_trial_prac","39","107675","0.0-29.0-9.0","null","","","","null","","","","","","","","","","","","","","",""
"","do_trial_prac","40","112876","0.0-29.0-10.0","690.6999999880791","","","","49","","","","","","","","","","","","","","",""
"","html-keyboard-response","41","116544","0.0-29.0-11.0","3666.800000011921","<div class='center'><p>Great job on the practice game!</p><p> Now, you will be asked you some true or false questions to make sure you really understand the rules of the game.</p><p> Press <b>'1'</b> on the keyboard for true and press <b>'2'</b> for false.</p><p><b>[Press the space bar to begin the quiz]</b></p></div>","32","","","","","","","","","","","","","","","","",""
"","html-keyboard-response","42","120850","0.0-29.0-12.0","4303.199999988079","<div class='center'><p>You win bonus money by making choices as fast as possible.</p><p>Press 1 for true and press  2 for false.</p></div>","49","","","","","","","","","","","","","","","","",""
"","html-keyboard-response","43","123447","0.0-30.0-0.0","2594.600000023842","<br><br><br><br><p>That’s incorrect! You win bonus money by collecting as many gold coins as possible!</p><p><b>[press the space bar to continue with the quiz]</b></p>","32","","","","","","","","","","","","","","","","",""
"","html-keyboard-response","44","133878","0.0-30.0-1.0","10428.300000011921","<div class='center'><p>You press the <b>‘3’</b> button on the keyboard to choose the red bearded pirate? </p><p>Press 1 for true and press  2 for false.</p></div>","49","","","","","","","","","","","","","","","","",""
"","html-keyboard-response","45","136271","0.0-31.0-0.0","2391","<br><br><br><br><p>That’s incorrect! You press the <b>‘1’</b> button to choose the red bearded pirate!</p><p><b>[press the space bar to continue with the quiz]</b></p>","32","","","","","","","","","","","","","","","","",""
"","html-keyboard-response","46","139557","0.0-31.0-1.0","3285.300000011921","<div class='center'><p>A pirate will always be equally successful at robbing ships in each place</p><p>Press 1 for true and press  2 for false.</p></div>","50","","","","","","","","","","","","","","","","",""
"","html-keyboard-response","47","140629","0.0-32.0-0.0","1071.1000000238419","<br><br><br><br><p>That's correct!</p> <p><b>[press the space bar to continue with the quiz]</b></p>","32","","","","","","","","","","","","","","","","",""
"","html-keyboard-response","48","144647","0.0-32.0-1.0","4017.099999964237","<div class='center'><p>You should remember the place where a pirate robbed a ship.</p><p>Press 1 for true and press  2 for false.</p></div>","49","","","","","","","","","","","","","","","","",""
"","html-keyboard-response","49","145539","0.0-33.0-0.0","891.1999999880791","<br><br><br><br><p>That's correct!</p> <p><b>[press the space bar to continue with the quiz]</b></p>","32","","","","","","","","","","","","","","","","",""
"","html-keyboard-response","50","149792","0.0-34.0-0.0","4251.600000023842","<br><br><br><br><p>Oops, you missed some questions. Now that you’ve heard the correct answers. Try the quiz again! If you fail the quiz too many times, you won’t be able to do the experiment. </p> <p><br>[press the space bar to repeat the quiz]</br></p>","32","","","","","","","","","","","","","","","","",""
"","html-keyboard-response","51","151275","0.0-34.0-1.0","1482.8999999761581","<div class='center'><p>You win bonus money by making choices as fast as possible.</p><p>Press 1 for true and press  2 for false.</p></div>","50","","","","","","","","","","","","","","","","",""
"","html-keyboard-response","52","152083","0.0-35.0-0.0","807.3000000119209","<br><br><br><br><p>That's correct!</p> <p><b>[press the space bar to continue with the quiz]</b></p>","32","","","","","","","","","","","","","","","","",""
"","html-keyboard-response","53","154421","0.0-35.0-1.0","2337.100000023842","<div class='center'><p>You press the <b>‘3’</b> button on the keyboard to choose the red bearded pirate? </p><p>Press 1 for true and press  2 for false.</p></div>","50","","","","","","","","","","","","","","","","",""
"","html-keyboard-response","54","155456","0.0-36.0-0.0","1034.199999988079","<br><br><br><br><p>That's correct!</p> <p><b>[press the space bar to continue with the quiz]</b></p>","32","","","","","","","","","","","","","","","","",""
"","html-keyboard-response","55","157699","0.0-36.0-1.0","2242.099999964237","<div class='center'><p>A pirate will always be equally successful at robbing ships in each place</p><p>Press 1 for true and press  2 for false.</p></div>","50","","","","","","","","","","","","","","","","",""
"","html-keyboard-response","56","158211","0.0-37.0-0.0","511.5","<br><br><br><br><p>That's correct!</p> <p><b>[press the space bar to continue with the quiz]</b></p>","32","","","","","","","","","","","","","","","","",""
"","html-keyboard-response","57","159405","0.0-37.0-1.0","1193.300000011921","<div class='center'><p>You should remember the place where a pirate robbed a ship.</p><p>Press 1 for true and press  2 for false.</p></div>","49","","","","","","","","","","","","","","","","",""
"","html-keyboard-response","58","159834","0.0-38.0-0.0","420.80000001192093","<br><br><br><br><p>That's correct!</p> <p><b>[press the space bar to continue with the quiz]</b></p>","32","","","","","","","","","","","","","","","","",""
"","html-keyboard-response","59","160902","0.0-39.0-0.0","1066.3999999761581","<br><br><br><br><p>Good job! You’re now ready to move on to the real game!</p> <p><br>[press the space bar to begin!]</br></p>","32","","","","","","","","","","","","","","","","",""
"","do_welcome","60","162410","0.0-40.0-0.0","null","","","","null","","","","","","","","","","","","","","",""
"","do_trial","61","169519","0.0-41.0-0.0","1561.199999988079","","","","49","1,0,1","0","highway","0","probe-111","1","0.4","0.1","1","","","","","",""
"","do_trial","62","176563","0.0-42.0-0.0","1497.699999988079","","","","50","1,0,0","0","highway","1","probe-55","1","0.22133989470212892","0.14770629411770006","0","","","","","",""
"","do_trial","63","182540","0.0-43.0-0.0","431.80000001192093","","","","51","1,0,0","0","highway","2","probe-169","1","0.24610004798865348","0.06511679505583272","0","","","","","",""
"","do_trial","64","188640","0.0-44.0-0.0","560.8000000119209","","","","49","1,0,0","0","highway","3","probe-236","1","0.23100217555205288","0.057519259877420396","1","","","","","",""
"","do_trial","65","194887","0.0-45.0-0.0","705.8000000119209","","","","50","1,1,0","0","highway","4","probe-29","0.7990118813851385","0.11632254102851107","0.1810926093698957","1","","","","","",""
"","do_trial","66","201352","0.0-46.0-0.0","920.4000000357628","","","","49","1,0,0","0","highway","5","probe-182","0.8591574220686775","0.15528383417041236","0.34830372248778757","1","","","","","",""
"","do_trial","67","207663","0.0-47.0-0.0","766.4000000357628","","","","51","1,0,1","0","highway","6","probe-220","0.918062131829802","0.16880103555188442","0.26555370722209015","1","","","","","",""
"","do_trial","68","213822","0.0-48.0-0.0","609.0999999642372","","","","49","1,0,1","0","highway","7","probe-215","0.8488886348978544","0.33390571642555095","0.09161631520259787","1","","","","","",""
"","do_trial","69","219789","0.0-49.0-0.0","414.69999998807907","","","","50","1,1,0","0","highway","8","probe-41","0.8272749320309446","0.46164153997315477","0.07325310509346275","1","","","","","",""
"","do_trial","70","228156","0.0-50.0-0.0","2813.699999988079","","","","50","1,0,0","0","highway","9","probe-117","0.801522829453165","0.37908255778120115","0.20605514203583097","0","","","","","",""
"","do_trial","71","234204","0.0-51.0-0.0","null","","","","null","0,0,0","0","highway","10","probe-83","0.4134670502016759","0.38779368996465663","0.4167735451521595","","","","","","",""
"","do_trial","72","240149","0.0-52.0-0.0","398.30000001192093","","","","50","0,1,0","0","highway","11","probe-106","0.30105617618295144","0.4835588205870444","0.5401812249542713","1","","","","","",""
"","do_trial","73","248338","0.0-53.0-0.0","2640.099999964237","","","","50","0,1,1","0","highway","12","probe-74","0.12393322325196074","0.34999258483499474","0.7301288028045678","1","","","","","",""
"","do_trial","74","255798","0.0-54.0-0.0","1916.300000011921","","","","51","1,1,1","0","highway","13","probe-233","0.13476546656552377","0.42928203108642826","0.5755861201254123","1","","","","","",""
"","do_trial","75","263916","0.0-55.0-0.0","2572","","","","51","0,0,1","0","highway","14","probe-137","0.0780930335030561","0.4654996098505669","0.7184782607525664","1","","","","","",""
"","do_trial","76","271138","0.0-56.0-0.0","1670.800000011921","","","","51","0,0,1","0","highway","15","probe-193","0.1129358825286934","0.42631648896627755","0.7160593867929821","1","","","","","",""
"","do_trial","77","277040","0.0-57.0-0.0","353.4000000357628","","","","49","1,0,0","0","highway","16","probe-115","0.08240769426752291","0.46709196441078166","0.6850919353156184","1","","","","","",""
"","do_trial","78","282807","0.0-58.0-0.0","224.30000001192093","","","","51","0,0,1","0","highway","17","probe-148","0.13731197419943142","0.42198145280951493","0.7858988013876724","1","","","","","",""
"","do_trial","79","288622","0.0-59.0-0.0","271.89999997615814","","","","49","0,0,1","0","highway","18","probe-178","0.22832895602351802","0.350694229790584","0.8795356132401332","0","","","","","",""
"","do_trial","80","294670","0.0-60.0-0.0","494.2999999523163","","","","50","1,1,0","0","highway","19","probe-28","0.09967614693868412","0.4079787526649282","0.8832911088320293","1","","","","","",""
"","do_trial","81","302435","0.0-61.0-0.0","2211.5","","","","50","0,1,1","0","highway","20","probe-84","0.24192235804461987","0.41331797646198093","0.844984717832252","1","","","","","",""
"","do_trial","82","308326","0.0-62.0-0.0","339.89999997615814","","","","50","0,0,1","0","highway","21","probe-69","0.23582130583664362","0.5274413136136872","0.7910365027656416","0","","","","","",""
"","do_trial","83","314244","0.0-63.0-0.0","378.30000001192093","","","","49","1,0,1","0","highway","22","probe-43","0.14769156274638154","0.34800791527165603","0.7697094715502623","1","","","","","",""
"","do_trial","84","321758","0.0-64.0-0.0","1973.0999999642372","","","","51","0,1,0","0","highway","23","probe-104","0.07021825197174093","0.34484727793439346","0.7503859483328644","0","","","","","",""
"","do_trial","85","328783","0.0-65.0-0.0","1482.4000000357628","","","","50","0,0,1","0","highway","24","probe-154","0.11399194559981699","0.43551953811674443","0.7665036966832449","0","","","","","",""
"","do_trial","86","334648","0.0-66.0-0.0","316.89999997615814","","","","51","0,1,1","0","highway","25","probe-45","0.07907041878541866","0.26699930218684076","0.733944590158543","1","","","","","",""
"","do_trial","87","340580","0.0-67.0-0.0","376.4000000357628","","","","51","0,1,1","0","highway","26","probe-163","0.1866214005709293","0.4223813315911178","0.6039243839829413","1","","","","","",""
"","do_trial","88","348604","0.0-68.0-0.0","2481","","","","50","0,0,0","0","highway","27","probe-12","0.18929570809051244","0.3959405265686052","0.6605224787774769","0","","","","","",""
"","do_trial","89","354449","0.0-69.0-0.0","297.5","","","","50","0,0,1","0","highway","28","probe-102","0.0912008647274342","0.5045903792339447","0.6065868267826916","0","","","","","",""
"","do_trial","90","360007","0.0-70.0-0.0","10.900000035762787","","","","50","0,1,1","0","highway","29","probe-37","0.05661566095853417","0.4497894597321805","0.5474297716083873","1","","","","","",""
"","do_trial","91","365811","0.0-71.0-0.0","263","","","","50","0,0,0","0","highway","30","probe-67","0.13666936583242592","0.5214845068502785","0.613624941023503","0","","","","","",""
"","do_trial","92","372720","0.0-72.0-0.0","1367.199999988079","","","","51","0,1,0","0","highway","31","probe-238","0.1738559995442585","0.47446108128750597","0.7467666434979492","0","","","","","",""
"","do_trial","93","378351","0.0-73.0-0.0","83.90000003576279","","","","50","0,0,1","0","highway","32","probe-156","0.2231961130842668","0.46717046439085863","0.7690236874342934","0","","","","","",""
"","do_trial","94","384401","0.0-74.0-0.0","null","","","","null","0,1,0","0","highway","33","probe-34","0.1567356220377189","0.4280642897960402","0.7528824231402625","","","","","","",""
"","do_trial","95","390126","0.0-75.0-0.0","179.4000000357628","","","","51","0,0,1","0","highway","34","probe-35","0.25789224335964744","0.43865036204384633","0.6221386081821462","1","","","","","",""
"","do_trial","96","395979","0.0-76.0-0.0","308","","","","51","0,0,0","0","highway","35","probe-02","0.12681717966816553","0.4596316427641625","0.7431427069906198","0","","","","","",""
"","do_trial","97","402247","0.0-77.0-0.0","722.8000000119209","","","","50","0,0,1","0","highway","36","probe-99","0.1031530726821238","0.35439216086731357","0.8615187364617566","0","","","","","",""
"","do_trial","98","407880","0.0-78.0-0.0","88.90000003576279","","","","49","0,0,1","0","highway","37","probe-200","0.09047960209093095","0.413076055752612","0.8639910994117049","0","","","","","",""
"","do_trial","99","413749","0.0-79.0-0.0","319.89999997615814","","","","51","0,0,1","0","highway","38","probe-181","0.06869556948670683","0.4087382131694696","0.7364773748078602","1","","","","","",""
"","do_trial","100","419672","0.0-80.0-0.0","380.39999997615814","","","","51","0,0,1","0","highway","39","probe-30","0.283316415727339","0.3732910201563396","0.8186972639202147","1","","","","","",""
"","do_bye","101","421180","0.0-81.0-0.0","null","","","","null","","","","","","","","","","","","","","",""
"","do_travel","102","427187","0.0-82.0-0.0","null","","","","null","","","","","","","","","","","","","","",""
"","do_welcome","103","428695","0.0-82.0-1.0","null","","","","null","","","","","","","","","","","","","","",""
"","do_trial","104","436970","0.0-83.0-0.0","2730.100000023842","","","","49","0,0,1","1","city","40","probe-14","0.1911155919319733","0.3555961988838691","1","0","","","","","",""
"","do_trial","105","443942","0.0-84.0-0.0","1427.5","","","","50","0,1,1","1","city","41","probe-07","0.3779510962265297","0.30876761620113524","1","1","","","","","",""
"","do_trial","106","450556","0.0-85.0-0.0","1069","","","","51","0,0,1","1","city","42","probe-48","0.24021973952641706","0.36640935793295065","1","1","","","","","",""
"","do_trial","107","456419","0.0-86.0-0.0","318","","","","50","0,0,1","1","city","43","probe-59","0.1823094015614611","0.3284479831009246","1","0","","","","","",""
"","do_trial","108","462503","0.0-87.0-0.0","538.4000000357628","","","","51","0,0,1","1","city","44","probe-54","0.13378729390321406","0.44919376462656274","0.9492901187696093","1","","","","","",""
"","do_trial","109","468120","0.0-88.0-0.0","71.20000004768372","","","","50","1,1,1","1","city","45","probe-211","0.1799047851805161","0.36312627059426766","0.8178548656662787","1","","","","","",""
"","do_trial","110","476257","0.0-89.0-0.0","2592.2999999523163","","","","50","0,0,1","1","city","46","probe-57","0.08398002385647685","0.5707133147861769","0.8370971213827785","0","","","","","",""
"","do_trial","111","482491","0.0-90.0-0.0","688.5","","","","51","1,0,1","1","city","47","probe-22","0.2591607556373603","0.430339243798412","0.895267158057043","1","","","","","",""
"","do_trial","112","488889","0.0-91.0-0.0","852.6000000238419","","","","50","0,1,1","1","city","48","probe-221","0.09467784821859958","0.367659134197828","0.7972204229272376","1","","","","","",""
"","do_trial","113","495562","0.0-92.0-0.0","1128","","","","50","1,1,0","1","city","49","probe-198","0.1530834907600355","0.41691418526478596","0.8734127920445376","1","","","","","",""
"","do_trial","114","501857","0.0-93.0-0.0","752.8000000119209","","","","50","0,1,1","1","city","50","probe-217","0.06850660458709516","0.6456915350898226","0.6599595749935608","1","","","","","",""
"","do_trial","115","507907","0.0-94.0-0.0","null","","","","null","0,1,0","1","city","51","probe-90","0.19236836505308164","0.574439282647068","0.47499151710624077","","","","","","",""
"","do_trial","116","513602","0.0-95.0-0.0","151","","","","49","0,1,1","1","city","52","probe-209","0.20167011717025624","0.658636524485381","0.3946717367449846","0","","","","","",""
"","do_trial","117","521079","0.0-96.0-0.0","1931.300000011921","","","","51","0,0,1","1","city","53","probe-46","0.175645059254831","0.6196049578429481","0.3450692122633078","1","","","","","",""
"","do_trial","118","527574","0.0-97.0-0.0","949.8999999761581","","","","50","0,0,1","1","city","54","probe-146","0.26226278695418936","0.6456989294895549","0.4843321842905164","0","","","","","",""
"","do_trial","119","533816","0.0-98.0-0.0","696.5","","","","51","0,1,0","1","city","55","probe-60","0.21965837163131458","0.7350522854760742","0.5725398495584315","0","","","","","",""
"","do_trial","120","540040","0.0-99.0-0.0","678.8999999761581","","","","50","0,0,0","1","city","56","probe-32","0.13478137111157307","0.5368648273685667","0.4737529570307368","0","","","","","",""
"","do_trial","121","546662","0.0-100.0-0.0","1077.199999988079","","","","51","0,1,1","1","city","57","probe-164","0.1669518608954281","0.7135579702591557","0.4346434775353407","1","","","","","",""
"","do_trial","122","552541","0.0-101.0-0.0","332.9000000357628","","","","49","0,1,1","1","city","58","probe-225","0.12302628012864082","0.7519780151109066","0.4256685790872233","0","","","","","",""
"","do_trial","123","558220","0.0-102.0-0.0","133.69999998807907","","","","49","0,1,1","1","city","59","probe-77","0.10769881805644463","0.710488757537149","0.38472157103574384","0","","","","","",""
"","do_trial","124","563874","0.0-103.0-0.0","112.69999998807907","","","","49","1,1,1","1","city","60","probe-51","0.19251990583987905","0.7890529757476451","0.462758106090063","1","","","","","",""
"","do_trial","125","569514","0.0-104.0-0.0","94.59999996423721","","","","49","0,0,0","1","city","61","probe-23","0.19878127451240168","0.8317017937037487","0.42495057559207405","0","","","","","",""
"","do_trial","126","576154","0.0-105.0-0.0","1099.699999988079","","","","50","0,1,1","1","city","62","probe-232","0.13272612659574962","0.9321080181349188","0.3283292382058266","1","","","","","",""
"","do_trial","127","581696","0.0-106.0-0.0","0.09999996423721313","","","","50","0,1,0","1","city","63","probe-94","0.14636390266048488","0.9309806999803227","0.32572998837998607","1","","","","","",""
"","do_trial","128","587595","0.0-107.0-0.0","355.4000000357628","","","","50","0,0,0","1","city","64","probe-79","0.11392719929783054","0.885237967074481","0.32060051319588034","0","","","","","",""
"","do_trial","129","593243","0.0-108.0-0.0","106.39999997615814","","","","50","0,1,1","1","city","65","probe-105","0.18671924126252765","0.8659378575596646","0.5315017416884551","1","","","","","",""
"","do_trial","130","598866","0.0-109.0-0.0","78.89999997615814","","","","49","1,1,0","1","city","66","probe-142","0.2596669444660037","0.7642236692195051","0.48655016439241816","1","","","","","",""
"","do_trial","131","604672","0.0-110.0-0.0","262.30000001192093","","","","51","0,1,1","1","city","67","probe-70","0.07175485550791223","0.7438303844489073","0.48323163467850666","1","","","","","",""
"","do_trial","132","610701","0.0-111.0-0.0","486.39999997615814","","","","49","0,1,0","1","city","68","probe-187","0.1104063495435369","0.7131071217906267","0.36006213341620924","0","","","","","",""
"","do_trial","133","618742","0.0-112.0-0.0","2495.399999976158","","","","50","0,1,0","1","city","69","probe-191","0.14489156686973262","0.7409651607827621","0.2834900457183385","1","","","","","",""
"","do_trial","134","624287","0.0-113.0-0.0","0.09999996423721313","","","","50","1,1,0","1","city","70","probe-107","0.06823160370418095","0.8309390130299632","0.3767735542858089","1","","","","","",""
"","do_trial","135","630196","0.0-114.0-0.0","363.10000002384186","","","","51","0,1,1","1","city","71","probe-38","0.15835432993571508","0.7864172481369992","0.4096076302910675","1","","","","","",""
"","do_trial","136","636016","0.0-115.0-0.0","275.2000000476837","","","","49","0,1,0","1","city","72","probe-100","0.12010448216047312","0.7626704906659003","0.45671765118879315","0","","","","","",""
"","do_trial","137","642897","0.0-116.0-0.0","1335.3999999761581","","","","51","0,1,1","1","city","73","probe-168","0.06258349736899078","0.8197684050966026","0.43242224409518903","1","","","","","",""
"","do_trial","138","649201","0.0-117.0-0.0","759.1000000238419","","","","50","1,0,0","1","city","74","probe-01","0.17670972214743597","0.7853505726246526","0.5300587396768027","0","","","","","",""
"","do_trial","139","655903","0.0-118.0-0.0","1156.800000011921","","","","51","0,1,0","1","city","75","probe-88","0.11121691128819318","0.7848098632092187","0.32417389333935787","0","","","","","",""
"","do_trial","140","661995","0.0-119.0-0.0","548.1000000238419","","","","50","0,1,0","1","city","76","probe-229","0.061020376662188555","0.6503076740324357","0.5025624779688268","1","","","","","",""
"","do_trial","141","668608","0.0-120.0-0.0","1067.4000000357628","","","","49","0,0,1","1","city","77","probe-135","0.0942415987593159","0.5728157442502421","0.4966180833967584","0","","","","","",""
"","do_trial","142","675349","0.0-121.0-0.0","1195.1000000238419","","","","51","0,1,0","1","city","78","probe-40","0.06281590355702552","0.6670890594248793","0.5557144312899387","0","","","","","",""
"","do_trial","143","681856","0.0-122.0-0.0","962.3999999761581","","","","50","0,1,1","1","city","79","probe-68","0.09901933991832032","0.6906400211737915","0.4380162118648997","1","","","","","",""
"","do_bye","144","683363","0.0-123.0-0.0","null","","","","null","","","","","","","","","","","","","","",""
"","do_travel","145","689370","0.0-124.0-0.0","null","","","","null","","","","","","","","","","","","","","",""
"","do_welcome","146","690880","0.0-124.0-1.0","null","","","","null","","","","","","","","","","","","","","",""
"","do_trial","147","697154","0.0-125.0-0.0","734","","","","51","0,1,1","2","countryside","80","probe-173","0.058588020224894434","1","0.4788988614421159","1","","","","","",""
"","do_trial","148","703055","0.0-126.0-0.0","359.80000001192093","","","","51","0,1,0","2","countryside","81","probe-177","0.15493473639944794","1","0.3703652538888156","0","","","","","",""
"","do_trial","149","709016","0.0-127.0-0.0","420","","","","49","0,1,0","2","countryside","82","probe-132","0.0950106112615763","1","0.3102854666930005","0","","","","","",""
"","do_trial","150","714711","0.0-128.0-0.0","150.19999998807907","","","","50","0,1,1","2","countryside","83","probe-224","0.21554614841478703","1","0.33517919836132093","1","","","","","",""
"","do_trial","151","720417","0.0-129.0-0.0","161.89999997615814","","","","50","0,1,1","2","countryside","84","probe-166","0.1899918748599501","0.8714926486960285","0.2895333116937046","1","","","","","",""
"","do_trial","152","726378","0.0-130.0-0.0","417","","","","51","0,1,0","2","countryside","85","probe-09","0.1443750856257442","0.7435207907487958","0.4075689595378615","0","","","","","",""
"","do_trial","153","732525","0.0-131.0-0.0","602.5","","","","51","0,1,0","2","countryside","86","probe-17","0.1283996278982596","0.7420254680930449","0.31961829176434964","0","","","","","",""
"","do_trial","154","738570","0.0-132.0-0.0","null","","","","null","0,0,1","2","countryside","87","probe-167","0.0706512068296778","0.6388033702800345","0.43711891347470017","","","","","","",""
"","do_trial","155","745780","0.0-133.0-0.0","1664.8999999761581","","","","49","0,0,1","2","countryside","88","probe-63","0.06292039261004473","0.6446195571184674","0.48660883794435567","0","","","","","",""
"","do_trial","156","752410","0.0-134.0-0.0","1086.1000000238419","","","","51","1,1,1","2","countryside","89","probe-196","0.10134291663260676","0.6236068451022938","0.4603126054298695","1","","","","","",""
"","do_trial","157","758747","0.0-135.0-0.0","790.5","","","","51","0,0,1","2","countryside","90","probe-205","0.2800554930909046","0.4299764879559189","0.5993345276057687","1","","","","","",""
"","do_trial","158","766290","0.0-136.0-0.0","2001","","","","51","0,0,0","2","countryside","91","probe-192","0.21093660654380947","0.23964973593173844","0.7552242335511224","0","","","","","",""
"","do_trial","159","772976","0.0-137.0-0.0","1140.699999988079","","","","50","0,1,1","2","countryside","92","probe-101","0.35715218186187947","0.19302702822744836","0.8717279853673252","1","","","","","",""
"","do_trial","160","779058","0.0-138.0-0.0","536.4000000357628","","","","50","1,1,1","2","countryside","93","probe-124","0.3969952560939967","0.1663760538376491","0.9007548876045651","1","","","","","",""
"","do_trial","161","785673","0.0-139.0-0.0","1070","","","","50","1,0,0","2","countryside","94","probe-161","0.5933635506733157","0.19321990312464452","0.7866214514979731","0","","","","","",""
"","do_trial","162","792391","0.0-140.0-0.0","1177.5","","","","50","1,0,0","2","countryside","95","probe-125","0.5301545834178627","0.09870678811711811","0.8620769941710927","0","","","","","",""
"","do_trial","163","798661","0.0-141.0-0.0","725.6000000238419","","","","51","0,0,0","2","countryside","96","probe-18","0.5177773938191282","0.11583114768086426","0.7573136369357668","0","","","","","",""
"","do_trial","164","804613","0.0-142.0-0.0","406.19999998807907","","","","50","0,1,1","2","countryside","97","probe-162","0.32572025919948927","0.2904690766078787","0.7106441430462479","1","","","","","",""
"","do_trial","165","810711","0.0-143.0-0.0","548.1999999880791","","","","51","1,0,1","2","countryside","98","probe-65","0.3137688959363113","0.22953204852419706","0.7606860696291651","1","","","","","",""
"","do_trial","166","816641","0.0-144.0-0.0","384.30000001192093","","","","50","0,0,1","2","countryside","99","probe-183","0.24773428028657266","0.22790105957971346","0.9140684650404086","0","","","","","",""
"","do_trial","167","823887","0.0-145.0-0.0","1701.6000000238419","","","","49","1,0,0","2","countryside","100","probe-86","0.3561640923403506","0.2102721390521476","0.815354417559586","1","","","","","",""
"","do_trial","168","830178","0.0-146.0-0.0","746.5","","","","51","0,0,0","2","countryside","101","probe-82","0.4367612059418388","0.1206513965341459","0.6473729875042801","0","","","","","",""
"","do_trial","169","835992","0.0-147.0-0.0","268","","","","49","1,0,1","2","countryside","102","probe-112","0.37344715902650427","0.13708525003803232","0.6906227154165828","1","","","","","",""
"","do_trial","170","841774","0.0-148.0-0.0","237.10000002384186","","","","50","0,0,1","2","countryside","103","probe-91","0.48680019774863226","0.1539164161636174","0.6693156447011275","0","","","","","",""
"","do_trial","171","848410","0.0-149.0-0.0","1091.1000000238419","","","","51","0,0,0","2","countryside","104","probe-227","0.44669257939084167","0.18793092597192776","0.7054173081166696","0","","","","","",""
"","do_trial","172","854365","0.0-150.0-0.0","409.80000001192093","","","","51","0,1,1","2","countryside","105","probe-71","0.39964502033013805","0.14734524540938543","0.8845079065788894","1","","","","","",""
"","do_trial","173","860523","0.0-151.0-0.0","612.6000000238419","","","","51","0,0,1","2","countryside","106","probe-27","0.43233040348339996","0.13926332811951941","0.8992505143589158","1","","","","","",""
"","do_trial","174","866391","0.0-152.0-0.0","322.89999997615814","","","","51","0,1,1","2","countryside","107","probe-78","0.24196435680127984","0.19501728831397508","0.7548619908566027","1","","","","","",""
"","do_trial","175","872149","0.0-153.0-0.0","214.9000000357628","","","","49","0,0,0","2","countryside","108","probe-235","0.3094297821736948","0.17147888979424644","0.802153863014987","0","","","","","",""
"","do_trial","176","878020","0.0-154.0-0.0","326.10000002384186","","","","50","0,0,1","2","countryside","109","probe-13","0.3115228771109234","0.10335897075606376","0.8140951738112695","0","","","","","",""
"","do_trial","177","884000","0.0-155.0-0.0","434.9000000357628","","","","49","0,0,0","2","countryside","110","probe-47","0.26917898473444013","0.0802463478050135","0.8942814480181148","0","","","","","",""
"","do_trial","178","889658","0.0-156.0-0.0","113.5","","","","51","0,0,0","2","countryside","111","probe-49","0.34733489560367786","0.11815364469564418","0.8120960136728235","0","","","","","",""
"","do_trial","179","895540","0.0-157.0-0.0","336.0999999642372","","","","51","0,0,1","2","countryside","112","probe-188","0.43760291972426163","0.12302868607869506","0.765822905490407","1","","","","","",""
"","do_trial","180","901517","0.0-158.0-0.0","433.69999998807907","","","","50","0,0,0","2","countryside","113","probe-133","0.35357450167446447","0.09361331080858776","0.6785163663790513","0","","","","","",""
"","do_trial","181","907345","0.0-159.0-0.0","282.80000001192093","","","","50","0,0,1","2","countryside","114","probe-127","0.41118140482615817","0.09445375266266924","0.7709478258456472","0","","","","","",""
"","do_trial","182","915552","0.0-160.0-0.0","2663.199999988079","","","","50","0,0,1","2","countryside","115","probe-10","0.41695015610140074","0.1058036366759267","0.7701070289237096","0","","","","","",""
"","do_trial","183","921748","0.0-161.0-0.0","651.5","","","","51","0,0,1","2","countryside","116","probe-149","0.5371836506496728","0.1517305257494132","0.9160713796730282","1","","","","","",""
"","do_trial","184","927651","0.0-162.0-0.0","357.80000001192093","","","","51","1,0,1","2","countryside","117","probe-216","0.508281880098565","0.07914472820075757","0.8429953944180963","1","","","","","",""
"","do_trial","185","933678","0.0-163.0-0.0","481.5","","","","49","0,0,1","2","countryside","118","probe-110","0.5380034672136761","0.05084418521125729","0.8509033227541707","0","","","","","",""
"","do_trial","186","939548","0.0-164.0-0.0","325.19999998807907","","","","50","1,0,1","2","countryside","119","probe-214","0.5394687566003876","0.13735735590060905","0.8820567523662135","0","","","","","",""
"","do_bye","187","941055","0.0-165.0-0.0","null","","","","null","","","","","","","","","","","","","","",""
"","do_travel","188","947062","0.0-166.0-0.0","null","","","","null","","","","","","","","","","","","","","",""
"","do_welcome","189","948571","0.0-166.0-1.0","null","","","","null","","","","","","","","","","","","","","",""
"","do_trial","190","955275","0.0-167.0-0.0","1158.6000000238419","","","","51","0,0,1","3","mountain","120","probe-24","0.6228072925041501","0.11933160916369877","1","1","","","","","",""
"","do_trial","191","962799","0.0-168.0-0.0","1979.1000000238419","","","","51","0,0,1","3","mountain","121","probe-185","0.6006665601921022","0.20749106146780136","1","1","","","","","",""
"","do_trial","192","969096","0.0-169.0-0.0","751.6000000238419","","","","51","1,1,1","3","mountain","122","probe-208","0.5669830611260762","0.21270384557367084","1","1","","","","","",""
"","do_trial","193","975564","0.0-170.0-0.0","922.5","","","","51","0,0,1","3","mountain","123","probe-230","0.5036865468370058","0.14596452297735288","1","1","","","","","",""
"","do_trial","194","981497","0.0-171.0-0.0","387.39999997615814","","","","51","0,0,0","3","mountain","124","probe-122","0.4701300505835905","0.09614691455692546","0.8767446624429154","0","","","","","",""
"","do_trial","195","987407","0.0-172.0-0.0","369.4000000357628","","","","49","0,0,1","3","mountain","125","probe-93","0.5922294253410538","0.08220122431902112","0.923256022198427","0","","","","","",""
"","do_trial","196","993257","0.0-173.0-0.0","304.80000001192093","","","","50","1,0,0","3","mountain","126","probe-141","0.4871193398305654","0.06077904829512976","0.8166610243922342","0","","","","","",""
"","do_trial","197","999352","0.0-174.0-0.0","549.5","","","","51","0,0,1","3","mountain","127","probe-218","0.4443157363181894","0.06633710354537166","0.9015716329087262","1","","","","","",""
"","do_trial","198","1005634","0.0-175.0-0.0","737.2000000476837","","","","51","0,0,1","3","mountain","128","probe-19","0.4485510651921997","0.08855767754634032","0.7981243790190783","1","","","","","",""
"","do_trial","199","1011572","0.0-176.0-0.0","392.2999999523163","","","","51","1,0,1","3","mountain","129","probe-26","0.405079661560203","0.06922321411583898","0.8468259060279715","1","","","","","",""
"","do_trial","200","1017662","0.0-177.0-0.0","544.9000000357628","","","","51","1,0,1","3","mountain","130","probe-16","0.5224925536330539","0.22157668044735868","0.6427498052956243","1","","","","","",""
"","do_trial","201","1023588","0.0-178.0-0.0","382.30000001192093","","","","51","1,1,0","3","mountain","131","probe-240","0.6063163108334826","0.26416017413339055","0.40870784568718727","0","","","","","",""
"","do_trial","202","1029555","0.0-179.0-0.0","421.9000000357628","","","","50","1,0,1","3","mountain","132","probe-89","0.7065138310440505","0.3558983906868345","0.26609257942665726","0","","","","","",""
"","do_trial","203","1035777","0.0-180.0-0.0","681.8999999761581","","","","49","0,0,0","3","mountain","133","probe-121","0.8424442340059979","0.47027241212775805","0.27784808661145477","0","","","","","",""
"","do_trial","204","1043464","0.0-181.0-0.0","2143.899999976158","","","","51","1,0,0","3","mountain","134","probe-213","0.6757164335841277","0.48433897219612065","0.2629320695140278","0","","","","","",""
"","do_trial","205","1049083","0.0-182.0-0.0","74","","","","49","1,0,0","3","mountain","135","probe-06","0.6924061452640549","0.3794912705227965","0.15785126498766455","1","","","","","",""
"","do_trial","206","1055822","0.0-183.0-0.0","1199.199999988079","","","","49","1,0,0","3","mountain","136","probe-96","0.7482012055033809","0.3540412785346522","0.25144773358067324","1","","","","","",""
"","do_trial","207","1062002","0.0-184.0-0.0","634.1999999880791","","","","49","1,1,0","3","mountain","137","probe-52","0.7353137769674315","0.4891567157526527","0.22334951626341437","1","","","","","",""
"","do_trial","208","1069981","0.0-185.0-0.0","2433.699999988079","","","","49","0,1,0","3","mountain","138","probe-31","0.7866069968755295","0.4859194861605699","0.07406168730602661","0","","","","","",""
"","do_trial","209","1076028","0.0-186.0-0.0","null","","","","null","1,0,1","3","mountain","139","probe-33","0.8888402503095104","0.3713564465236188","0.0844764350861448","","","","","","",""
"","do_trial","210","1081756","0.0-187.0-0.0","181.5999999642372","","","","51","1,1,0","3","mountain","140","probe-226","0.8111390301050281","0.39641790644217284","0.16315018059607958","0","","","","","",""
"","do_trial","211","1087768","0.0-188.0-0.0","467.69999998807907","","","","50","0,0,0","3","mountain","141","probe-231","0.941569061949516","0.35365324618946603","0.11507540343279848","0","","","","","",""
"","do_trial","212","1093719","0.0-189.0-0.0","406.0999999642372","","","","49","1,0,0","3","mountain","142","probe-11","0.9195999110240647","0.3680722282558904","0.20394366454121263","1","","","","","",""
"","do_trial","213","1099858","0.0-190.0-0.0","598.1999999880791","","","","51","1,0,1","3","mountain","143","probe-56","0.9364100587365024","0.306813889435761","0.22008057620988108","1","","","","","",""
"","do_trial","214","1105706","0.0-191.0-0.0","301.89999997615814","","","","51","1,1,0","3","mountain","144","probe-108","0.8346391679966259","0.33649546917471673","0.17978741331965523","0","","","","","",""
"","do_trial","215","1111761","0.0-192.0-0.0","513","","","","50","1,0,1","3","mountain","145","probe-44","0.8285215008168867","0.278874519749121","0.12815280777054885","0","","","","","",""
"","do_trial","216","1117703","0.0-193.0-0.0","401.80000001192093","","","","49","1,0,0","3","mountain","146","probe-223","0.8083162578156412","0.3237703935743638","0.05239983996272568","1","","","","","",""
"","do_trial","217","1123955","0.0-194.0-0.0","709.5","","","","50","0,0,0","3","mountain","147","probe-62","0.6554425578906685","0.29487677809035157","0.07075924929245832","0","","","","","",""
"","do_trial","218","1129696","0.0-195.0-0.0","191.9000000357628","","","","50","0,0,0","3","mountain","148","probe-123","0.7545056656632213","0.3696742461757688","0.05014008041259593","0","","","","","",""
"","do_trial","219","1135634","0.0-196.0-0.0","390.60000002384186","","","","51","1,0,0","3","mountain","149","probe-210","0.6785872456318994","0.46520155358696974","0.059707148920243494","0","","","","","",""
"","do_trial","220","1141734","0.0-197.0-0.0","552.7000000476837","","","","51","1,0,0","3","mountain","150","probe-64","0.6793348553513158","0.46046303870141253","0.07150049486248132","0","","","","","",""
"","do_trial","221","1147679","0.0-198.0-0.0","399.5","","","","51","1,0,0","3","mountain","151","probe-95","0.7738489275923663","0.3206609871297153","0.08330202107372559","0","","","","","",""
"","do_trial","222","1153570","0.0-199.0-0.0","344.19999998807907","","","","51","1,0,0","3","mountain","152","probe-134","0.7972858060088052","0.42272413340174725","0.07018479173766477","0","","","","","",""
"","do_trial","223","1159522","0.0-200.0-0.0","405.9000000357628","","","","49","1,0,0","3","mountain","153","probe-53","0.8924712402991826","0.3233743818793882","0.09024859222449759","1","","","","","",""
"","do_trial","224","1165503","0.0-201.0-0.0","435.4000000357628","","","","49","1,1,0","3","mountain","154","probe-222","0.8809687873972425","0.36886532435429364","0.09576589248127833","1","","","","","",""
"","do_trial","225","1171651","0.0-202.0-0.0","604.7999999523163","","","","49","1,0,0","3","mountain","155","probe-103","0.8277474290618263","0.4884310979729277","0.05598435077148668","1","","","","","",""
"","do_trial","226","1177620","0.0-203.0-0.0","423.5","","","","49","1,0,0","3","mountain","156","probe-21","0.7996781014501763","0.47067979964154044","0.05022956933908281","1","","","","","",""
"","do_trial","227","1183551","0.0-204.0-0.0","385.7000000476837","","","","49","1,1,0","3","mountain","157","probe-160","0.920921526728785","0.36070141788762655","0.06264182553772367","1","","","","","",""
"","do_trial","228","1191860","0.0-205.0-0.0","2764.100000023842","","","","49","1,0,0","3","mountain","158","probe-25","0.8685824707585349","0.4444050429242393","0.06561587418417793","1","","","","","",""
"","do_trial","229","1199547","0.0-206.0-0.0","2142.599999964237","","","","49","1,0,0","3","mountain","159","probe-58","0.9309338813316304","0.578190978670453","0.05808991567149299","1","","","","","",""
"","do_bye","230","1201057","0.0-207.0-0.0","null","","","","null","","","","","","","","","","","","","","",""
"","do_travel","231","1207064","0.0-208.0-0.0","null","","","","null","","","","","","","","","","","","","","",""
"","do_welcome","232","1208573","0.0-208.0-1.0","null","","","","null","","","","","","","","","","","","","","",""
"","do_trial","233","1214509","0.0-209.0-0.0","390.19999998807907","","","","49","1,1,1","4","coast","160","probe-194","1","0.4821106450345416","0.07751057456563779","1","","","","","",""
"","do_trial","234","1221523","0.0-210.0-0.0","1469.699999988079","","","","50","1,0,0","4","coast","161","probe-159","1","0.5221446820189228","0.09867748408949656","0","","","","","",""
"","do_trial","235","1227692","0.0-211.0-0.0","622.9000000357628","","","","51","1,1,0","4","coast","162","probe-186","1","0.3508834977708291","0.14164740538065965","0","","","","","",""
"","do_trial","236","1233648","0.0-212.0-0.0","410.9000000357628","","","","49","1,0,0","4","coast","163","probe-195","1","0.37399748032428287","0.17348018849953697","1","","","","","",""
"","do_trial","237","1239569","0.0-213.0-0.0","376.0999999642372","","","","49","1,1,0","4","coast","164","probe-165","0.8809421554103293","0.4131132303475297","0.06073305360513007","1","","","","","",""
"","do_trial","238","1245463","0.0-214.0-0.0","348.19999998807907","","","","50","1,0,0","4","coast","165","probe-170","0.9182943365234064","0.37895034434218955","0.1479846339262888","0","","","","","",""
"","do_trial","239","1251357","0.0-215.0-0.0","353.0999999642372","","","","51","1,0,1","4","coast","166","probe-147","0.8507825468032623","0.4426949903763587","0.20302965003670634","1","","","","","",""
"","do_trial","240","1257374","0.0-216.0-0.0","470.69999998807907","","","","50","1,1,1","4","coast","167","probe-234","0.743749868891671","0.3813403890628553","0.3364873445265784","1","","","","","",""
"","do_trial","241","1263439","0.0-217.0-0.0","520.3999999761581","","","","50","1,0,0","4","coast","168","probe-212","0.7530851301060858","0.34937360168460563","0.26904273364892284","0","","","","","",""
"","do_trial","242","1269563","0.0-218.0-0.0","579.7000000476837","","","","51","1,0,1","4","coast","169","probe-150","0.7911331573648137","0.5197230949001513","0.14015005466580263","1","","","","","",""
"","do_trial","243","1276497","0.0-219.0-0.0","1388.300000011921","","","","50","1,1,0","4","coast","170","probe-190","0.5745814035606278","0.654054447392307","0.2924326768774013","1","","","","","",""
"","do_trial","244","1282555","0.0-220.0-0.0","516.4000000357628","","","","50","0,1,1","4","coast","171","probe-143","0.36282931171754945","0.637350189714602","0.3867791911933188","1","","","","","",""
"","do_trial","245","1289188","0.0-221.0-0.0","1087.199999988079","","","","50","1,1,0","4","coast","172","probe-139","0.32691807080291674","0.9193907073852757","0.24000838026521415","1","","","","","",""
"","do_trial","246","1295113","0.0-222.0-0.0","380","","","","50","0,0,0","4","coast","173","probe-179","0.37174575645767294","0.8565756880808043","0.33081138983131525","0","","","","","",""
"","do_trial","247","1300659","0.0-223.0-0.0","0.09999996423721313","","","","51","1,1,0","4","coast","174","probe-145","0.375173175834504","0.8406310892193912","0.34225418834074994","0","","","","","",""
"","do_trial","248","1307087","0.0-224.0-0.0","887.3000000119209","","","","49","1,1,0","4","coast","175","probe-201","0.15816452274721665","0.7982044339446369","0.32492676844110974","1","","","","","",""
"","do_trial","249","1313559","0.0-225.0-0.0","926.7000000476837","","","","50","0,1,1","4","coast","176","probe-219","0.157266602905214","0.8764381221254438","0.37964483572247604","1","","","","","",""
"","do_trial","250","1320476","0.0-226.0-0.0","1371.5999999642372","","","","51","0,1,0","4","coast","177","probe-184","0.06323067116680191","0.8567539077975738","0.3757544088863698","0","","","","","",""
"","do_trial","251","1326552","0.0-227.0-0.0","531.1000000238419","","","","49","0,1,0","4","coast","178","probe-08","0.07827474447859525","0.7438389053707095","0.4555424630419753","0","","","","","",""
"","do_trial","252","1332923","0.0-228.0-0.0","827.1000000238419","","","","50","1,1,0","4","coast","179","probe-204","0.20194838013134253","0.6541779168273694","0.396116974146191","1","","","","","",""
"","do_trial","253","1339496","0.0-229.0-0.0","1027.300000011921","","","","50","0,1,0","4","coast","180","probe-197","0.13581877273652232","0.7715164936881611","0.3103948502148598","1","","","","","",""
"","do_trial","254","1345902","0.0-230.0-0.0","860.8000000119209","","","","51","0,1,1","4","coast","181","probe-80","0.23664253807776972","0.7295839001507798","0.2705155850307813","1","","","","","",""
"","do_trial","255","1352414","0.0-231.0-0.0","967.5","","","","51","0,1,0","4","coast","182","probe-03","0.1553569612601615","0.8020714446821586","0.43957365896622913","0","","","","","",""
"","do_trial","256","1357960","0.0-232.0-0.0","0","","","","50","0,0,0","4","coast","183","probe-50","0.14265555866555724","0.8605851387404689","0.4440097144881906","0","","","","","",""
"","do_trial","257","1364243","0.0-233.0-0.0","740.3999999761581","","","","51","0,1,0","4","coast","184","probe-237","0.2611042056637404","0.8020612781715785","0.3345518781599004","0","","","","","",""
"","do_trial","258","1370247","0.0-234.0-0.0","456.89999997615814","","","","51","0,1,0","4","coast","185","probe-157","0.18255120580217898","0.9217407388993354","0.39582007356905274","0","","","","","",""
"","do_trial","259","1375892","0.0-235.0-0.0","101.19999998807907","","","","49","0,1,1","4","coast","186","probe-128","0.10356361728958355","0.8132892200551453","0.32899796784861296","0","","","","","",""
"","do_trial","260","1381567","0.0-236.0-0.0","134.39999997615814","","","","51","0,1,1","4","coast","187","probe-174","0.06719557054596564","0.6763491640531097","0.3794570958695344","1","","","","","",""
"","do_trial","261","1387215","0.0-237.0-0.0","103.80000001192093","","","","51","1,1,1","4","coast","188","probe-153","0.15636492137504943","0.7401257433720582","0.4432567945747669","1","","","","","",""
"","do_trial","262","1392758","0.0-238.0-0.0","0","","","","50","0,1,0","4","coast","189","probe-171","0.0750109495525772","0.7119824307326276","0.41046228461156986","1","","","","","",""
"","do_trial","263","1398489","0.0-239.0-0.0","185.0999999642372","","","","49","0,0,1","4","coast","190","probe-175","0.08690762708010367","0.8622070303164546","0.5026697524921633","0","","","","","",""
"","do_trial","264","1404467","0.0-240.0-0.0","432.80000001192093","","","","50","0,1,1","4","coast","191","probe-61","0.17756218190821407","0.8978407101992092","0.4464071386297306","1","","","","","",""
"","do_trial","265","1411040","0.0-241.0-0.0","1027.800000011921","","","","50","1,1,1","4","coast","192","probe-158","0.23926851687048215","0.8872030712808949","0.4787593865676086","1","","","","","",""
"","do_trial","266","1416886","0.0-242.0-0.0","301.10000002384186","","","","51","0,1,0","4","coast","193","probe-120","0.19392334453904347","0.7944275287840593","0.3521573438549707","0","","","","","",""
"","do_trial","267","1423107","0.0-243.0-0.0","675.6999999880791","","","","50","0,1,0","4","coast","194","probe-05","0.09690234030911686","0.8629968538240502","0.343471510491729","1","","","","","",""
"","do_trial","268","1428878","0.0-244.0-0.0","228.89999997615814","","","","50","0,1,0","4","coast","195","probe-92","0.16335616345538959","0.9310519094641028","0.3460138431283381","1","","","","","",""
"","do_trial","269","1434832","0.0-245.0-0.0","411.80000001192093","","","","51","0,0,0","4","coast","196","probe-87","0.16004574220881954","0.9031388113468326","0.42389894339541456","0","","","","","",""
"","do_trial","270","1441233","0.0-246.0-0.0","855.8000000119209","","","","50","0,1,1","4","coast","197","probe-42","0.16918893138538202","0.8132043713305876","0.5755151713424345","1","","","","","",""
"","do_trial","271","1447400","0.0-247.0-0.0","621","","","","50","0,0,1","4","coast","198","probe-155","0.10611571280294006","0.7340720351403462","0.5111368809170286","0","","","","","",""
"","do_trial","272","1453288","0.0-248.0-0.0","348.89999997615814","","","","49","0,1,1","4","coast","199","probe-130","0.13152401340457676","0.842858680734015","0.5156825851764092","0","","","","","",""
"","do_bye","273","1454795","0.0-249.0-0.0","null","","","","null","","","","","","","","","","","","","","",""
"","do_travel","274","1460802","0.0-250.0-0.0","null","","","","null","","","","","","","","","","","","","","",""
"","do_welcome","275","1462307","0.0-250.0-1.0","null","","","","null","","","","","","","","","","","","","","",""
"","do_trial","276","1468231","0.0-251.0-0.0","379.19999998807907","","","","51","0,1,1","5","forest","200","probe-75","0.05247631056476326","1","0.6911433985296059","1","","","","","",""
"","do_trial","277","1474203","0.0-252.0-0.0","432.19999998807907","","","","51","0,1,0","5","forest","201","probe-109","0.08346638417865453","1","0.5919847904110125","0","","","","","",""
"","do_trial","278","1480400","0.0-253.0-0.0","652.2999999523163","","","","51","0,1,0","5","forest","202","probe-116","0.06282798272657476","1","0.6241188602377293","0","","","","","",""
"","do_trial","279","1486242","0.0-254.0-0.0","299.89999997615814","","","","50","0,1,1","5","forest","203","probe-129","0.1979703986039657","1","0.4616999998516542","1","","","","","",""
"","do_trial","280","1493383","0.0-255.0-0.0","1596.8999999761581","","","","49","0,1,0","5","forest","204","probe-206","0.10404527772390529","0.8501037198270784","0.2916233466124342","0","","","","","",""
"","do_trial","281","1499375","0.0-256.0-0.0","452.69999998807907","","","","50","0,1,0","5","forest","205","probe-176","0.16208511942014717","0.9235961928343989","0.2824471125706456","1","","","","","",""
"","do_trial","282","1505859","0.0-257.0-0.0","938","","","","50","0,1,0","5","forest","206","probe-126","0.20107845125256113","0.8091386830259211","0.25450218493544574","1","","","","","",""
"","do_trial","283","1514035","0.0-258.0-0.0","2631","","","","50","1,1,1","5","forest","207","probe-72","0.09135199592956866","0.8288844027804446","0.33617908365498694","1","","","","","",""
"","do_trial","284","1520275","0.0-259.0-0.0","695.3999999761581","","","","49","1,0,1","5","forest","208","probe-180","0.11405757513929929","0.7723188835717427","0.24388222785979805","1","","","","","",""
"","do_trial","285","1526981","0.0-260.0-0.0","1161.3999999761581","","","","49","0,1,0","5","forest","209","probe-15","0.06756219133269976","0.8682283488037623","0.3362435796775526","0","","","","","",""
"","do_trial","286","1533192","0.0-261.0-0.0","666","","","","49","0,1,0","5","forest","210","probe-207","0.472833772967863","0.511248882631074","0.3039788041215648","0","","","","","",""
"","do_trial","287","1539281","0.0-262.0-0.0","548.1999999880791","","","","50","0,1,0","5","forest","211","probe-36","0.5044843297360551","0.28666761488081444","0.19225250012497505","1","","","","","",""
"","do_trial","288","1546003","0.0-263.0-0.0","1179.300000011921","","","","51","0,1,0","5","forest","212","probe-140","0.5771592847041009","0.3515544921581349","0.19353550229922045","0","","","","","",""
"","do_trial","289","1553343","0.0-264.0-0.0","1794.1000000238419","","","","50","1,0,0","5","forest","213","probe-66","0.5209107319562113","0.15207040467892005","0.2405118351890054","0","","","","","",""
"","do_trial","290","1559196","0.0-265.0-0.0","308.89999997615814","","","","51","1,0,0","5","forest","214","probe-114","0.5578318231878344","0.12602238334652668","0.33394123682612503","0","","","","","",""
"","do_trial","291","1565106","0.0-266.0-0.0","362.7999999523163","","","","49","1,0,1","5","forest","215","probe-172","0.4968467360559569","0.05208746180341151","0.4626055872043074","1","","","","","",""
"","do_trial","292","1571424","0.0-267.0-0.0","776.6999999880791","","","","49","1,0,1","5","forest","216","probe-81","0.6862639047578662","0.17222768209106384","0.2840956647605268","1","","","","","",""
"","do_trial","293","1577342","0.0-268.0-0.0","374.30000001192093","","","","49","1,1,0","5","forest","217","probe-76","0.6600056585381087","0.08557762008452297","0.31148495042459984","1","","","","","",""
"","do_trial","294","1584630","0.0-269.0-0.0","1748.2999999523163","","","","51","1,0,0","5","forest","218","probe-239","0.744223104389673","0.09936472924198635","0.2715106959022997","0","","","","","",""
"","do_trial","295","1590393","0.0-270.0-0.0","215.19999998807907","","","","51","1,0,0","5","forest","219","probe-136","0.6319905300290645","0.07979006717555576","0.22600175427582048","0","","","","","",""
"","do_trial","296","1596571","0.0-271.0-0.0","633.3000000119209","","","","50","1,0,1","5","forest","220","probe-151","0.7370052542481397","0.12114423044279057","0.34652161583726065","0","","","","","",""
"","do_trial","297","1602302","0.0-272.0-0.0","185.60000002384186","","","","50","1,0,0","5","forest","221","probe-39","0.8606781731711155","0.16224736611642804","0.24646634774206605","0","","","","","",""
"","do_trial","298","1608932","0.0-273.0-0.0","1085.5","","","","50","1,0,0","5","forest","222","probe-144","0.9367244255518529","0.2965071081624561","0.34089634729668544","0","","","","","",""
"","do_trial","299","1616381","0.0-274.0-0.0","1903.300000011921","","","","51","1,1,0","5","forest","223","probe-97","0.8068821751879577","0.29985936207057323","0.20684413668623586","0","","","","","",""
"","do_trial","300","1622306","0.0-275.0-0.0","379.2999999523163","","","","49","1,0,0","5","forest","224","probe-20","0.7827290762650257","0.15059377497469562","0.17637863062494577","1","","","","","",""
"","do_trial","301","1628262","0.0-276.0-0.0","410.19999998807907","","","","50","1,0,1","5","forest","225","probe-113","0.8341538942396552","0.14574803183697926","0.37553560139992526","0","","","","","",""
"","do_trial","302","1634050","0.0-277.0-0.0","243.69999998807907","","","","51","1,0,0","5","forest","226","probe-73","0.7500319871058554","0.06735523923984561","0.3554840908896413","0","","","","","",""
"","do_trial","303","1639808","0.0-278.0-0.0","212.89999997615814","","","","51","0,0,1","5","forest","227","probe-228","0.8244481947442602","0.18576195330590387","0.2642059120262844","1","","","","","",""
"","do_trial","304","1647100","0.0-279.0-0.0","1750.5","","","","51","1,0,0","5","forest","228","probe-85","0.817586105609455","0.07206151707991575","0.32142765376831045","0","","","","","",""
"","do_trial","305","1652775","0.0-280.0-0.0","129.5999999642372","","","","51","1,0,0","5","forest","229","probe-98","0.8829883911609695","0.14573230455677977","0.4054133210017688","0","","","","","",""
"","do_trial","306","1658417","0.0-281.0-0.0","99","","","","51","1,0,0","5","forest","230","probe-118","0.8942414226951195","0.24435647632963808","0.48000761386870794","0","","","","","",""
"","do_trial","307","1664338","0.0-282.0-0.0","376.4000000357628","","","","49","1,0,1","5","forest","231","probe-199","0.8477300700516862","0.16344647377616142","0.5344343373965393","1","","","","","",""
"","do_trial","308","1670373","0.0-283.0-0.0","489.5","","","","50","0,0,1","5","forest","232","probe-189","0.8269314135692888","0.15870741284923826","0.531017761784443","0","","","","","",""
"","do_trial","309","1676215","0.0-284.0-0.0","296.7000000476837","","","","49","1,0,0","5","forest","233","probe-203","0.8696665819116735","0.15446588001364953","0.5494390366860257","1","","","","","",""
"","do_trial","310","1681886","0.0-285.0-0.0","127.89999997615814","","","","51","1,0,0","5","forest","234","probe-119","0.9322894481114049","0.16455126255443955","0.44719288102516297","0","","","","","",""
"","do_trial","311","1688092","0.0-286.0-0.0","660.0999999642372","","","","50","1,0,1","5","forest","235","probe-152","0.8437659407410094","0.16740089866534302","0.3898490855189862","0","","","","","",""
"","do_trial","312","1693647","0.0-287.0-0.0","9.800000011920929","","","","49","1,0,1","5","forest","236","probe-04","0.8248830778548535","0.0669022048690134","0.43155864247908937","1","","","","","",""
"","do_trial","313","1700288","0.0-288.0-0.0","1096.4000000357628","","","","51","1,0,1","5","forest","237","probe-202","0.7902061462255244","0.1040836066816365","0.3650198049774764","1","","","","","",""
"","do_trial","314","1706275","0.0-289.0-0.0","441.39999997615814","","","","51","0,1,0","5","forest","238","probe-138","0.7306882504404608","0.07284507749303566","0.4306267107976385","0","","","","","",""
"","do_trial","315","1712874","0.0-290.0-0.0","1053.6000000238419","","","","50","1,0,1","5","forest","239","probe-131","0.8391407966904576","0.08337780350142475","0.48417293481751267","0","","","","","",""
"","do_bye","316","1714383","0.0-291.0-0.0","null","","","","null","","","","","","","","","","","","","","",""
"","html-keyboard-response","317","1826556","0.0-291.0-1.0","112168.19999998808","<div class='center'><p>You may take a break now!</p><p> Stretch for a little bit. Get a glass of water.</p><p> You have two minutes to rest. Then, the game will automatically move on.</p><p>If you’d like to get started on the second half of the experiment sooner, then press the <b>space bar</b></p></div>","32","","","","","","","","","","","","","","","","",""
"","html-keyboard-response","318","1834238","0.0-291.0-2.0","7680.899999976158","<div class='center'><p>You’ve arrived at the final destination of your journey! Unfortunately, it’s very foggy out, so you won’t be able to see it in the distance like in previous places you've visited.</p><p>You’ll still be deciding which pirates you want to rob ships. However, because of the fog you also won’t be able to see the ship in the distance. </p><p><b>[Press the space bar to continue]</b></p></div>","32","","","","","","","","","","","","","","","","",""
"","html-keyboard-response","319","1841291","0.0-291.0-3.0","7052.300000011921","<div class='center'><p> Sometimes you’ll be asked if you’ve seen a ship before (see the example below). You will use the 5, 6, 7, 8 buttons on your keyboard to respond. </p><p> If you definitely did not see the ship, pick the the big red thumbs down by pressing <b>5</b>.</p><p> If you don’t think you saw it but aren’t sure, then pick the small red thumbs down by pressing <b>6</b>.</p><p> If you think you might have seen it, then pick the small green thumbs up by pressing <b>7</b>.</p><p> If you definitely did see this ship before, then pick the big thumb green thumbs up by pressing <b>8</b>.</p><p> If you recall correctly, then you’ll get a gold coin!</p><p><b>[Press the space bar to begin the next phase of the experiment]</b></p><p><img src='run_exp/static/images/example_recog_trial.png' height='500'></p></div>","32","","","","","","","","","","","","","","","","",""
"","do_welcome","320","1842800","0.0-291.0-4.0","null","","","","null","","","","","","","","","","","","","","",""
"","do_trial","321","1847964","0.0-292.0-0.0","1619.5","","","","50","1,0,1","6","blank","240","null","1","0.11487211106178748","0.2998185941339665","0","","","","","",""
"","do_trial","322","1852761","0.0-293.0-0.0","1252","","","","51","1,0,0","6","blank","241","null","0.8640280183890934","0.09128538052663068","0.4485699982408785","0","","","","","",""
"","do_recog","323","1857604","0.0-294.0-0.0","3334.600000023842","","","","53","","","","242","probe-165","","","","","1","[object Object]","164","4","0",""
"","do_trial","324","1862732","0.0-295.0-0.0","1587","","","","51","1,1,0","6","blank","243","null","0.8487691732241305","0.11347220048851442","0.49466087552201465","0","","","","","",""
"","do_recog","325","1864936","0.0-296.0-0.0","693.8000000119209","","","","53","","","","244","probe-22","","","","","1","[object Object]","47","1","0",""
"","do_trial","326","1868878","0.0-297.0-0.0","397.10000002384186","","","","49","1,0,1","6","blank","245","null","0.6886245583239353","0.10114120311038846","0.4992851061059973","1","","","","","",""
"","do_recog","327","1871272","0.0-298.0-0.0","883.5","","","","54","","","","246","probe-256","","","","","0","[object Object]","null","null","1",""
"","do_trial","328","1875247","0.0-299.0-0.0","431.80000001192093","","","","51","1,0,0","6","blank","247","null","0.664244499728049","0.05354663526805013","0.37237260605809525","0","","","","","",""
"","do_recog","329","1877104","0.0-300.0-0.0","345.89999997615814","","","","54","","","","248","probe-180","","","","","1","[object Object]","208","5","0",""
"","do_trial","330","1881197","0.0-301.0-0.0","547.5","","","","51","1,0,1","6","blank","249","null","0.7877589569489284","0.06552100396814317","0.4134826588162449","1","","","","","",""
"","do_recog","331","1883132","0.0-302.0-0.0","424.9000000357628","","","","55","","","","250","probe-212","","","","","1","[object Object]","168","4","1",""
"","do_trial","332","1887524","0.0-303.0-0.0","846.6000000238419","","","","49","0,0,0","6","blank","251","null","0.7188201602206543","0.0955279669345482","0.46157236445903443","0","","","","","",""
"","do_trial","333","1891807","0.0-304.0-0.0","741.6999999880791","","","","50","1,0,0","6","blank","252","null","0.6502043197764223","0.11338565763496301","0.5625453653903222","0","","","","","",""
"","do_trial","334","1895685","0.0-305.0-0.0","332.89999997615814","","","","51","0,0,1","6","blank","253","null","0.7664756997084656","0.07240033584028205","0.6014159600676547","1","","","","","",""
"","do_trial","335","1899562","0.0-306.0-0.0","331.30000001192093","","","","49","1,0,1","6","blank","254","null","0.8595556377883652","0.07069789969331308","0.6169117321687594","1","","","","","",""
"","do_recog","336","1903200","0.0-307.0-0.0","2127.100000023842","","","","53","","","","255","probe-247","","","","","0","[object Object]","null","null","1",""
"","do_trial","337","1908020","0.0-308.0-0.0","1276.0999999642372","","","","51","1,0,1","6","blank","256","null","0.38242280821008146","0.39014407414880836","0.5024886047321643","1","","","","","",""
"","do_trial","338","1912350","0.0-309.0-0.0","784.5","","","","49","1,1,0","6","blank","257","null","0.33517880974689357","0.6169384282044231","0.5414636568454948","1","","","","","",""
"","do_recog","339","1914546","0.0-310.0-0.0","685.1000000238419","","","","53","","","","258","probe-75","","","","","1","[object Object]","200","5","0",""
"","do_trial","340","1919328","0.0-311.0-0.0","1236.7999999523163","","","","51","0,0,0","6","blank","259","null","0.22299707242904343","0.6958077031089187","0.38306208506519684","0","","","","","",""
"","do_trial","341","1923301","0.0-312.0-0.0","427.19999998807907","","","","51","0,1,1","6","blank","260","null","0.10051500797622014","0.8796696593434539","0.41386879534533616","1","","","","","",""
"","do_trial","342","1927578","0.0-313.0-0.0","737.5","","","","49","0,1,1","6","blank","261","null","0.1672408875368855","0.8063997423715671","0.560113707968259","0","","","","","",""
"","do_recog","343","1929707","0.0-314.0-0.0","617.6000000238419","","","","53","","","","262","probe-147","","","","","1","[object Object]","166","4","0",""
"","do_trial","344","1933649","0.0-315.0-0.0","398.19999998807907","","","","51","0,1,0","6","blank","263","null","0.08143326997307028","0.8100345829744572","0.4542111585707451","0","","","","","",""
"","do_trial","345","1937631","0.0-316.0-0.0","437.60000002384186","","","","51","1,1,0","6","blank","264","null","0.1418914196917199","0.6879671257265331","0.44485135132785125","0","","","","","",""
"","do_recog","346","1940164","0.0-317.0-0.0","1024.3999999761581","","","","54","","","","265","probe-186","","","","","1","[object Object]","162","4","0",""
"","do_trial","347","1946019","0.0-318.0-0.0","2309.899999976158","","","","50","0,0,0","6","blank","266","null","0.08211681092511924","0.8190777023675543","0.4885250617927085","0","","","","","",""
"","do_trial","348","1950387","0.0-319.0-0.0","823.3000000119209","","","","50","0,1,0","6","blank","267","null","0.15710555021395942","0.8748250188390019","0.3893023853366526","1","","","","","",""
"","do_trial","349","1954393","0.0-320.0-0.0","465.9000000357628","","","","51","0,1,0","6","blank","268","null","0.14402714282697351","0.733060696506485","0.36004425579974","0","","","","","",""
"","do_trial","350","1959003","0.0-321.0-0.0","1065.6000000238419","","","","50","0,1,0","6","blank","269","null","0.18662955818798857","0.7617176714139373","0.2275242746175528","1","","","","","",""
"","do_recog","351","1962246","0.0-322.0-0.0","1731.699999988079","","","","53","","","","270","probe-14","","","","","1","[object Object]","40","1","0",""
"","do_trial","352","1968543","0.0-323.0-0.0","2753.399999976158","","","","51","0,1,0","6","blank","271","null","0.13967317903501708","0.8306531581282759","0.1866313875531726","0","","","","","",""
"","do_trial","353","1972559","0.0-324.0-0.0","470.69999998807907","","","","50","0,1,0","6","blank","272","null","0.10335217085939952","0.7378231905620873","0.327715037627067","1","","","","","",""
"","do_recog","354","1974690","0.0-325.0-0.0","619.5","","","","55","","","","273","probe-116","","","","","1","[object Object]","202","5","1",""
"","do_trial","355","1978801","0.0-326.0-0.0","562.0999999642372","","","","49","0,1,0","6","blank","274","null","0.10934854165022094","0.9265929135801451","0.398441354914964","0","","","","","",""
"","do_recog","356","1980889","0.0-327.0-0.0","576.6000000238419","","","","55","","","","275","probe-255","","","","","0","[object Object]","null","null","0",""
"","do_trial","357","1984929","0.0-328.0-0.0","484.60000002384186","","","","51","0,1,0","6","blank","276","null","0.06230533075998552","0.8483660145196145","0.2859936347071531","0","","","","","",""
"","do_recog","358","1987505","0.0-329.0-0.0","1064.8999999761581","","","","54","","","","277","probe-196","","","","","1","[object Object]","89","2","0",""
"","do_trial","359","1991628","0.0-330.0-0.0","581.1000000238419","","","","49","0,1,1","6","blank","278","null","0.05589049440105038","0.9386845943144515","0.3929186973436808","0","","","","","",""
"","do_trial","360","1997671","0.0-331.0-0.0","null","","","","null","0,1,1","6","blank","279","null","0.08926678204648089","0.8721503165062565","0.6082533317827965","","","","","","",""
"","do_trial","361","2001555","0.0-332.0-0.0","338.5999999642372","","","","51","0,1,0","6","blank","280","null","0.09080385900038937","0.7963768294621332","0.6708596660151974","0","","","","","",""
"","do_trial","362","2005801","0.0-333.0-0.0","700.6999999880791","","","","51","0,1,0","6","blank","281","null","0.09118624382945047","0.7900067594196881","0.5418182988196937","0","","","","","",""
"","do_recog","363","2008044","0.0-334.0-0.0","737.1999999880791","","","","55","","","","282","probe-224","","","","","1","[object Object]","83","2","1",""
"","do_trial","364","2011589","0.0-335.0-0.0","0.19999998807907104","","","","51","0,1,0","6","blank","283","null","0.1296457781049449","0.8200629213262818","0.488414763785827","0","","","","","",""
"","do_recog","365","2013238","0.0-336.0-0.0","141.10000002384186","","","","55","","","","284","probe-230","","","","","1","[object Object]","123","3","1",""
"","do_trial","366","2016918","0.0-337.0-0.0","134.5","","","","50","0,1,0","6","blank","285","null","0.0541133341837446","1","0.44964958990809273","1","","","","","",""
"","do_trial","367","2020878","0.0-338.0-0.0","415","","","","50","0,1,0","6","blank","286","null","0.12121950973031735","0.7555681854761261","0.3756062465428671","1","","","","","",""
"","do_recog","368","2022856","0.0-339.0-0.0","472.0999999642372","","","","55","","","","287","probe-166","","","","","1","[object Object]","84","2","1",""
"","do_trial","369","2026474","0.0-340.0-0.0","74.59999996423721","","","","50","0,1,0","6","blank","288","null","0.14861261544314716","0.7913818226707363","0.3842239173801011","1","","","","","",""
"","do_trial","370","2030249","0.0-341.0-0.0","232.30000001192093","","","","50","0,1,1","6","blank","289","null","0.20506924405802793","0.787252678312611","0.47489359242896356","1","","","","","",""
"","do_trial","371","2033938","0.0-342.0-0.0","143.5","","","","50","0,1,1","6","blank","290","null","0.3044657142300546","0.8195903260225456","0.4461992311189069","1","","","","","",""
"","do_trial","372","2037561","0.0-343.0-0.0","78.90000003576279","","","","50","0,1,0","6","blank","291","null","0.12122916907642381","0.815760381550895","0.4675219649578331","1","","","","","",""
"","do_recog","373","2039113","0.0-344.0-0.0","41.39999997615814","","","","55","","","","292","probe-218","","","","","1","[object Object]","127","3","1",""
"","do_trial","374","2042657","0.0-345.0-0.0","0.10000002384185791","","","","50","0,1,0","6","blank","293","null","0.06770039906897406","0.9266445735141552","0.3284486578357621","1","","","","","",""
"","do_trial","375","2046213","0.0-346.0-0.0","10","","","","50","0,1,0","6","blank","294","null","0.10070091388677421","0.8878345803710491","0.339486251289105","1","","","","","",""
"","do_trial","376","2049759","0.0-347.0-0.0","0.10000002384185791","","","","50","0,1,1","6","blank","295","null","0.11402326854902955","0.8206236539584751","0.45200373118229636","1","","","","","",""
"","do_recog","377","2051649","0.0-348.0-0.0","379.39999997615814","","","","55","","","","296","probe-206","","","","","1","[object Object]","204","5","1",""
"","do_trial","378","2055471","0.0-349.0-0.0","278.80000001192093","","","","50","0,1,1","6","blank","297","null","0.13728202856187652","0.8580377710011069","0.45189258588839126","1","","","","","",""
"","do_trial","379","2059516","0.0-350.0-0.0","503.30000001192093","","","","51","1,1,1","6","blank","298","null","0.11403096625309056","0.7811823839781523","0.5967372881663358","1","","","","","",""
"","do_trial","380","2063743","0.0-351.0-0.0","683.9000000357628","","","","51","0,1,1","6","blank","299","null","0.18413774625819498","0.8242509660436228","0.5905529325234454","1","","","","","",""
"","do_trial","381","2067457","0.0-352.0-0.0","168","","","","51","0,1,0","6","blank","300","null","0.31070934200717915","0.6287645332441101","0.3320982218098466","0","","","","","",""
"","do_recog","382","2069592","0.0-353.0-0.0","624.5999999642372","","","","54","","","","301","probe-253","","","","","0","[object Object]","null","null","1",""
"","do_trial","383","2074288","0.0-354.0-0.0","1153.5999999642372","","","","50","0,0,0","6","blank","302","null","0.3531126081988103","0.24491279435629779","0.18215375462610298","0","","","","","",""
"","do_recog","384","2076718","0.0-355.0-0.0","923.5999999642372","","","","54","","","","303","probe-109","","","","","1","[object Object]","201","5","0",""
"","do_trial","385","2081159","0.0-356.0-0.0","893.1000000238419","","","","50","0,0,0","6","blank","304","null","0.4908604458373086","0.263101990534733","0.10842872976539505","0","","","","","",""
"","do_recog","386","2082748","0.0-357.0-0.0","82.5","","","","55","","","","305","probe-250","","","","","0","[object Object]","null","null","0",""
"","do_trial","387","2087092","0.0-358.0-0.0","799.9000000357628","","","","50","0,0,0","6","blank","306","null","0.4182715755977507","0.26672051310671635","0.07390328360160921","0","","","","","",""
"","do_recog","388","2088859","0.0-359.0-0.0","255.29999995231628","","","","55","","","","307","probe-26","","","","","1","[object Object]","129","3","1",""
"","do_trial","389","2092491","0.0-360.0-0.0","87.79999995231628","","","","50","1,0,0","6","blank","308","null","0.42837644143734954","0.174184332025239","0.19629306525779136","0","","","","","",""
"","do_recog","390","2094682","0.0-361.0-0.0","680.1000000238419","","","","55","","","","309","probe-185","","","","","1","[object Object]","121","3","1",""
"","do_trial","391","2098727","0.0-362.0-0.0","498.60000002384186","","","","50","1,0,0","6","blank","310","null","0.578760177180389","0.25526210329013554","0.1901418467557798","0","","","","","",""
"","do_recog","392","2100294","0.0-363.0-0.0","58.200000047683716","","","","55","","","","311","probe-173","","","","","1","[object Object]","80","2","1",""
"","do_trial","393","2104311","0.0-364.0-0.0","474.0999999642372","","","","50","0,0,0","6","blank","312","null","0.6156122733391147","0.23625810630005264","0.164887099302972","0","","","","","",""
"","do_recog","394","2105936","0.0-365.0-0.0","117.30000001192093","","","","55","","","","313","probe-57","","","","","1","[object Object]","46","1","1",""
"","do_trial","395","2111394","0.0-366.0-0.0","1913.1000000238419","","","","50","0,0,0","6","blank","314","null","0.6104684774256208","0.29552672931184637","0.18798733971646123","0","","","","","",""
"","do_recog","396","2113128","0.0-367.0-0.0","226.5","","","","55","","","","315","probe-195","","","","","1","[object Object]","163","4","1",""
"","do_trial","397","2117896","0.0-368.0-0.0","1226.5999999642372","","","","51","0,1,1","6","blank","316","null","0.6331090450369738","0.20878778662179037","0.14803422049817688","1","","","","","",""
"","do_recog","398","2119803","0.0-369.0-0.0","396.9000000357628","","","","55","","","","317","probe-48","","","","","1","[object Object]","42","1","1",""
"","do_trial","399","2124187","0.0-370.0-0.0","839.0999999642372","","","","50","1,0,0","6","blank","318","null","0.5933525894645252","0.11093099600990723","0.1395289413587417","0","","","","","",""
"","do_trial","400","2128763","0.0-371.0-0.0","1029.3999999761581","","","","50","0,0,1","6","blank","319","null","0.5998345559848834","0.1646784091802037","0.07715355301137033","0","","","","","",""
"","do_recog","401","2130736","0.0-372.0-0.0","462.5","","","","55","","","","320","probe-122","","","","","1","[object Object]","124","3","1",""
"","do_trial","402","2135900","0.0-373.0-0.0","1619","","","","50","0,1,0","6","blank","321","null","0.7100186782733323","0.27726828369640794","0.122102391598986","1","","","","","",""
"","do_recog","403","2137901","0.0-374.0-0.0","494.39999997615814","","","","55","","","","322","probe-234","","","","","1","[object Object]","167","4","1",""
"","do_trial","404","2143880","0.0-375.0-0.0","2436.699999988079","","","","50","1,1,0","6","blank","323","null","0.764442809239469","0.3460502063647396","0.07659694743750814","1","","","","","",""
"","do_recog","405","2146053","0.0-376.0-0.0","663.5","","","","55","","","","324","probe-252","","","","","0","[object Object]","null","null","0",""
"","do_trial","406","2150846","0.0-377.0-0.0","1253","","","","50","1,1,0","6","blank","325","null","0.6647591981835221","0.31961168991875005","0.0719107931367871","1","","","","","",""
"","do_recog","407","2153071","0.0-378.0-0.0","714.4000000357628","","","","53","","","","326","probe-63","","","","","1","[object Object]","88","2","0",""
"","do_trial","408","2158552","0.0-379.0-0.0","1936.1000000238419","","","","50","1,0,0","6","blank","327","null","0.8472713727707132","0.40174902879778013","0.07216986331390295","0","","","","","",""
"","do_recog","409","2161483","0.0-380.0-0.0","1420.300000011921","","","","55","","","","328","probe-194","","","","","1","[object Object]","160","4","1",""
"","do_trial","410","2167177","0.0-381.0-0.0","2150.699999988079","","","","50","1,0,0","6","blank","329","null","0.8841776952841575","0.28807580272565164","0.059975336206574054","0","","","","","",""
"","do_trial","411","2172757","0.0-382.0-0.0","2035.0999999642372","","","","50","1,0,0","6","blank","330","null","0.8153680351238373","0.3263121330499543","0.20468949806657605","0","","","","","",""
"","do_trial","412","2177104","0.0-383.0-0.0","802","","","","51","1,0,0","6","blank","331","null","0.7049831181826229","0.2786304228769005","0.2536446493033847","0","","","","","",""
"","do_trial","413","2181954","0.0-384.0-0.0","1307.2999999523163","","","","50","1,1,0","6","blank","332","null","1","0.3012494164443259","0.302125136644699","1","","","","","",""
"","do_trial","414","2186012","0.0-385.0-0.0","507.5999999642372","","","","51","0,1,0","6","blank","333","null","0.8010609690179287","0.3783942060102745","0.3219710840569839","0","","","","","",""
"","do_recog","415","2188303","0.0-386.0-0.0","780","","","","55","","","","334","probe-150","","","","","1","[object Object]","169","4","1",""
"","do_trial","416","2194221","0.0-387.0-0.0","2373.600000023842","","","","51","1,0,1","6","blank","335","null","0.75417961176566","0.42602714406359754","0.272648236686114","1","","","","","",""
"","do_recog","417","2197807","0.0-388.0-0.0","2075.199999988079","","","","54","","","","336","probe-129","","","","","1","[object Object]","203","5","0",""
"","do_trial","418","2202781","0.0-389.0-0.0","1428.6000000238419","","","","50","1,0,0","6","blank","337","null","0.7901900867403902","0.5141634780901368","0.17002691887632682","0","","","","","",""
"","do_trial","419","2207357","0.0-390.0-0.0","1030.0999999642372","","","","50","1,0,0","6","blank","338","null","0.8227719681943311","0.39507712361095515","0.05218019027710948","0","","","","","",""
"","do_trial","420","2210899","0.0-391.0-0.0","0.10000002384185791","","","","50","1,1,0","6","blank","339","null","0.9166086130031584","0.4080593006033916","0.1335198640144441","1","","","","","",""
"","do_trial","421","2215045","0.0-392.0-0.0","601.6000000238419","","","","50","1,0,0","6","blank","340","null","0.820914362824805","0.34898171577330545","0.07281340480155385","0","","","","","",""
"","do_recog","422","2217370","0.0-393.0-0.0","814.0999999642372","","","","55","","","","341","probe-126","","","","","1","[object Object]","206","5","1",""
"","do_trial","423","2221527","0.0-394.0-0.0","611.6999999880791","","","","51","1,0,0","6","blank","342","null","0.7304451305103814","0.5163218845427305","0.05408783471617056","0","","","","","",""
"","do_recog","424","2223747","0.0-395.0-0.0","711.0999999642372","","","","55","","","","343","probe-19","","","","","1","[object Object]","128","3","1",""
"","do_trial","425","2227884","0.0-396.0-0.0","593.8999999761581","","","","51","1,1,1","6","blank","344","null","0.9336448088292127","0.4700010168113581","0.15987328305123846","1","","","","","",""
"","do_recog","426","2229590","0.0-397.0-0.0","194.5","","","","55","","","","345","probe-221","","","","","1","[object Object]","48","1","1",""
"","do_trial","427","2233132","0.0-398.0-0.0","0","","","","51","1,0,0","6","blank","346","null","0.750319313201302","0.48267354171821536","0.11402913883371643","0","","","","","",""
"","do_trial","428","2237003","0.0-399.0-0.0","327.60000002384186","","","","51","1,0,0","6","blank","347","null","0.499564106888131","0.5405667932560824","0.2872389819779047","0","","","","","",""
"","do_recog","429","2238992","0.0-400.0-0.0","482.0999999642372","","","","55","","","","348","probe-176","","","","","1","[object Object]","205","5","1",""
"","do_trial","430","2243809","0.0-401.0-0.0","1270.8999999761581","","","","51","0,1,1","6","blank","349","null","0.2692659954876256","0.60902307548747","0.45735164810453754","1","","","","","",""
"","do_recog","431","2245398","0.0-402.0-0.0","78.10000002384186","","","","55","","","","350","probe-159","","","","","1","[object Object]","161","4","1",""
"","do_trial","432","2249635","0.0-403.0-0.0","694.8000000119209","","","","51","0,0,1","6","blank","351","null","0.31241496311095845","0.511527123473471","0.4665452166513395","1","","","","","",""
"","do_trial","433","2253853","0.0-404.0-0.0","672.8000000119209","","","","51","0,0,1","6","blank","352","null","0.32091003466542845","0.33028002066098694","0.43634022497840536","1","","","","","",""
"","do_recog","434","2256222","0.0-405.0-0.0","862.5","","","","55","","","","353","probe-24","","","","","1","[object Object]","120","3","1",""
"","do_trial","435","2260094","0.0-406.0-0.0","328.60000002384186","","","","51","1,0,1","6","blank","354","null","0.13733015200466986","0.31987930911768897","0.6476277441498006","1","","","","","",""
"","do_trial","436","2263781","0.0-407.0-0.0","141.39999997615814","","","","51","0,0,1","6","blank","355","null","0.09881952137345365","0.28584996136873253","0.6268509218619788","1","","","","","",""
"","do_trial","437","2268206","0.0-408.0-0.0","883.3000000119209","","","","51","1,1,0","6","blank","356","null","0.18775668076714383","0.24969023548058705","0.665361388141568","0","","","","","",""
"","do_trial","438","2272687","0.0-409.0-0.0","935.3999999761581","","","","50","0,0,1","6","blank","357","null","0.18996900203714875","0.4009817846140475","0.7440324890838501","0","","","","","",""
"","do_recog","439","2275249","0.0-410.0-0.0","1051.6000000238419","","","","55","","","","358","probe-93","","","","","1","[object Object]","125","3","1",""
"","do_trial","440","2279501","0.0-411.0-0.0","706.9000000357628","","","","50","1,0,1","6","blank","359","null","0.1515068197129143","0.3830782435717551","0.6709688203018633","0","","","","","",""
"","do_recog","441","2281754","0.0-412.0-0.0","741.9000000357628","","","","55","","","","360","probe-141","","","","","1","[object Object]","126","3","1",""
"","do_trial","442","2285917","0.0-413.0-0.0","617.7999999523163","","","","50","0,1,0","6","blank","361","null","0.06295572235731714","0.4474374918327635","0.6327481513575249","1","","","","","",""
"","do_trial","443","2289876","0.0-414.0-0.0","416.80000001192093","","","","50","0,0,0","6","blank","362","null","0.09727544582129903","0.37725738488387434","0.64956806824723","0","","","","","",""
"","do_trial","444","2294093","0.0-415.0-0.0","674.5","","","","50","0,1,0","6","blank","363","null","0.06622212602690422","0.39571515028322474","0.7479204882396769","1","","","","","",""
"","do_trial","445","2299019","0.0-416.0-0.0","1381.2000000476837","","","","50","1,0,1","6","blank","364","null","0.0915800567087583","0.29316312414371426","0.7753447059189991","0","","","","","",""
"","do_trial","446","2303562","0.0-417.0-0.0","1002.6000000238419","","","","50","0,0,0","6","blank","365","null","0.0653808497566146","0.3723385522979375","0.7348784438168119","0","","","","","",""
"","do_recog","447","2305069","0.0-418.0-0.0","0.10000002384185791","","","","55","","","","366","probe-257","","","","","0","[object Object]","null","null","0",""
"","do_trial","448","2309116","0.0-419.0-0.0","502","","","","50","1,0,1","6","blank","367","null","0.18920381227179361","0.23268416786156093","0.885661047388115","0","","","","","",""
"","do_trial","449","2313034","0.0-420.0-0.0","373","","","","50","0,1,0","6","blank","368","null","0.12910054658252043","0.3418491136110634","0.8014430354122745","1","","","","","",""
"","do_recog","450","2315734","0.0-421.0-0.0","1188.3999999761581","","","","55","","","","369","probe-15","","","","","1","[object Object]","209","5","1",""
"","do_trial","451","2319415","0.0-422.0-0.0","136.89999997615814","","","","50","1,0,1","6","blank","370","null","0.1154506431229293","0.38080350463236634","0.7468288996528321","0","","","","","",""
"","do_recog","452","2320930","0.0-423.0-0.0","6.300000011920929","","","","55","","","","371","probe-72","","","","","1","[object Object]","207","5","1",""
"","do_trial","453","2325004","0.0-424.0-0.0","529.6000000238419","","","","50","0,0,1","6","blank","372","null","0.12069812048423458","0.27945923257650535","0.753481301776302","0","","","","","",""
"","do_recog","454","2327202","0.0-425.0-0.0","686.5","","","","55","","","","373","probe-198","","","","","1","[object Object]","49","1","1",""
"","do_trial","455","2331103","0.0-426.0-0.0","360.69999998807907","","","","50","1,0,1","6","blank","374","null","0.20151071563204126","0.345423404526376","0.7332952766385986","0","","","","","",""
"","do_trial","456","2335328","0.0-427.0-0.0","682.3999999761581","","","","50","0,0,0","6","blank","375","null","0.07228501200324346","0.22845735682609786","0.7315591185845738","0","","","","","",""
"","do_trial","457","2339359","0.0-428.0-0.0","486.7000000476837","","","","51","0,0,1","6","blank","376","null","0.10464612495976966","0.12499910508285116","1","1","","","","","",""
"","do_trial","458","2344051","0.0-429.0-0.0","1146.1000000238419","","","","51","0,0,1","6","blank","377","null","0.17612492153550882","0.28953620535156227","0.9244244639593182","1","","","","","",""
"","do_trial","459","2348313","0.0-430.0-0.0","721.5","","","","50","1,0,1","6","blank","378","null","0.27245025863802264","0.2762349970513482","0.8290684258433","0","","","","","",""
"","do_trial","460","2351987","0.0-431.0-0.0","128","","","","50","0,0,1","6","blank","379","null","0.1916964733407465","0.2876185753011897","0.943681372864752","0","","","","","",""
"","do_recog","461","2354172","0.0-432.0-0.0","673.4000000357628","","","","55","","","","380","probe-208","","","","","1","[object Object]","122","3","1",""
"","do_trial","462","2360026","0.0-433.0-0.0","2309.7000000476837","","","","50","0,0,1","6","blank","381","null","0.17744071185091492","0.28676798832077693","0.845274213504982","0","","","","","",""
"","do_trial","463","2363573","0.0-434.0-0.0","0.10000002384185791","","","","50","0,1,1","6","blank","382","null","0.07579419614129367","0.2612079549821335","0.9156387725757945","1","","","","","",""
"","do_trial","464","2367992","0.0-435.0-0.0","874.1999999880791","","","","50","0,0,1","6","blank","383","null","0.09260942237810803","0.3383527364034423","0.7752689272296541","0","","","","","",""
"","do_trial","465","2374318","0.0-436.0-0.0","2782.300000011921","","","","50","0,0,0","6","blank","384","null","0.1658645766070028","0.3613556261956605","0.7551170779235048","0","","","","","",""
"","do_trial","466","2377971","0.0-437.0-0.0","106.69999998807907","","","","51","0,0,1","6","blank","385","null","0.08174928001183666","0.2233082496013055","0.7553773304006931","1","","","","","",""
"","do_trial","467","2382344","0.0-438.0-0.0","828.5999999642372","","","","51","0,0,1","6","blank","386","null","0.09542949384601199","0.3279498483651542","0.7152365044106236","1","","","","","",""
"","do_recog","468","2384167","0.0-439.0-0.0","311.19999998807907","","","","56","","","","387","probe-170","","","","","1","[object Object]","165","4","1",""
"","do_trial","469","2387938","0.0-440.0-0.0","226.10000002384186","","","","51","0,1,0","6","blank","388","null","0.24994888017217073","0.6257900519889078","0.5406335466758576","0","","","","","",""
"","do_recog","470","2390349","0.0-441.0-0.0","904.3999999761581","","","","56","","","","389","probe-177","","","","","1","[object Object]","81","2","1",""
"","do_trial","471","2393964","0.0-442.0-0.0","70.19999998807907","","","","51","0,0,0","6","blank","390","null","0.41593209203225856","0.6156653886019977","0.3380322227602953","0","","","","","",""
"","do_recog","472","2396195","0.0-443.0-0.0","719.9000000357628","","","","56","","","","391","probe-132","","","","","1","[object Object]","82","2","1",""
"","do_trial","473","2400980","0.0-444.0-0.0","1244.300000011921","","","","51","0,0,0","6","blank","392","null","0.3221856796311536","0.5291992845358883","0.1526968939419535","0","","","","","",""
"","do_trial","474","2404525","0.0-445.0-0.0","0.10000002384185791","","","","51","1,1,0","6","blank","393","null","0.28509791048293975","0.6520783853567704","0.10289478945256902","0","","","","","",""
"","do_trial","475","2409118","0.0-446.0-0.0","1048.1000000238419","","","","51","0,0,0","6","blank","394","null","0.323671514203127","0.6635172341801321","0.0803051897514128","0","","","","","",""
