"success","trial_type","trial_index","time_elapsed","internal_node_id","rt","stimulus","key_press","subject_id","response","choice_outcomes","context_n","context_img_id","trial_n","probe_img_id","pR_red","pR_white","pR_black","outcome","is_valid","image_to_show","probed_trial","probed_context","correct","context_id"
"true","fullscreen","0","3171","0.0-0.0","","","","","","","","","","","","","","","","","","","",""
"","pavlovia","1","3176","0.0-1.0","","","","","","","","","","","","","","","","","","","",""
"","html-keyboard-response","2","13538","0.0-2.0","10360.5","<div class='center'><p>Welcome! This experiment will last ~1 hour. In this experiment, you are the head captain of a pirate ship traveling around the world to different places. You will complete several different tasks during this experiment. Here is an overview of these tasks:</p><br><p>1. Tutorial and quiz</p><p>2. Pick a pirate game in 6 different places</p><p>3. Pick a pirate game and memory game</p><p>4. Final questions and payment</p><br><p>If you complete the entire experiment, you will receive $15 and a possible bonus payment.</p><p><b>[Press the space bar to begin the tutorial]</b></p></div>","32","613f8fd190ddd9eaf4a229f7","","","","","","","","","","","","","","","",""
"","html-keyboard-response","3","20891","0.0-3.0","7351.5","<div class='center'><p>You are the head captain of a pirate ship.</p><p> Your pirates rob other ships as they leave the marketplace port.</p> These ships have just sold all their goods at the marketplace, so they have lots and lots of gold on them.</p><p><img src='run_exp/static/images/ship_center.png' height='400'></p><p><b>[Press the space bar to continue]</b></p></div>","32","","","","","","","","","","","","","","","","",""
"","html-keyboard-response","4","31600","0.0-4.0","10708.400000095367","<div class='center'><p>As the head captain, you do not have to rob any ships yourself.</p><p>You get to choose which pirate you want to rob the next ship. </p><p>If they are successful at robbing the ship, then you will get gold coins.</p><p> If they are not successful, then you will get no gold coins.</p><p> The more coins you collect, the more bonus money you will win. So, choose your pirate wisely.</p><p><img src='run_exp/static/images/goal.png' height='400'></p><p><b>[Press the space bar to continue]</b></p><div>","32","","","","","","","","","","","","","","","","",""
"","html-keyboard-response","5","44411","0.0-5.0","12809.399999976158","<div class='center'><p>Even the most skilled pirate will not be able to rob EVERY ship.</p><p> Some ships will have very strong defenses against attacks.</p><p> For example, blue beard, here,  is very good at robbing ships.</p><p> You can press the <b>‘1’</b> button on the keyboard to choose him.</p><p> Try choosing him 10 times to see how often he is successful at robbing ships. </p><p><img src='run_exp/static/images/blue.png' height='500'></p></div>","49","","","","","","","","","","","","","","","","",""
"","html-keyboard-response","6","45915","0.0-6.0","null","<br><br><br><br><p><img src='run_exp/static/images/blue_win.png' height='500'></p>","null","","","","","","","","","","","","","","","","",""
"","html-keyboard-response","7","46291","0.0-7.0","374.7999999523163","<br><br><br><br><p><img src='run_exp/static/images/blue.png' height='500'></p>","49","","","","","","","","","","","","","","","","",""
"","html-keyboard-response","8","47792","0.0-8.0","null","<br><br><br><br><p><img src='run_exp/static/images/blue_win.png' height='500'></p>","null","","","","","","","","","","","","","","","","",""
"","html-keyboard-response","9","48767","0.0-9.0","973.7000000476837","<br><br><br><br><p><img src='run_exp/static/images/blue.png' height='500'></p>","49","","","","","","","","","","","","","","","","",""
"","html-keyboard-response","10","50269","0.0-10.0","null","<br><br><br><br><p><img src='run_exp/static/images/blue_win.png' height='500'></p>","null","","","","","","","","","","","","","","","","",""
"","html-keyboard-response","11","51182","0.0-11.0","912.5","<br><br><br><br><p><img src='run_exp/static/images/blue.png' height='500'></p>","49","","","","","","","","","","","","","","","","",""
"","html-keyboard-response","12","52684","0.0-12.0","null","<br><br><br><br><p><img src='run_exp/static/images/blue_no_win.png' height='500'></p>","null","","","","","","","","","","","","","","","","",""
"","html-keyboard-response","13","53416","0.0-13.0","731.7999999523163","<br><br><br><br><p><img src='run_exp/static/images/blue.png' height='500'></p>","49","","","","","","","","","","","","","","","","",""
"","html-keyboard-response","14","54917","0.0-14.0","null","<br><br><br><br><p><img src='run_exp/static/images/blue_win.png' height='500'></p>","null","","","","","","","","","","","","","","","","",""
"","html-keyboard-response","15","55430","0.0-15.0","511.1999999284744","<br><br><br><br><p><img src='run_exp/static/images/blue.png' height='500'></p>","49","","","","","","","","","","","","","","","","",""
"","html-keyboard-response","16","56932","0.0-16.0","null","<br><br><br><br><p><img src='run_exp/static/images/blue_win.png' height='500'></p>","null","","","","","","","","","","","","","","","","",""
"","html-keyboard-response","17","57358","0.0-17.0","425.39999997615814","<br><br><br><br><p><img src='run_exp/static/images/blue.png' height='500'></p>","49","","","","","","","","","","","","","","","","",""
"","html-keyboard-response","18","58863","0.0-18.0","null","<br><br><br><br><p><img src='run_exp/static/images/blue_win.png' height='500'></p>","null","","","","","","","","","","","","","","","","",""
"","html-keyboard-response","19","59250","0.0-19.0","386.1999999284744","<br><br><br><br><p><img src='run_exp/static/images/blue.png' height='500'></p>","49","","","","","","","","","","","","","","","","",""
"","html-keyboard-response","20","60757","0.0-20.0","null","<br><br><br><br><p><img src='run_exp/static/images/blue_no_win.png' height='500'></p>","null","","","","","","","","","","","","","","","","",""
"","html-keyboard-response","21","61095","0.0-21.0","337.60000002384186","<br><br><br><br><p><img src='run_exp/static/images/blue.png' height='500'></p>","49","","","","","","","","","","","","","","","","",""
"","html-keyboard-response","22","62597","0.0-22.0","null","<br><br><br><br><p><img src='run_exp/static/images/blue_win.png' height='500'></p>","null","","","","","","","","","","","","","","","","",""
"","html-keyboard-response","23","62926","0.0-23.0","328.10000002384186","<br><br><br><br><p><img src='run_exp/static/images/blue.png' height='500'></p>","49","","","","","","","","","","","","","","","","",""
"","html-keyboard-response","24","64427","0.0-24.0","null","<br><br><br><br><p><img src='run_exp/static/images/blue_win.png' height='500'></p>","null","","","","","","","","","","","","","","","","",""
"","html-keyboard-response","25","67249","0.0-25.0","2821","<div class='center'><p> See, he was successful at robbing the ships most of the time but not every time. </p><p><b>[Press the space bar to continue]</b></p></div>","32","","","","","","","","","","","","","","","","",""
"","html-keyboard-response","26","75571","0.0-26.0","8320.600000023842","<div class='center'><p>In the game, you will get to choose which of three pirates you want to rob the next ship. <p>Press the <b>‘1’</b> button on your keyboard to pick the pirate with the red beard.</p><p> Press <b>‘2’</b> to pick the pirate with the white beard.</p><p> Press <b>‘3’</b> to pick the pirate with the black beard.</p><p>Try picking a pirate now!</p><p><img src='run_exp/static/images/all_pirates.png' height='500'></p></div>","50","","","","","","","","","","","","","","","","",""
"","html-keyboard-response","27","78470","0.0-27.0-0.0","2897.6999999284744","<div class='center'><p>This pirate was successful at robbing the ship!</p><p><img src='run_exp/static/images/white_win.png' height='500'></p><p><b>[Press the space bar to continue]</b></p></div>","32","","","","","","","","","","","","","","","","",""
"","html-keyboard-response","28","79652","0.0-27.0-1.0","1181.8000000715256","<div class='center'><p>Now try choosing another</p><p><img src='run_exp/static/images/all_pirates.png' height='500'></p></div>","51","","","","","","","","","","","","","","","","",""
"","html-keyboard-response","29","80911","0.0-28.0-0.0","1257.1000000238419","<div class='center'><p>This pirate was not successful at robbing the ship!</p><p><img src='run_exp/static/images/black_no_win.png' height='500'></p><p><b>[Press the space bar to continue]</b></p></div>","32","","","","","","","","","","","","","","","","",""
"","html-keyboard-response","30","84991","0.0-29.0-0.0","4079.5","<div class='center'><p>You’ll stop at these 6 places on your journey.</p><p><img src='run_exp/static/images/all_contexts.png' height='500'></p><p><b>[Press the space bar to continue]</b></p></div>","32","","","","","","","","","","","","","","","","",""
"","html-keyboard-response","31","91710","0.0-29.0-1.0","6718.400000095367","<div class='center'><p>How good a pirate is at robbing ships will depend on the current place.</p><p> Some pirates will have been to the place before, and will have more experience robbing ships there.</p><p>So, they will be more successful at stealing gold and bringing it back to you.</p><p><b>[Press the space bar to continue]</b></p></div>","32","","","","","","","","","","","","","","","","",""
"","html-keyboard-response","32","103411","0.0-29.0-2.0","11699.399999976158","<div class='center'><p>How successful a pirate is at robbing ships can also change in a place.<p> Ships may hear about the pirates coming and will improve their defenses. This may make it more difficult to rob them.</p><p> Ships may also grow lazy and lower their defenses. This may make it easier to rob them.</p><br><p>Things are always changing on the high seas! So, try your best to pay attention!</p><p><img src='run_exp/static/images/contingency.png' height='500'></p><p><b>[Press the space bar to continue]</b></p></div>","32","","","","","","","","","","","","","","","","",""
"","html-keyboard-response","33","126774","0.0-29.0-3.0","23361.299999952316","<div class='center'><p>Once you choose a pirate to rob a ship, you’ll be shown the ship they are robbing.</p><p>The ship will have a picture of the item they sold at the marketplace.</p><p> Try your best to remember the ship and where you saw the ship.</p><p> You’ll have to remember this for later, and remembering this correctly will help you win more bonus money!</p><p>You can remember the ship by remembering the item they sold at the marketplace</p><p>A helpful strategy is to try to come up with a story of the chosen pirate and ship’s item interacting with the scene.</p><p> For example, a ship might have sold travel mugs and you could imagine red beard walking through the city with a travel mug. </p><p>Or imagine an apple falling from a tree into white beard's hands in the forest.</p><p><img src='run_exp/static/images/example_probe.png' height='500'></p><p><b>[Press the space bar to continue]</b></p></div>","32","","","","","","","","","","","","","","","","",""
"","html-keyboard-response","34","135967","0.0-29.0-4.0","9191.600000023842","<div class='center'><p>If you don’t make your choice fast enough, you’ll have to wait a few seconds before you can make another one. </p><p>You can’t win more gold. You just have to sit and wait.</p><p><img src='run_exp/static/images/hurry_up.png' height='500'></p><p><b>[Press the space bar to continue]</b></p></div>","32","","","","","","","","","","","","","","","","",""
"","html-keyboard-response","35","164351","0.0-29.0-5.0","28382.600000023842","<div class='center'><p>Again, you have two important things to do: </p><b><p> 1. Pick the pirate who you think will be most successful at robbing the next ship.</p></b><b><p> 2. Remember where a pirate robbed a ship.</p> </b><p>Both are important in determining how much bonus money you’ll win.</p><br><p>Let’s try a practice game. The game will start by showing you the pirates. First pick a pirate using the <b> 1, 2, 3 </b> buttons on your keyboard. When you are shown a ship, try to remember the place you’re in by making up a story.</p><p> You only have 3 seconds to pick a pirate, so please make a choice quickly! If you are too slow, you’ll have to wait a bit during the time out.</p><p> Don’t feel rushed, but please do try to make a choice every time.</p><p>How good a pirate is at robbing a ship will change depending on the place they are in and how good the defenses are of the ship.</p> <p>This is just a practice game, so you’re not playing for money. </p><p>You’ll receive a bag which may or may not contain gold coins.</p><p> In the real game, though, you’ll be able to see whether or not you received the gold coins.</p><p> Good luck, remember press <b>'1'</b> to choose red beard, <b>'2'</b> to choose white beard, and <b>'3'</b> to choose black beard</p><p><b>[Press the space bar to begin the practice game]</b></p></div>","32","","","","","","","","","","","","","","","","",""
"","do_trial_prac","36","170413","0.0-29.0-6.0","1550.5","","","","51","","","","","","","","","","","","","","",""
"","do_trial_prac","37","176899","0.0-29.0-7.0","1980.3000000715256","","","","50","","","","","","","","","","","","","","",""
"","do_trial_prac","38","182116","0.0-29.0-8.0","707.5","","","","49","","","","","","","","","","","","","","",""
"","do_trial_prac","39","187331","0.0-29.0-9.0","707.6999999284744","","","","50","","","","","","","","","","","","","","",""
"","do_trial_prac","40","192166","0.0-29.0-10.0","325.10000002384186","","","","51","","","","","","","","","","","","","","",""
"","html-keyboard-response","41","198646","0.0-29.0-11.0","6479.200000047684","<div class='center'><p>Great job on the practice game!</p><p> Now, you will be asked you some true or false questions to make sure you really understand the rules of the game.</p><p> Press <b>'1'</b> on the keyboard for true and press <b>'2'</b> for false.</p><p><b>[Press the space bar to begin the quiz]</b></p></div>","32","","","","","","","","","","","","","","","","",""
"","html-keyboard-response","42","204476","0.0-29.0-12.0","5827.900000095367","<div class='center'><p>You win bonus money by making choices as fast as possible.</p><p>Press 1 for true and press  2 for false.</p></div>","50","","","","","","","","","","","","","","","","",""
"","html-keyboard-response","43","205945","0.0-30.0-0.0","1467.7999999523163","<br><br><br><br><p>That's correct!</p> <p><b>[press the space bar to continue with the quiz]</b></p>","32","","","","","","","","","","","","","","","","",""
"","html-keyboard-response","44","211311","0.0-30.0-1.0","4815.800000071526","<div class='center'><p>You press the <b>‘3’</b> button on the keyboard to choose the red bearded pirate? </p><p>Press 1 for true and press  2 for false.</p></div>","50","","","","","","","","","","","","","","","","",""
"","html-keyboard-response","45","212535","0.0-31.0-0.0","1223.1000000238419","<br><br><br><br><p>That's correct!</p> <p><b>[press the space bar to continue with the quiz]</b></p>","32","","","","","","","","","","","","","","","","",""
"","html-keyboard-response","46","214906","0.0-31.0-1.0","2370.600000023842","<div class='center'><p>A pirate will always be equally successful at robbing ships in each place</p><p>Press 1 for true and press  2 for false.</p></div>","50","","","","","","","","","","","","","","","","",""
"","html-keyboard-response","47","215331","0.0-32.0-0.0","424.3000000715256","<br><br><br><br><p>That's correct!</p> <p><b>[press the space bar to continue with the quiz]</b></p>","32","","","","","","","","","","","","","","","","",""
"","html-keyboard-response","48","218036","0.0-32.0-1.0","2703.8000000715256","<div class='center'><p>You should remember the place where a pirate robbed a ship.</p><p>Press 1 for true and press  2 for false.</p></div>","49","","","","","","","","","","","","","","","","",""
"","html-keyboard-response","49","218541","0.0-33.0-0.0","495.1999999284744","<br><br><br><br><p>That's correct!</p> <p><b>[press the space bar to continue with the quiz]</b></p>","32","","","","","","","","","","","","","","","","",""
"","html-keyboard-response","50","219771","0.0-34.0-0.0","1228.5","<br><br><br><br><p>Good job! You’re now ready to move on to the real game!</p> <p><br>[press the space bar to begin!]</br></p>","32","","","","","","","","","","","","","","","","",""
"","do_welcome","51","221279","0.0-35.0-0.0","null","","","","null","","","","","","","","","","","","","","",""
"","do_trial","52","228125","0.0-36.0-0.0","1300.6999999284744","","","","51","1,0,0","0","mountain","0","probe-177","1","0.4","0.1","0","","","","","",""
"","do_trial","53","234551","0.0-37.0-0.0","874.6999999284744","","","","49","1,1,0","0","mountain","1","probe-37","1","0.434068562806265","0.1537066944848217","1","","","","","",""
"","do_trial","54","240451","0.0-38.0-0.0","355.1999999284744","","","","50","1,0,0","0","mountain","2","probe-184","1","0.40165443198030076","0.27496903072561535","0","","","","","",""
"","do_trial","55","246416","0.0-39.0-0.0","415.7000000476837","","","","49","1,0,0","0","mountain","3","probe-80","1","0.3411998872826177","0.08558908967012968","1","","","","","",""
"","do_trial","56","252695","0.0-40.0-0.0","731.0999999046326","","","","49","1,0,0","0","mountain","4","probe-123","0.9149053724869505","0.3926042457140272","0.11114851820901991","1","","","","","",""
"","do_trial","57","258794","0.0-41.0-0.0","551.8999999761581","","","","49","0,0,0","0","mountain","5","probe-238","0.6786064664189269","0.45109422276001077","0.05528614293710223","0","","","","","",""
"","do_trial","58","264883","0.0-42.0-0.0","544","","","","49","1,0,1","0","mountain","6","probe-104","0.7264773295511993","0.4439937378873851","0.1036534444408209","1","","","","","",""
"","do_trial","59","271247","0.0-43.0-0.0","819","","","","49","1,0,0","0","mountain","7","probe-197","0.6791205954136313","0.3984174292472835","0.19295609234949068","1","","","","","",""
"","do_trial","60","277538","0.0-44.0-0.0","742.5","","","","49","1,0,0","0","mountain","8","probe-183","0.6678445226019415","0.4705636431842957","0.21374591588348707","1","","","","","",""
"","do_trial","61","283647","0.0-45.0-0.0","561.3999999761581","","","","49","1,1,0","0","mountain","9","probe-169","0.7573703606303649","0.5299004532573042","0.05266170524082572","1","","","","","",""
"","do_trial","62","290018","0.0-46.0-0.0","825.2999999523163","","","","49","1,1,0","0","mountain","10","probe-217","0.44697061393274945","0.8290071891844548","0.1849610216451446","1","","","","","",""
"","do_trial","63","296521","0.0-47.0-0.0","956.3999999761581","","","","49","0,1,0","0","mountain","11","probe-189","0.41265766631413303","0.8414758136648612","0.2710950192194028","0","","","","","",""
"","do_trial","64","302434","0.0-48.0-0.0","366.89999997615814","","","","49","0,1,0","0","mountain","12","probe-96","0.19421861497836637","0.919363452958358","0.3048793010143343","0","","","","","",""
"","do_trial","65","308517","0.0-49.0-0.0","535.2999999523163","","","","49","0,1,0","0","mountain","13","probe-188","0.1532105626694695","0.9195676781298947","0.37665261655580695","0","","","","","",""
"","do_trial","66","314403","0.0-50.0-0.0","340.7999999523163","","","","49","0,1,0","0","mountain","14","probe-118","0.29614191435795273","0.9467846876826473","0.16501581215650737","0","","","","","",""
"","do_trial","67","320236","0.0-51.0-0.0","281.7000000476837","","","","51","0,1,0","0","mountain","15","probe-109","0.1596459276654351","0.8470836217331925","0.23313261443156694","0","","","","","",""
"","do_trial","68","326321","0.0-52.0-0.0","538","","","","51","0,1,0","0","mountain","16","probe-95","0.1371218891343988","0.690959528198054","0.22133872151759318","0","","","","","",""
"","do_trial","69","332253","0.0-53.0-0.0","382.5","","","","50","0,1,1","0","mountain","17","probe-165","0.15539984406791632","0.7543647347855245","0.3225972500597497","1","","","","","",""
"","do_trial","70","338174","0.0-54.0-0.0","365.89999997615814","","","","50","0,1,1","0","mountain","18","probe-178","0.050267099103949685","0.7678120535504667","0.4612746405848246","1","","","","","",""
"","do_trial","71","344128","0.0-55.0-0.0","409.39999997615814","","","","50","0,1,0","0","mountain","19","probe-53","0.14319125538480187","0.6834417767882809","0.30768094818325625","1","","","","","",""
"","do_trial","72","350077","0.0-56.0-0.0","402.7000000476837","","","","50","0,1,1","0","mountain","20","probe-148","0.08111273766559471","0.7860097062738542","0.46533697932054907","1","","","","","",""
"","do_trial","73","356210","0.0-57.0-0.0","587.3000000715256","","","","50","0,0,1","0","mountain","21","probe-203","0.18466109113054388","0.7758602848546721","0.40441886085967554","0","","","","","",""
"","do_trial","74","362191","0.0-58.0-0.0","435.60000002384186","","","","50","0,1,0","0","mountain","22","probe-228","0.09117449142008113","0.8568405793858769","0.41218391752470446","1","","","","","",""
"","do_trial","75","368229","0.0-59.0-0.0","492.09999990463257","","","","50","0,1,0","0","mountain","23","probe-158","0.08462718570721797","0.8054396698023806","0.37086790778922923","1","","","","","",""
"","do_trial","76","374769","0.0-60.0-0.0","995.5","","","","50","0,0,0","0","mountain","24","probe-74","0.054191941830406105","0.7470667481239746","0.38303209150500395","0","","","","","",""
"","do_trial","77","380721","0.0-61.0-0.0","405.2999999523163","","","","49","0,1,0","0","mountain","25","probe-105","0.09529989236947856","0.8031562572166568","0.43759023882836334","0","","","","","",""
"","do_trial","78","388353","0.0-62.0-0.0","2085.7999999523163","","","","51","1,1,0","0","mountain","26","probe-126","0.1253113549571075","0.8321848739699717","0.4861449137531028","0","","","","","",""
"","do_trial","79","394192","0.0-63.0-0.0","288.1999999284744","","","","51","1,1,1","0","mountain","27","probe-143","0.17731398833534223","0.9414818006191717","0.4962951214265834","1","","","","","",""
"","do_trial","80","400157","0.0-64.0-0.0","419.6999999284744","","","","51","0,1,0","0","mountain","28","probe-05","0.18911626927441527","0.8885397065350213","0.1826184836092319","0","","","","","",""
"","do_trial","81","407339","0.0-65.0-0.0","1635.1000000238419","","","","49","0,0,0","0","mountain","29","probe-232","0.10738979423825315","0.7994991144766974","0.20220038487649938","0","","","","","",""
"","do_trial","82","413830","0.0-66.0-0.0","941","","","","49","0,1,0","0","mountain","30","probe-225","0.1392246942117461","0.8587570833680033","0.26270517069865185","0","","","","","",""
"","do_trial","83","419995","0.0-67.0-0.0","617.7999999523163","","","","49","0,0,0","0","mountain","31","probe-121","0.2772456081048159","0.8701558666628181","0.2590848947727276","0","","","","","",""
"","do_trial","84","425954","0.0-68.0-0.0","409.7999999523163","","","","50","0,1,1","0","mountain","32","probe-132","0.1301568072561896","0.9438853939023127","0.42412979123969935","1","","","","","",""
"","do_trial","85","433561","0.0-69.0-0.0","2061.8000000715256","","","","50","0,1,0","0","mountain","33","probe-193","0.11128050289548203","0.7984723217475836","0.4423816637204778","1","","","","","",""
"","do_trial","86","440601","0.0-70.0-0.0","1491.4000000953674","","","","50","0,1,0","0","mountain","34","probe-93","0.12266314844636021","0.6292971282309607","0.21027599800155813","1","","","","","",""
"","do_trial","87","446773","0.0-71.0-0.0","624","","","","50","0,0,0","0","mountain","35","probe-12","0.1339603745286118","0.7254135970191966","0.13201132164830878","0","","","","","",""
"","do_trial","88","455080","0.0-72.0-0.0","2761.100000023842","","","","50","0,0,0","0","mountain","36","probe-204","0.20164822751133726","0.67394207144333","0.3286299961734514","0","","","","","",""
"","do_trial","89","460960","0.0-73.0-0.0","334.39999997615814","","","","50","0,1,0","0","mountain","37","probe-149","0.1218654109823343","0.7589776659249482","0.3945583699104782","1","","","","","",""
"","do_trial","90","467010","0.0-74.0-0.0","null","","","","null","0,1,0","0","mountain","38","probe-33","0.10138887657328441","0.9244129367302191","0.29965203052389827","","","","","","",""
"","do_trial","91","473220","0.0-75.0-0.0","661.5","","","","50","0,1,0","0","mountain","39","probe-127","0.07594742397106036","0.9351630535320361","0.2697363252502746","1","","","","","",""
"","do_bye","92","474725","0.0-76.0-0.0","null","","","","null","","","","","","","","","","","","","","",""
"","do_travel","93","480730","0.0-77.0-0.0","null","","","","null","","","","","","","","","","","","","","",""
"","do_welcome","94","482236","0.0-77.0-1.0","null","","","","null","","","","","","","","","","","","","","",""
"","do_trial","95","490638","0.0-78.0-0.0","2848.899999976158","","","","51","0,1,1","1","countryside","40","probe-185","0.11152456411942818","1","0.19166773916075408","1","","","","","",""
"","do_trial","96","496707","0.0-79.0-0.0","515.2999999523163","","","","51","0,1,1","1","countryside","41","probe-44","0.1658819063075769","1","0.1929469554832956","1","","","","","",""
"","do_trial","97","502622","0.0-80.0-0.0","369.39999997615814","","","","51","0,1,1","1","countryside","42","probe-180","0.1985639822444326","1","0.2399923526857674","1","","","","","",""
"","do_trial","98","508597","0.0-81.0-0.0","425.2000000476837","","","","51","0,1,1","1","countryside","43","probe-240","0.08605159348401838","1","0.3327805469964554","1","","","","","",""
"","do_trial","99","514652","0.0-82.0-0.0","510","","","","51","0,1,0","1","countryside","44","probe-87","0.08891470811199863","0.8843770440030848","0.34960742863194344","0","","","","","",""
"","do_trial","100","520399","0.0-83.0-0.0","200.30000007152557","","","","51","0,1,1","1","countryside","45","probe-140","0.12082312065458375","0.8247553197188929","0.4930801322860431","1","","","","","",""
"","do_trial","101","526644","0.0-84.0-0.0","697","","","","51","1,0,1","1","countryside","46","probe-227","0.3006562427742011","0.8469335343495084","0.5067061900363391","1","","","","","",""
"","do_trial","102","532959","0.0-85.0-0.0","770.1999999284744","","","","51","0,1,0","1","countryside","47","probe-222","0.35532277114066285","0.7701285162804528","0.47702761855773523","0","","","","","",""
"","do_trial","103","538882","0.0-86.0-0.0","374.5","","","","51","0,0,1","1","countryside","48","probe-144","0.19857617623972723","0.7837951572183076","0.37872000340192863","1","","","","","",""
"","do_trial","104","544809","0.0-87.0-0.0","381.2999999523163","","","","51","0,1,0","1","countryside","49","probe-58","0.36785363119204517","0.7754941942023967","0.445341797810358","0","","","","","",""
"","do_trial","105","551430","0.0-88.0-0.0","1070.2000000476837","","","","49","1,1,0","1","countryside","50","probe-152","0.3452641604833913","0.7797315782103178","0.6617207205943944","1","","","","","",""
"","do_trial","106","557289","0.0-89.0-0.0","314.7999999523163","","","","50","0,1,1","1","countryside","51","probe-25","0.22332378907761702","0.7765571909201988","0.7513903434768509","1","","","","","",""
"","do_trial","107","563217","0.0-90.0-0.0","381.2000000476837","","","","49","0,1,1","1","countryside","52","probe-49","0.07429036419755354","0.6859474976594381","0.7657717348985207","0","","","","","",""
"","do_trial","108","569401","0.0-91.0-0.0","638","","","","51","0,0,1","1","countryside","53","probe-71","0.10622292036478044","0.6368069693976705","0.8607612045254663","1","","","","","",""
"","do_trial","109","576799","0.0-92.0-0.0","1851.1000000238419","","","","49","0,0,1","1","countryside","54","probe-208","0.11567184400688199","0.4651992376416131","0.8608926444616097","0","","","","","",""
"","do_trial","110","583741","0.0-93.0-0.0","1397","","","","50","0,1,0","1","countryside","55","probe-66","0.13959478425859262","0.4705275211219167","0.6602140946885575","1","","","","","",""
"","do_trial","111","590911","0.0-94.0-0.0","1620.6999999284744","","","","50","0,1,1","1","countryside","56","probe-172","0.06109577169483159","0.44639694721179746","0.7194138071408733","1","","","","","",""
"","do_trial","112","597497","0.0-95.0-0.0","1035.2999999523163","","","","50","0,0,1","1","countryside","57","probe-120","0.0810293160945897","0.49544868920278134","0.7923336584321105","0","","","","","",""
"","do_trial","113","605059","0.0-96.0-0.0","2011","","","","50","0,0,1","1","countryside","58","probe-233","0.06641443692749965","0.30661002019771844","0.7644309496732485","0","","","","","",""
"","do_trial","114","613004","0.0-97.0-0.0","2393.7999999523163","","","","50","0,1,1","1","countryside","59","probe-97","0.10929192423710708","0.21500361983854227","0.7649188717890448","1","","","","","",""
"","do_trial","115","619307","0.0-98.0-0.0","759.1000000238419","","","","50","0,0,1","1","countryside","60","probe-55","0.24279324076266157","0.4261031750167664","0.6880046347401648","0","","","","","",""
"","do_trial","116","625500","0.0-99.0-0.0","648.5","","","","51","0,0,0","1","countryside","61","probe-03","0.18049469893635203","0.4006504717253504","0.7683973072048567","0","","","","","",""
"","do_trial","117","631606","0.0-100.0-0.0","560.5","","","","49","0,0,1","1","countryside","62","probe-102","0.14591376389114583","0.2950719640159627","0.7497275207569356","0","","","","","",""
"","do_trial","118","637323","0.0-101.0-0.0","170.80000007152557","","","","51","0,0,1","1","countryside","63","probe-81","0.09270507406237148","0.35316513800521465","0.9478308273263332","1","","","","","",""
"","do_trial","119","643707","0.0-102.0-0.0","836.2000000476837","","","","51","0,0,1","1","countryside","64","probe-201","0.16027913719728853","0.3832947105321044","0.8161454881106869","1","","","","","",""
"","do_trial","120","650189","0.0-103.0-0.0","935.2000000476837","","","","51","0,1,0","1","countryside","65","probe-63","0.05956156233831229","0.4386051758809056","0.7161581838167976","0","","","","","",""
"","do_trial","121","656229","0.0-104.0-0.0","494.89999997615814","","","","51","1,0,1","1","countryside","66","probe-206","0.08091729017173545","0.4885756733493357","0.7910024537194901","1","","","","","",""
"","do_trial","122","662202","0.0-105.0-0.0","425.8000000715256","","","","51","0,0,1","1","countryside","67","probe-151","0.05488187897372676","0.27391673305737696","0.6956214067177346","1","","","","","",""
"","do_trial","123","668347","0.0-106.0-0.0","601.7000000476837","","","","51","0,0,1","1","countryside","68","probe-164","0.09265245064441452","0.3226361185109839","0.7306829520659761","1","","","","","",""
"","do_trial","124","675263","0.0-107.0-0.0","1367","","","","51","0,1,1","1","countryside","69","probe-108","0.07409215877790383","0.3896363025202061","0.7985666039823858","1","","","","","",""
"","do_trial","125","681403","0.0-108.0-0.0","590.6000000238419","","","","51","0,0,1","1","countryside","70","probe-45","0.16615645680555702","0.2934711045890884","0.7910289225321419","1","","","","","",""
"","do_trial","126","687274","0.0-109.0-0.0","323.10000002384186","","","","51","1,0,1","1","countryside","71","probe-125","0.23493201094301377","0.2688567205980028","0.7579984075286388","1","","","","","",""
"","do_trial","127","693144","0.0-110.0-0.0","326.39999997615814","","","","51","0,1,1","1","countryside","72","probe-221","0.18190695857760625","0.3785173633736207","0.7927960636869026","1","","","","","",""
"","do_trial","128","700539","0.0-111.0-0.0","1847.8999999761581","","","","51","1,0,1","1","countryside","73","probe-218","0.23295433225395523","0.4510782180948361","0.79025350901786","1","","","","","",""
"","do_trial","129","706808","0.0-112.0-0.0","726.5999999046326","","","","51","0,1,1","1","countryside","74","probe-210","0.13579075335731142","0.4472506111051147","0.7495906505668323","1","","","","","",""
"","do_trial","130","712658","0.0-113.0-0.0","306.1999999284744","","","","51","0,1,0","1","countryside","75","probe-68","0.12173748257884316","0.4652752783052454","0.7616836389052732","0","","","","","",""
"","do_trial","131","718710","0.0-114.0-0.0","null","","","","null","0,0,1","1","countryside","76","probe-234","0.11920589899694495","0.6231027919000731","0.786512858895583","","","","","","",""
"","do_trial","132","724732","0.0-115.0-0.0","477.7999999523163","","","","51","0,0,1","1","countryside","77","probe-134","0.0712109810287721","0.5769645690638935","0.8481692590915892","1","","","","","",""
"","do_trial","133","731417","0.0-116.0-0.0","1135.1000000238419","","","","51","0,0,1","1","countryside","78","probe-166","0.0652373152305989","0.49366933634894306","0.7923625806568532","1","","","","","",""
"","do_trial","134","737276","0.0-117.0-0.0","306.40000009536743","","","","51","0,1,1","1","countryside","79","probe-236","0.2087974360536959","0.49492579673052645","0.9165990743225638","1","","","","","",""
"","do_bye","135","738786","0.0-118.0-0.0","null","","","","null","","","","","","","","","","","","","","",""
"","do_travel","136","744790","0.0-119.0-0.0","null","","","","null","","","","","","","","","","","","","","",""
"","do_welcome","137","746295","0.0-119.0-1.0","null","","","","null","","","","","","","","","","","","","","",""
"","do_trial","138","752599","0.0-120.0-0.0","758.5","","","","50","0,1,1","2","city","80","probe-133","0.33708729598917897","0.43949953391506064","1","1","","","","","",""
"","do_trial","139","758592","0.0-121.0-0.0","448.7999999523163","","","","50","0,0,1","2","city","81","probe-14","0.27238889897911256","0.38586813496950256","1","0","","","","","",""
"","do_trial","140","764486","0.0-122.0-0.0","344.7999999523163","","","","50","0,0,1","2","city","82","probe-51","0.19118640345970334","0.3978081857529111","1","0","","","","","",""
"","do_trial","141","770313","0.0-123.0-0.0","279.2000000476837","","","","49","0,0,1","2","city","83","probe-101","0.12816010186200202","0.24671568918770034","1","0","","","","","",""
"","do_trial","142","776297","0.0-124.0-0.0","436.7999999523163","","","","49","0,0,1","2","city","84","probe-79","0.05612343104662532","0.43767422859666744","0.8579240733876138","0","","","","","",""
"","do_trial","143","782201","0.0-125.0-0.0","358.59999990463257","","","","51","0,0,1","2","city","85","probe-91","0.14156616339347858","0.3380821602690824","0.8068688674974921","1","","","","","",""
"","do_trial","144","788011","0.0-126.0-0.0","266.2999999523163","","","","51","1,0,1","2","city","86","probe-196","0.0969860603148002","0.3850396196592806","0.7674517586624054","1","","","","","",""
"","do_trial","145","794061","0.0-127.0-0.0","null","","","","null","0,1,1","2","city","87","probe-67","0.086548649358872","0.38468346739650516","0.8674318758662447","","","","","","",""
"","do_trial","146","799981","0.0-128.0-0.0","371.2000000476837","","","","51","0,0,0","2","city","88","probe-100","0.11574591361226752","0.4215706616382884","0.799977357995609","0","","","","","",""
"","do_trial","147","805866","0.0-129.0-0.0","337.89999997615814","","","","51","0,0,1","2","city","89","probe-168","0.2013630194931631","0.4618663880934471","0.8079495308362621","1","","","","","",""
"","do_trial","148","811871","0.0-130.0-0.0","459.90000009536743","","","","51","1,0,1","2","city","90","probe-124","0.6371674411274981","0.34150054474051084","0.6893275570599313","1","","","","","",""
"","do_trial","149","819275","0.0-131.0-0.0","1859.5","","","","51","1,0,0","2","city","91","probe-48","0.5600942169969761","0.29340356225562636","0.589703405371039","0","","","","","",""
"","do_trial","150","825148","0.0-132.0-0.0","328.90000009536743","","","","51","0,0,1","2","city","92","probe-131","0.5806729780823942","0.24773266784490547","0.5890589234033675","1","","","","","",""
"","do_trial","151","831122","0.0-133.0-0.0","429","","","","51","1,0,1","2","city","93","probe-170","0.6748165680479851","0.308653697389035","0.8074942610328673","1","","","","","",""
"","do_trial","152","837191","0.0-134.0-0.0","521","","","","51","1,0,1","2","city","94","probe-40","0.737165957932155","0.11288581965404233","0.5908110469827704","1","","","","","",""
"","do_trial","153","843131","0.0-135.0-0.0","394.2999999523163","","","","51","0,0,1","2","city","95","probe-88","0.731859283357101","0.14738738058221068","0.3690883980621552","1","","","","","",""
"","do_trial","154","849404","0.0-136.0-0.0","723.7000000476837","","","","51","1,0,1","2","city","96","probe-229","0.7780071448966582","0.17355021474653765","0.35634687329057874","1","","","","","",""
"","do_trial","155","855279","0.0-137.0-0.0","327.39999997615814","","","","51","0,0,0","2","city","97","probe-89","0.8760789320426509","0.17081816606266784","0.2520117905851062","0","","","","","",""
"","do_trial","156","861274","0.0-138.0-0.0","445.5","","","","51","1,0,0","2","city","98","probe-161","0.9043711215166027","0.09565735435819012","0.3741475992912116","0","","","","","",""
"","do_trial","157","867099","0.0-139.0-0.0","281.3000000715256","","","","51","1,0,1","2","city","99","probe-187","0.7852904601344733","0.16296598420390865","0.4728172535537485","1","","","","","",""
"","do_trial","158","872927","0.0-140.0-0.0","280","","","","51","0,1,1","2","city","100","probe-159","0.6861471922192984","0.180594747151895","0.43506470957306703","1","","","","","",""
"","do_trial","159","878956","0.0-141.0-0.0","480.60000002384186","","","","51","1,0,1","2","city","101","probe-167","0.704579141574502","0.25039373062448306","0.42504905078949384","1","","","","","",""
"","do_trial","160","885575","0.0-142.0-0.0","1073.9000000953674","","","","51","1,0,1","2","city","102","probe-146","0.851969648655041","0.160813486668486","0.5780891216907906","1","","","","","",""
"","do_trial","161","891557","0.0-143.0-0.0","434.90000009536743","","","","51","1,1,0","2","city","103","probe-128","0.925122699883817","0.1725377558782135","0.44711384695957","0","","","","","",""
"","do_trial","162","897624","0.0-144.0-0.0","521.8000000715256","","","","51","1,0,0","2","city","104","probe-209","0.9396665733128817","0.13583564605388854","0.4315949665487203","0","","","","","",""
"","do_trial","163","903425","0.0-145.0-0.0","253.5","","","","49","1,0,0","2","city","105","probe-06","0.7414654295732288","0.1605601195267713","0.449265215345079","1","","","","","",""
"","do_trial","164","909275","0.0-146.0-0.0","305.10000002384186","","","","50","1,0,1","2","city","106","probe-191","0.8203306074335553","0.05949579767953246","0.5880308274641219","0","","","","","",""
"","do_trial","165","915302","0.0-147.0-0.0","476.6999999284744","","","","49","0,0,1","2","city","107","probe-179","0.8469612154318924","0.05518027104493869","0.5729937120467556","0","","","","","",""
"","do_trial","166","921069","0.0-148.0-0.0","220.60000002384186","","","","51","1,0,0","2","city","108","probe-214","0.6598148120844971","0.15977057719358","0.41615996414799733","0","","","","","",""
"","do_trial","167","927131","0.0-149.0-0.0","516.5999999046326","","","","51","1,0,1","2","city","109","probe-106","0.6526340456341906","0.16827134727874235","0.47328201625439287","1","","","","","",""
"","do_trial","168","933143","0.0-150.0-0.0","467.60000002384186","","","","51","1,0,1","2","city","110","probe-47","0.6997551451465654","0.10783229663668363","0.2993299781359986","1","","","","","",""
"","do_trial","169","939079","0.0-151.0-0.0","387.8000000715256","","","","51","1,0,1","2","city","111","probe-59","0.7863027054150837","0.06998734163814281","0.3634361554710873","1","","","","","",""
"","do_trial","170","945915","0.0-152.0-0.0","1284.1000000238419","","","","51","0,0,0","2","city","112","probe-199","0.7768576986513454","0.12391657253620804","0.3595348241029529","0","","","","","",""
"","do_trial","171","952188","0.0-153.0-0.0","723.6999999284744","","","","51","1,0,0","2","city","113","probe-200","0.7719903403699825","0.10442360871372121","0.2489409534968109","0","","","","","",""
"","do_trial","172","958079","0.0-154.0-0.0","346","","","","49","1,0,1","2","city","114","probe-56","0.8480061771653078","0.0811834331828651","0.3878374881196458","1","","","","","",""
"","do_trial","173","964389","0.0-155.0-0.0","760.1999999284744","","","","49","1,1,0","2","city","115","probe-115","0.8859369591330095","0.1279770380067538","0.3136736283603152","1","","","","","",""
"","do_trial","174","971605","0.0-156.0-0.0","1667.7999999523163","","","","49","1,0,1","2","city","116","probe-73","0.8493667769107367","0.0685359206748064","0.328648191622869","1","","","","","",""
"","do_trial","175","978126","0.0-157.0-0.0","975.6999999284744","","","","49","1,0,0","2","city","117","probe-43","0.7815764936819589","0.12278185132510493","0.3470214917580447","1","","","","","",""
"","do_trial","176","984056","0.0-158.0-0.0","384.5","","","","49","1,0,1","2","city","118","probe-57","0.8250194749765855","0.06185955122261668","0.323226910679601","1","","","","","",""
"","do_trial","177","990666","0.0-159.0-0.0","1064.2000000476837","","","","49","1,0,0","2","city","119","probe-08","0.8321273558805427","0.054091427019789314","0.2690107900511966","1","","","","","",""
"","do_bye","178","992175","0.0-160.0-0.0","null","","","","null","","","","","","","","","","","","","","",""
"","do_travel","179","998180","0.0-161.0-0.0","null","","","","null","","","","","","","","","","","","","","",""
"","do_welcome","180","999683","0.0-161.0-1.0","null","","","","null","","","","","","","","","","","","","","",""
"","do_trial","181","1006191","0.0-162.0-0.0","962.0999999046326","","","","50","1,0,0","3","coast","120","probe-94","1","0.1267386249938095","0.26360484753227126","0","","","","","",""
"","do_trial","182","1012109","0.0-163.0-0.0","370.3000000715256","","","","49","1,0,0","3","coast","121","probe-50","1","0.15530001844258098","0.23189134424096175","1","","","","","",""
"","do_trial","183","1018045","0.0-164.0-0.0","389.89999997615814","","","","49","1,0,0","3","coast","122","probe-171","1","0.11259618701517483","0.2777003322583052","1","","","","","",""
"","do_trial","184","1024495","0.0-165.0-0.0","902","","","","49","1,0,1","3","coast","123","probe-213","1","0.18824184304773467","0.40919815262471987","1","","","","","",""
"","do_trial","185","1030507","0.0-166.0-0.0","464.89999997615814","","","","49","1,0,0","3","coast","124","probe-103","0.8243911340174757","0.16492011880558408","0.331746362114134","1","","","","","",""
"","do_trial","186","1036407","0.0-167.0-0.0","352","","","","49","1,0,0","3","coast","125","probe-173","0.8217630370751587","0.24357219438194808","0.46273231120828356","1","","","","","",""
"","do_trial","187","1042455","0.0-168.0-0.0","null","","","","null","0,0,0","3","coast","126","probe-107","0.7248953649982893","0.19017579273287763","0.32731459193186796","","","","","","",""
"","do_trial","188","1048004","0.0-169.0-0.0","0.19999992847442627","","","","49","0,0,0","3","coast","127","probe-90","0.857053649795164","0.146991537458597","0.3959203067404194","0","","","","","",""
"","do_trial","189","1054166","0.0-170.0-0.0","618.5","","","","49","1,0,1","3","coast","128","probe-41","0.9052235542671142","0.09076128538039964","0.43927469518041407","1","","","","","",""
"","do_trial","190","1060415","0.0-171.0-0.0","703.2000000476837","","","","49","1,0,1","3","coast","129","probe-141","0.8867699083615791","0.07820156627798562","0.49061900281694537","1","","","","","",""
"","do_trial","191","1066358","0.0-172.0-0.0","392.39999997615814","","","","49","1,1,0","3","coast","130","probe-194","0.5663426844066402","0.2485956489618518","0.42484559009616973","1","","","","","",""
"","do_trial","192","1072475","0.0-173.0-0.0","569","","","","49","0,0,1","3","coast","131","probe-226","0.25762650199586257","0.5076309753186847","0.4039924193623346","0","","","","","",""
"","do_trial","193","1078299","0.0-174.0-0.0","277.39999997615814","","","","49","0,0,0","3","coast","132","probe-117","0.2572767858656423","0.6938759087344976","0.5886307643504385","0","","","","","",""
"","do_trial","194","1084124","0.0-175.0-0.0","275.39999997615814","","","","51","0,1,1","3","coast","133","probe-21","0.13235245264012155","0.7975608921745112","0.49165407955570706","1","","","","","",""
"","do_trial","195","1090134","0.0-176.0-0.0","466.1999999284744","","","","51","0,0,0","3","coast","134","probe-92","0.059249705626868446","0.7606951439400551","0.37329567593893315","0","","","","","",""
"","do_trial","196","1095989","0.0-177.0-0.0","308.10000002384186","","","","51","1,1,1","3","coast","135","probe-98","0.09693389146644267","0.7459701811166772","0.4833833598772902","1","","","","","",""
"","do_trial","197","1101850","0.0-178.0-0.0","314.59999990463257","","","","51","0,1,1","3","coast","136","probe-62","0.19335251348469462","0.6802020822927404","0.5205502122955176","1","","","","","",""
"","do_trial","198","1107797","0.0-179.0-0.0","399.09999990463257","","","","51","0,0,1","3","coast","137","probe-04","0.12166707687612331","0.6200820391969027","0.5582173615505307","1","","","","","",""
"","do_trial","199","1114154","0.0-180.0-0.0","812.3000000715256","","","","51","0,1,1","3","coast","138","probe-160","0.1360059959099123","0.7031858915678411","0.5011213834985214","1","","","","","",""
"","do_trial","200","1121288","0.0-181.0-0.0","1588.6000000238419","","","","51","0,1,0","3","coast","139","probe-205","0.07702698611594101","0.7007839270982971","0.5722502885342845","0","","","","","",""
"","do_trial","201","1127423","0.0-182.0-0.0","587.5","","","","51","0,1,0","3","coast","140","probe-22","0.1743018628326184","0.8099086644570889","0.33377391357240466","0","","","","","",""
"","do_trial","202","1133059","0.0-183.0-0.0","86.60000002384186","","","","50","1,1,0","3","coast","141","probe-86","0.1910201242414997","0.8816621119038347","0.2590428414328944","1","","","","","",""
"","do_trial","203","1138612","0.0-184.0-0.0","9.899999976158142","","","","50","0,0,0","3","coast","142","probe-32","0.18543623854550695","0.685035016150837","0.26520489611901044","0","","","","","",""
"","do_trial","204","1144300","0.0-185.0-0.0","144.60000002384186","","","","50","0,1,0","3","coast","143","probe-155","0.1848624708134736","0.7766200325600204","0.3526049143009542","1","","","","","",""
"","do_trial","205","1150110","0.0-186.0-0.0","265.3000000715256","","","","50","0,1,0","3","coast","144","probe-52","0.20344641070777642","0.8461890237660147","0.3617202236729119","1","","","","","",""
"","do_trial","206","1156005","0.0-187.0-0.0","350.39999997615814","","","","50","0,0,0","3","coast","145","probe-135","0.08413108268621622","0.7189835896099183","0.41982419584693664","0","","","","","",""
"","do_trial","207","1161858","0.0-188.0-0.0","307.89999997615814","","","","50","1,1,0","3","coast","146","probe-235","0.15568098172704936","0.7691010649140566","0.39223549156449034","1","","","","","",""
"","do_trial","208","1167608","0.0-189.0-0.0","205.89999997615814","","","","50","0,1,0","3","coast","147","probe-212","0.12337792452247535","0.8653845522883377","0.36891031651019296","1","","","","","",""
"","do_trial","209","1173821","0.0-190.0-0.0","668.7999999523163","","","","50","0,1,0","3","coast","148","probe-15","0.18461936371607615","0.8400339940175837","0.41875512928360215","1","","","","","",""
"","do_trial","210","1179712","0.0-191.0-0.0","343.40000009536743","","","","50","0,1,0","3","coast","149","probe-35","0.1713713915408669","0.8838030480653103","0.3885293703958216","1","","","","","",""
"","do_trial","211","1186023","0.0-192.0-0.0","766.6999999284744","","","","50","0,1,1","3","coast","150","probe-231","0.08517078628218397","0.7951259336495535","0.35238751276927716","1","","","","","",""
"","do_trial","212","1191911","0.0-193.0-0.0","340.6999999284744","","","","50","0,0,0","3","coast","151","probe-154","0.17359923287495327","0.6515071020706613","0.3634085892089535","0","","","","","",""
"","do_trial","213","1198151","0.0-194.0-0.0","695.6000000238419","","","","50","1,1,0","3","coast","152","probe-61","0.26820008592550776","0.5750004655421799","0.41610272957683164","1","","","","","",""
"","do_trial","214","1206439","0.0-195.0-0.0","2744.4000000953674","","","","50","0,0,1","3","coast","153","probe-176","0.1373970069068579","0.6245061255529942","0.34778063144928145","0","","","","","",""
"","do_trial","215","1212450","0.0-196.0-0.0","464.39999997615814","","","","50","0,0,1","3","coast","154","probe-195","0.06999233219870242","0.5283149405918194","0.42145497851780234","0","","","","","",""
"","do_trial","216","1218681","0.0-197.0-0.0","683.7000000476837","","","","49","0,0,0","3","coast","155","probe-224","0.0567517337830045","0.6538578026643197","0.49986684952678423","0","","","","","",""
"","do_trial","217","1225407","0.0-198.0-0.0","1180.1000000238419","","","","51","0,1,0","3","coast","156","probe-82","0.1747319458608807","0.6509606242933049","0.4273349549307642","0","","","","","",""
"","do_trial","218","1230958","0.0-199.0-0.0","0.09999990463256836","","","","51","0,0,0","3","coast","157","probe-13","0.11564689570357203","0.8558247401965768","0.4688298220919293","0","","","","","",""
"","do_trial","219","1236940","0.0-200.0-0.0","436.2000000476837","","","","51","0,1,0","3","coast","158","probe-01","0.05745818214020996","0.798036089255335","0.45117744795681364","0","","","","","",""
"","do_trial","220","1242797","0.0-201.0-0.0","308.7000000476837","","","","49","0,1,0","3","coast","159","probe-09","0.05997730690946293","0.6544537601172796","0.49508340449061833","0","","","","","",""
"","do_bye","221","1244303","0.0-202.0-0.0","null","","","","null","","","","","","","","","","","","","","",""
"","do_travel","222","1250307","0.0-203.0-0.0","null","","","","null","","","","","","","","","","","","","","",""
"","do_welcome","223","1251814","0.0-203.0-1.0","null","","","","null","","","","","","","","","","","","","","",""
"","do_trial","224","1257912","0.0-204.0-0.0","553.2999999523163","","","","51","0,1,0","4","forest","160","probe-70","0.14336736705612824","1","0.5552525971744364","0","","","","","",""
"","do_trial","225","1263538","0.0-205.0-0.0","78.89999997615814","","","","50","0,1,0","4","forest","161","probe-69","0.23962037640831463","1","0.49871675039574753","1","","","","","",""
"","do_trial","226","1269582","0.0-206.0-0.0","497","","","","50","1,1,0","4","forest","162","probe-77","0.3094117808221865","1","0.4526043266308989","1","","","","","",""
"","do_trial","227","1275574","0.0-207.0-0.0","445.39999997615814","","","","50","0,1,0","4","forest","163","probe-02","0.2170125362177882","1","0.3860348604096943","1","","","","","",""
"","do_trial","228","1281637","0.0-208.0-0.0","515.7999999523163","","","","50","0,1,0","4","forest","164","probe-84","0.18995652315516942","0.9197047888548922","0.3255030583512456","1","","","","","",""
"","do_trial","229","1288155","0.0-209.0-0.0","972.3000000715256","","","","50","1,1,0","4","forest","165","probe-122","0.1568601497791868","0.9418345021061726","0.5234276150758851","1","","","","","",""
"","do_trial","230","1296191","0.0-210.0-0.0","2491","","","","50","0,1,1","4","forest","166","probe-215","0.21626133217268734","0.7818223483695732","0.4300175902988857","1","","","","","",""
"","do_trial","231","1302744","0.0-211.0-0.0","1006.5","","","","50","1,1,0","4","forest","167","probe-54","0.23762243352217488","0.7904324872764436","0.34973912626138387","1","","","","","",""
"","do_trial","232","1308886","0.0-212.0-0.0","597.7000000476837","","","","50","0,1,0","4","forest","168","probe-237","0.26018839160575846","0.8576910660717688","0.2643750708457532","1","","","","","",""
"","do_trial","233","1316607","0.0-213.0-0.0","2177.7999999523163","","","","50","0,1,1","4","forest","169","probe-129","0.16159781031513348","0.7389916715658814","0.2929391293804967","1","","","","","",""
"","do_trial","234","1323875","0.0-214.0-0.0","1723.3999999761581","","","","50","1,0,0","4","forest","170","probe-138","0.32914367505446335","0.5449156363658985","0.32012371567515585","0","","","","","",""
"","do_trial","235","1329765","0.0-215.0-0.0","341","","","","50","1,0,1","4","forest","171","probe-07","0.5966228584994022","0.3937745213719122","0.38759975528944024","0","","","","","",""
"","do_trial","236","1335714","0.0-216.0-0.0","404.60000002384186","","","","49","1,1,0","4","forest","172","probe-24","0.8119741275417569","0.2221198993532569","0.3149337019589655","1","","","","","",""
"","do_trial","237","1341817","0.0-217.0-0.0","558.2000000476837","","","","49","1,1,1","4","forest","173","probe-28","0.8808470052722115","0.0914590481195276","0.37869638326422744","1","","","","","",""
"","do_trial","238","1348016","0.0-218.0-0.0","652.8999999761581","","","","49","1,0,1","4","forest","174","probe-38","0.9147371953315505","0.10690006837087296","0.2981852180327997","1","","","","","",""
"","do_trial","239","1353962","0.0-219.0-0.0","400.5","","","","49","1,0,0","4","forest","175","probe-136","0.9053176470048956","0.06464133738433579","0.2903202902801524","1","","","","","",""
"","do_trial","240","1360529","0.0-220.0-0.0","1020.6999999284744","","","","49","1,0,1","4","forest","176","probe-99","0.8275931300083537","0.058226798652537284","0.4369960923406923","1","","","","","",""
"","do_trial","241","1367170","0.0-221.0-0.0","1091.1999999284744","","","","49","1,0,0","4","forest","177","probe-139","0.7846365330447925","0.06026317087027188","0.3732063440150737","1","","","","","",""
"","do_trial","242","1372757","0.0-222.0-0.0","41.60000002384186","","","","49","1,0,0","4","forest","178","probe-156","0.8466697286323396","0.06321914340588343","0.415958039194732","1","","","","","",""
"","do_trial","243","1378725","0.0-223.0-0.0","421.5","","","","49","1,0,0","4","forest","179","probe-216","0.7897925930967601","0.06956998518228069","0.2908998407193825","1","","","","","",""
"","do_trial","244","1384686","0.0-224.0-0.0","411.1999999284744","","","","49","1,0,1","4","forest","180","probe-230","0.8166482298697741","0.0768356983488139","0.16988908782576861","1","","","","","",""
"","do_trial","245","1392202","0.0-225.0-0.0","1969.6000000238419","","","","49","0,0,1","4","forest","181","probe-150","0.9314973274190326","0.06956829363828987","0.2727221368281665","0","","","","","",""
"","do_trial","246","1398153","0.0-226.0-0.0","403.6999999284744","","","","49","1,0,0","4","forest","182","probe-153","0.949163812172174","0.08962949617839862","0.44023569226868847","1","","","","","",""
"","do_trial","247","1404604","0.0-227.0-0.0","901.3000000715256","","","","49","0,0,0","4","forest","183","probe-76","0.7620166738958105","0.17165896384907517","0.4795534245304242","0","","","","","",""
"","do_trial","248","1413109","0.0-228.0-0.0","2958.600000023842","","","","49","1,0,1","4","forest","184","probe-220","0.6297429240394604","0.09511996554424272","0.29337556276616933","1","","","","","",""
"","do_trial","249","1421441","0.0-229.0-0.0","2787.5","","","","51","0,0,1","4","forest","185","probe-186","0.7093100331374882","0.15817620910807095","0.3237713016147832","1","","","","","",""
"","do_trial","250","1428066","0.0-230.0-0.0","1080.3999999761581","","","","51","1,0,0","4","forest","186","probe-75","0.666388376647379","0.11108331701057189","0.3065032757365869","0","","","","","",""
"","do_trial","251","1434302","0.0-231.0-0.0","681.6999999284744","","","","50","1,0,1","4","forest","187","probe-26","0.8473660518076319","0.09797940172719927","0.3051932895088351","0","","","","","",""
"","do_trial","252","1440321","0.0-232.0-0.0","472.39999997615814","","","","51","1,0,0","4","forest","188","probe-31","0.6957195800119503","0.15565816946965436","0.3692340489035536","0","","","","","",""
"","do_trial","253","1446094","0.0-233.0-0.0","223.29999995231628","","","","51","0,0,1","4","forest","189","probe-72","0.7406335659673178","0.15347245846545435","0.3537195637847953","1","","","","","",""
"","do_trial","254","1451962","0.0-234.0-0.0","314.7999999523163","","","","49","1,0,0","4","forest","190","probe-112","0.735709800229245","0.08935795178983211","0.3982787468920261","1","","","","","",""
"","do_trial","255","1458460","0.0-235.0-0.0","950.7999999523163","","","","49","1,0,1","4","forest","191","probe-119","0.6541719242450519","0.10325690567588933","0.35302477816938904","1","","","","","",""
"","do_trial","256","1465255","0.0-236.0-0.0","1248","","","","49","1,0,1","4","forest","192","probe-207","0.7304150281918982","0.07705322083472525","0.4047507926298466","1","","","","","",""
"","do_trial","257","1471530","0.0-237.0-0.0","724","","","","49","1,0,0","4","forest","193","probe-163","0.9359925900205158","0.05442408479347008","0.36315932238634796","1","","","","","",""
"","do_trial","258","1478692","0.0-238.0-0.0","1614.8999999761581","","","","49","1,0,1","4","forest","194","probe-42","0.8828811823771378","0.08044066544917003","0.42369207465481196","1","","","","","",""
"","do_trial","259","1485010","0.0-239.0-0.0","771","","","","49","1,0,0","4","forest","195","probe-114","0.8040320852928088","0.17940557793763887","0.32587209783914023","1","","","","","",""
"","do_trial","260","1491738","0.0-240.0-0.0","1181.1000000238419","","","","49","1,0,1","4","forest","196","probe-78","0.5850498670065577","0.1675097769711816","0.3827090683428686","1","","","","","",""
"","do_trial","261","1497741","0.0-241.0-0.0","457.39999997615814","","","","49","1,0,0","4","forest","197","probe-85","0.6600112289132385","0.09010948192447496","0.3881059410836678","1","","","","","",""
"","do_trial","262","1504328","0.0-242.0-0.0","1038.1000000238419","","","","49","0,0,0","4","forest","198","probe-182","0.7004355831712824","0.12133304645993835","0.3805927183813831","0","","","","","",""
"","do_trial","263","1510308","0.0-243.0-0.0","435.40000009536743","","","","50","1,0,0","4","forest","199","probe-36","0.7021164869249787","0.33405791479404984","0.35769814429846053","0","","","","","",""
"","do_bye","264","1511816","0.0-244.0-0.0","null","","","","null","","","","","","","","","","","","","","",""
"","do_travel","265","1517818","0.0-245.0-0.0","null","","","","null","","","","","","","","","","","","","","",""
"","do_welcome","266","1519323","0.0-245.0-1.0","null","","","","null","","","","","","","","","","","","","","",""
"","do_trial","267","1525399","0.0-246.0-0.0","531.0999999046326","","","","50","1,0,1","5","highway","200","probe-130","1","0.4022397440137621","0.4829381027625225","0","","","","","",""
"","do_trial","268","1531915","0.0-247.0-0.0","966.2000000476837","","","","50","1,0,0","5","highway","201","probe-11","1","0.3781933601337367","0.5076365312197629","0","","","","","",""
"","do_trial","269","1537777","0.0-248.0-0.0","316.09999990463257","","","","51","1,0,0","5","highway","202","probe-116","1","0.18328122801547436","0.5127079381427841","0","","","","","",""
"","do_trial","270","1543621","0.0-249.0-0.0","295.60000002384186","","","","51","1,0,1","5","highway","203","probe-60","1","0.07274801744375477","0.5270302810447707","1","","","","","",""
"","do_trial","271","1549559","0.0-250.0-0.0","393.10000002384186","","","","51","1,0,0","5","highway","204","probe-145","0.9461270320657563","0.0591371855086096","0.4080713912010945","0","","","","","",""
"","do_trial","272","1555438","0.0-251.0-0.0","331","","","","49","1,0,0","5","highway","205","probe-39","0.8128769247371537","0.10616985095834439","0.32533257963489376","1","","","","","",""
"","do_trial","273","1561613","0.0-252.0-0.0","625.8999999761581","","","","49","1,0,0","5","highway","206","probe-137","0.8464711107393247","0.11436459881262008","0.3125348604065508","1","","","","","",""
"","do_trial","274","1568088","0.0-253.0-0.0","930.2999999523163","","","","49","1,1,0","5","highway","207","probe-157","0.9012413482611106","0.26616955490570215","0.39186835698268296","1","","","","","",""
"","do_trial","275","1573900","0.0-254.0-0.0","266.89999997615814","","","","49","1,0,0","5","highway","208","probe-110","0.8886052454235894","0.12173067316043107","0.27235619542125056","1","","","","","",""
"","do_trial","276","1579755","0.0-255.0-0.0","307.8000000715256","","","","49","1,0,0","5","highway","209","probe-111","0.8634844511163352","0.10843650328893553","0.2347135613764096","1","","","","","",""
"","do_trial","277","1585885","0.0-256.0-0.0","580.1999999284744","","","","49","0,0,0","5","highway","210","probe-65","0.5966993450881916","0.4178430309266842","0.23206716500772426","0","","","","","",""
"","do_trial","278","1591569","0.0-257.0-0.0","138","","","","49","1,0,0","5","highway","211","probe-10","0.4292138229699983","0.6125060325981795","0.26833161000632133","1","","","","","",""
"","do_trial","279","1597190","0.0-258.0-0.0","75.39999997615814","","","","49","1,0,0","5","highway","212","probe-46","0.4783611006643818","0.6657343074365528","0.4079848602444661","1","","","","","",""
"","do_trial","280","1603244","0.0-259.0-0.0","506.2000000476837","","","","49","0,1,0","5","highway","213","probe-19","0.3790365332441711","0.7356088666215992","0.4831251559976794","0","","","","","",""
"","do_trial","281","1608791","0.0-260.0-0.0","0.20000004768371582","","","","49","0,0,0","5","highway","214","probe-192","0.18356947968825302","0.8335323303905875","0.41186417489815197","0","","","","","",""
"","do_trial","282","1615119","0.0-261.0-0.0","783","","","","50","0,1,1","5","highway","215","probe-27","0.16644251405940322","0.7156428920199989","0.4059331435151593","1","","","","","",""
"","do_trial","283","1620969","0.0-262.0-0.0","304.2999999523163","","","","50","0,1,1","5","highway","216","probe-162","0.16555925331366086","0.8221168355341356","0.49196926474137115","1","","","","","",""
"","do_trial","284","1626852","0.0-263.0-0.0","334.5","","","","50","0,0,0","5","highway","217","probe-223","0.12348948304176073","0.7031116147824003","0.4653754785865921","0","","","","","",""
"","do_trial","285","1632836","0.0-264.0-0.0","434.10000002384186","","","","51","0,1,0","5","highway","218","probe-17","0.177763451888618","0.5363081436366742","0.43986850878334127","0","","","","","",""
"","do_trial","286","1638744","0.0-265.0-0.0","363.2000000476837","","","","51","0,0,0","5","highway","219","probe-147","0.1759207106598359","0.6260854867660473","0.44778637364570295","0","","","","","",""
"","do_trial","287","1644368","0.0-266.0-0.0","80.40000009536743","","","","49","0,0,1","5","highway","220","probe-34","0.09119763625129627","0.7146330821805384","0.4648335274853112","0","","","","","",""
"","do_trial","288","1650247","0.0-267.0-0.0","335.39999997615814","","","","49","0,0,0","5","highway","221","probe-202","0.15471000286196318","0.5854924510475005","0.30136614134101997","0","","","","","",""
"","do_trial","289","1655843","0.0-268.0-0.0","51.10000002384186","","","","50","0,1,1","5","highway","222","probe-198","0.12180175880151875","0.7761207202173706","0.3418462107121167","1","","","","","",""
"","do_trial","290","1663331","0.0-269.0-0.0","1938.8999999761581","","","","50","0,1,0","5","highway","223","probe-16","0.05237393302441415","0.8473093320076319","0.4807438596527968","1","","","","","",""
"","do_trial","291","1668877","0.0-270.0-0.0","0.10000002384185791","","","","50","0,1,0","5","highway","224","probe-113","0.14315650122324394","0.852694231500763","0.36557344001877","1","","","","","",""
"","do_trial","292","1674425","0.0-271.0-0.0","0.20000004768371582","","","","50","1,1,0","5","highway","225","probe-211","0.1767169287041854","0.9387944287119081","0.19996718609745812","1","","","","","",""
"","do_trial","293","1680477","0.0-272.0-0.0","507.3000000715256","","","","50","0,1,0","5","highway","226","probe-174","0.17686431366929925","0.8944301224536065","0.21451000520638808","1","","","","","",""
"","do_trial","294","1688479","0.0-273.0-0.0","2456.2000000476837","","","","50","0,1,0","5","highway","227","probe-181","0.09661475762533035","0.849057506872324","0.4329305917314271","1","","","","","",""
"","do_trial","295","1694537","0.0-274.0-0.0","510.5","","","","50","0,0,0","5","highway","228","probe-83","0.1534721318521468","0.7428295085247448","0.34880122766950833","0","","","","","",""
"","do_trial","296","1700522","0.0-275.0-0.0","439.90000009536743","","","","50","1,1,1","5","highway","229","probe-190","0.06859915860851454","0.86823968431896","0.34444455956420394","1","","","","","",""
"","do_trial","297","1706755","0.0-276.0-0.0","687","","","","50","0,1,0","5","highway","230","probe-142","0.09030757753428852","0.8023075125200201","0.3075406765667252","1","","","","","",""
"","do_trial","298","1714132","0.0-277.0-0.0","1825.5999999046326","","","","50","0,1,0","5","highway","231","probe-23","0.12144604968537534","0.8551889379790046","0.31516693887252056","1","","","","","",""
"","do_trial","299","1719995","0.0-278.0-0.0","318.5","","","","50","0,1,1","5","highway","232","probe-29","0.10073691394310279","0.876262081379941","0.4065439650984426","1","","","","","",""
"","do_trial","300","1726953","0.0-279.0-0.0","1412.2000000476837","","","","50","0,1,0","5","highway","233","probe-30","0.07546792291129167","0.9243048821711766","0.4025310191313408","1","","","","","",""
"","do_trial","301","1733669","0.0-280.0-0.0","1166.5","","","","50","0,1,0","5","highway","234","probe-239","0.2648749432675475","0.8417220819732784","0.40475626643367174","1","","","","","",""
"","do_trial","302","1740250","0.0-281.0-0.0","1035","","","","50","0,1,0","5","highway","235","probe-20","0.1820225380608717","0.8233405448913687","0.4561507991493188","1","","","","","",""
"","do_trial","303","1746109","0.0-282.0-0.0","314","","","","50","0,1,1","5","highway","236","probe-219","0.11692467735106794","0.8864804567858178","0.34893283975684036","1","","","","","",""
"","do_trial","304","1752305","0.0-283.0-0.0","643.1999999284744","","","","50","0,1,0","5","highway","237","probe-64","0.11691847966233347","0.8875711110673302","0.3262430840910742","1","","","","","",""
"","do_trial","305","1758480","0.0-284.0-0.0","622.7000000476837","","","","50","1,1,1","5","highway","238","probe-175","0.16493064447205766","0.8180829749610554","0.3331394706452558","1","","","","","",""
"","do_trial","306","1765419","0.0-285.0-0.0","1390.7000000476837","","","","50","1,1,0","5","highway","239","probe-18","0.41835410628975106","0.8684009370067932","0.15753705456947484","1","","","","","",""
"","do_bye","307","1766924","0.0-286.0-0.0","null","","","","null","","","","","","","","","","","","","","",""
"","html-keyboard-response","308","1772778","0.0-286.0-1.0","5852.600000023842","<div class='center'><p>You may take a break now!</p><p> Stretch for a little bit. Get a glass of water.</p><p> You have two minutes to rest. Then, the game will automatically move on.</p><p>If you’d like to get started on the second half of the experiment sooner, then press the <b>space bar</b></p></div>","32","","","","","","","","","","","","","","","","",""
"","html-keyboard-response","309","1794108","0.0-286.0-2.0","21328.5","<div class='center'><p>You’ve arrived at the final destination of your journey! Unfortunately, it’s very foggy out, so you won’t be able to see it in the distance like in previous places you've visited.</p><p>You’ll still be deciding which pirates you want to rob ships. However, because of the fog you also won’t be able to see the ship in the distance. </p><p><b>[Press the space bar to continue]</b></p></div>","32","","","","","","","","","","","","","","","","",""
"","html-keyboard-response","310","1807412","0.0-286.0-3.0","13302.300000071526","<div class='center'><p> Sometimes you’ll be asked if you’ve seen a ship before (see the example below). You will use the 5, 6, 7, 8 buttons on your keyboard to respond. </p><p> If you definitely did not see the ship, pick the the big red thumbs down by pressing <b>5</b>.</p><p> If you don’t think you saw it but aren’t sure, then pick the small red thumbs down by pressing <b>6</b>.</p><p> If you think you might have seen it, then pick the small green thumbs up by pressing <b>7</b>.</p><p> If you definitely did see this ship before, then pick the big thumb green thumbs up by pressing <b>8</b>.</p><p> If you recall correctly, then you’ll get a gold coin!</p><p><b>[Press the space bar to begin the next phase of the experiment]</b></p><p><img src='run_exp/static/images/example_recog_trial.png' height='500'></p></div>","32","","","","","","","","","","","","","","","","",""
"","do_welcome","311","1808916","0.0-286.0-4.0","null","","","","null","","","","","","","","","","","","","","",""
"","do_trial","312","1814969","0.0-287.0-0.0","null","","","","null","1,1,0","6","blank","240","null","0.4409571330699862","1","0.19723731812663783","","","","","","",""
"","do_recog","313","1819681","0.0-288.0-0.0","3204.7000000476837","","","","53","","","","241","probe-237","","","","","1","[object Object]","168","4","0",""
"","do_trial","314","1824552","0.0-289.0-0.0","1320.9000000953674","","","","50","0,1,1","6","blank","242","null","0.49963469151542883","0.8293096379457299","0.17739139793033704","1","","","","","",""
"","do_recog","315","1828580","0.0-290.0-0.0","2518.5","","","","53","","","","243","probe-254","","","","","0","[object Object]","null","null","1",""
"","do_trial","316","1833323","0.0-291.0-0.0","1197.1999999284744","","","","49","0,1,0","6","blank","244","null","0.3624349681116331","0.7512417498691178","0.2408643977271224","0","","","","","",""
"","do_recog","317","1836201","0.0-292.0-0.0","1370.3999999761581","","","","53","","","","245","probe-79","","","","","1","[object Object]","84","2","0",""
"","do_trial","318","1841431","0.0-293.0-0.0","1683.8999999761581","","","","49","0,1,0","6","blank","246","null","0.20745913862729573","0.7909913221886379","0.32928827784965625","0","","","","","",""
"","do_recog","319","1844220","0.0-294.0-0.0","1285","","","","56","","","","247","probe-133","","","","","1","[object Object]","80","2","1",""
"","do_trial","320","1848140","0.0-295.0-0.0","370.2999999523163","","","","51","0,1,1","6","blank","248","null","0.1546795911512538","0.8056919465412369","0.5423553722021147","1","","","","","",""
"","do_recog","321","1850944","0.0-296.0-0.0","1298.6000000238419","","","","56","","","","249","probe-14","","","","","1","[object Object]","81","2","1",""
"","do_trial","322","1855564","0.0-297.0-0.0","1073.1000000238419","","","","51","0,0,1","6","blank","250","null","0.07380357956336199","0.8857287220567941","0.43051333232491934","1","","","","","",""
"","do_recog","323","1858122","0.0-298.0-0.0","1050.6000000238419","","","","55","","","","251","probe-54","","","","","1","[object Object]","167","4","1",""
"","do_trial","324","1862597","0.0-299.0-0.0","927.7000000476837","","","","51","0,1,1","6","blank","252","null","0.09978110457921456","0.8071491154851885","0.382897821078719","1","","","","","",""
"","do_trial","325","1867659","0.0-300.0-0.0","1519.1000000238419","","","","51","0,0,0","6","blank","253","null","0.1255548436089659","0.763987851698997","0.48568882189492046","0","","","","","",""
"","do_trial","326","1872203","0.0-301.0-0.0","993.7000000476837","","","","51","0,1,0","6","blank","254","null","0.054612327744525326","0.7905349125462064","0.33182409500051685","0","","","","","",""
"","do_trial","327","1876118","0.0-302.0-0.0","367.7999999523163","","","","50","0,1,1","6","blank","255","null","0.07384632817582652","0.7215289938320173","0.28893157907960854","1","","","","","",""
"","do_recog","328","1878952","0.0-303.0-0.0","1327.5","","","","55","","","","256","probe-90","","","","","1","[object Object]","127","3","1",""
"","do_trial","329","1883228","0.0-304.0-0.0","726.3000000715256","","","","50","0,0,1","6","blank","257","null","0.18729200821305136","0.5079008274923654","0.4881734262796162","0","","","","","",""
"","do_trial","330","1886822","0.0-305.0-0.0","45.300000071525574","","","","49","1,1,1","6","blank","258","null","0.37794272631739234","0.23418426141446305","0.6239411606137371","1","","","","","",""
"","do_trial","331","1891737","0.0-306.0-0.0","1368.6000000238419","","","","49","1,0,1","6","blank","259","null","0.3265574222596525","0.10049493625197703","0.7316990409819977","1","","","","","",""
"","do_trial","332","1897360","0.0-307.0-0.0","2078.2999999523163","","","","49","0,0,1","6","blank","260","null","0.4188282208854569","0.22611459496069133","0.748104683629034","0","","","","","",""
"","do_trial","333","1901384","0.0-308.0-0.0","474.7999999523163","","","","49","0,0,1","6","blank","261","null","0.3099542422887784","0.12357400123680962","0.8905167894060867","0","","","","","",""
"","do_recog","334","1904935","0.0-309.0-0.0","2039.3999999761581","","","","53","","","","262","probe-242","","","","","0","[object Object]","null","null","1",""
"","do_trial","335","1911135","0.0-310.0-0.0","2652.7000000476837","","","","49","1,0,1","6","blank","263","null","0.19712174312653152","0.19773527440742336","0.8905928064912013","1","","","","","",""
"","do_recog","336","1914383","0.0-311.0-0.0","1742.0999999046326","","","","53","","","","264","probe-141","","","","","1","[object Object]","129","3","0",""
"","do_trial","337","1918660","0.0-312.0-0.0","732.7000000476837","","","","49","0,0,1","6","blank","265","null","0.31425376235553404","0.08331094202469982","0.8527483164977518","0","","","","","",""
"","do_recog","338","1922600","0.0-313.0-0.0","2431.600000023842","","","","56","","","","266","probe-87","","","","","1","[object Object]","44","1","1",""
"","do_trial","339","1926690","0.0-314.0-0.0","543.1000000238419","","","","49","0,0,0","6","blank","267","null","0.22381342104377822","0.09714580270253655","0.8898732810867953","0","","","","","",""
"","do_recog","340","1929544","0.0-315.0-0.0","1347.2000000476837","","","","55","","","","268","probe-103","","","","","1","[object Object]","124","3","1",""
"","do_trial","341","1934350","0.0-316.0-0.0","1259.1999999284744","","","","49","0,1,0","6","blank","269","null","0.24639762305403587","0.20314480477963892","0.8830510831096696","0","","","","","",""
"","do_recog","342","1937665","0.0-317.0-0.0","1807.2000000476837","","","","56","","","","270","probe-213","","","","","1","[object Object]","123","3","1",""
"","do_trial","343","1942014","0.0-318.0-0.0","798.5","","","","51","0,0,0","6","blank","271","null","0.3126816282297365","0.14957911395082185","0.8050169284912312","0","","","","","",""
"","do_recog","344","1945713","0.0-319.0-0.0","2186.899999976158","","","","54","","","","272","probe-39","","","","","1","[object Object]","205","5","0",""
"","do_trial","345","1949635","0.0-320.0-0.0","375.60000002384186","","","","49","1,0,1","6","blank","273","null","0.4329133969550347","0.0681234322635986","0.7101205475974601","1","","","","","",""
"","do_trial","346","1955838","0.0-321.0-0.0","2653.7000000476837","","","","51","0,0,1","6","blank","274","null","0.4149348765314859","0.12519787559429382","0.7493181206670929","1","","","","","",""
"","do_trial","347","1960438","0.0-322.0-0.0","1054.3000000715256","","","","50","0,0,0","6","blank","275","null","0.36181458145249656","0.14644392861252006","0.833871434873898","0","","","","","",""
"","do_trial","348","1964263","0.0-323.0-0.0","277.6999999284744","","","","51","0,1,1","6","blank","276","null","0.3033403589087685","0.06156163767897514","0.9167327870618857","1","","","","","",""
"","do_trial","349","1968816","0.0-324.0-0.0","999.6000000238419","","","","51","0,0,1","6","blank","277","null","0.3874382718004274","0.1419614808895586","0.8453621929197495","1","","","","","",""
"","do_recog","350","1971369","0.0-325.0-0.0","1044.8000000715256","","","","55","","","","278","probe-157","","","","","1","[object Object]","207","5","1",""
"","do_trial","351","1975997","0.0-326.0-0.0","1078.9000000953674","","","","51","0,0,1","6","blank","279","null","0.28646834050488246","0.07733552723302778","0.747740815662608","1","","","","","",""
"","do_recog","352","1978996","0.0-327.0-0.0","1490.3999999761581","","","","55","","","","280","probe-50","","","","","1","[object Object]","121","3","1",""
"","do_trial","353","1984133","0.0-328.0-0.0","1588.0999999046326","","","","51","0,0,1","6","blank","281","null","0.3547430373710286","0.12278722626714132","0.7082007311685976","1","","","","","",""
"","do_trial","354","1988238","0.0-329.0-0.0","561.1000000238419","","","","51","0,0,0","6","blank","282","null","0.33140912955953883","0.21742889937830776","0.8011966515537574","0","","","","","",""
"","do_trial","355","1992761","0.0-330.0-0.0","977.8999999761581","","","","51","0,1,1","6","blank","283","null","0.40802771900352325","0.06026542034749308","0.8626819333090918","1","","","","","",""
"","do_trial","356","1997449","0.0-331.0-0.0","1143.2999999523163","","","","51","1,0,0","6","blank","284","null","0.46616678992874716","0.11072289245759534","0.662510540997651","0","","","","","",""
"","do_trial","357","2001523","0.0-332.0-0.0","529.6000000238419","","","","51","1,0,1","6","blank","285","null","0.5291356523640378","0.08898102171511102","1","1","","","","","",""
"","do_recog","358","2004178","0.0-333.0-0.0","1148.3999999761581","","","","56","","","","286","probe-122","","","","","1","[object Object]","165","4","1",""
"","do_trial","359","2008062","0.0-334.0-0.0","340.89999997615814","","","","51","1,0,1","6","blank","287","null","0.5232970572555525","0.11076086490216934","0.8445203251167938","1","","","","","",""
"","do_recog","360","2010830","0.0-335.0-0.0","1260.5","","","","53","","","","288","probe-70","","","","","1","[object Object]","160","4","0",""
"","do_trial","361","2015214","0.0-336.0-0.0","836.7999999523163","","","","51","0,0,1","6","blank","289","null","0.45710723900644334","0.15931288484914827","0.7547615133310117","1","","","","","",""
"","do_recog","362","2017577","0.0-337.0-0.0","853.7000000476837","","","","56","","","","290","probe-171","","","","","1","[object Object]","122","3","1",""
"","do_trial","363","2021465","0.0-338.0-0.0","342.10000002384186","","","","51","0,0,0","6","blank","291","null","0.2999951738333196","0.08646496880837137","0.6619903694027146","0","","","","","",""
"","do_recog","364","2023791","0.0-339.0-0.0","816.2999999523163","","","","56","","","","292","probe-44","","","","","1","[object Object]","41","1","1",""
"","do_trial","365","2027950","0.0-340.0-0.0","614.7000000476837","","","","51","0,0,1","6","blank","293","null","0.42112372859070163","0.06674809595751176","0.6533820401327486","1","","","","","",""
"","do_recog","366","2030611","0.0-341.0-0.0","1152.3999999761581","","","","56","","","","294","probe-256","","","","","0","[object Object]","null","null","0",""
"","do_trial","367","2034158","0.0-342.0-0.0","0.10000002384185791","","","","51","1,0,0","6","blank","295","null","0.3887108920412417","0.10027294279375155","0.578565193538101","0","","","","","",""
"","do_recog","368","2037047","0.0-343.0-0.0","1380.8999999761581","","","","56","","","","296","probe-222","","","","","1","[object Object]","47","1","1",""
"","do_trial","369","2041147","0.0-344.0-0.0","553.5","","","","51","1,0,1","6","blank","297","null","0.3735142771738269","0.0975812642020859","0.7152703829856307","1","","","","","",""
"","do_recog","370","2044183","0.0-345.0-0.0","1528.7000000476837","","","","54","","","","298","probe-185","","","","","1","[object Object]","40","1","0",""
"","do_trial","371","2048150","0.0-346.0-0.0","421.1999999284744","","","","51","1,0,1","6","blank","299","null","0.30384998818609993","0.10433690318673822","0.7515294702101892","1","","","","","",""
"","do_recog","372","2050797","0.0-347.0-0.0","1141.7999999523163","","","","54","","","","300","probe-02","","","","","1","[object Object]","163","4","0",""
"","do_trial","373","2054756","0.0-348.0-0.0","411.1999999284744","","","","51","0,0,1","6","blank","301","null","0.22496038871585178","0.057521569440885476","0.9415540941653592","1","","","","","",""
"","do_trial","374","2058779","0.0-349.0-0.0","477.39999997615814","","","","51","1,0,1","6","blank","302","null","0.30655074399891125","0.08259023187399031","0.9398787108138678","1","","","","","",""
"","do_recog","375","2061822","0.0-350.0-0.0","1535.1000000238419","","","","53","","","","303","probe-140","","","","","1","[object Object]","45","1","0",""
"","do_trial","376","2065765","0.0-351.0-0.0","392.7000000476837","","","","51","1,0,1","6","blank","304","null","0.30805961566766144","0.08699881775659435","0.8539311948209405","1","","","","","",""
"","do_trial","377","2069901","0.0-352.0-0.0","586.4000000953674","","","","51","0,0,1","6","blank","305","null","0.30231680693089796","0.058348222796756756","0.7831846288074584","1","","","","","",""
"","do_trial","378","2073833","0.0-353.0-0.0","377.7999999523163","","","","51","1,1,1","6","blank","306","null","0.6066391169156167","0.23073088350631377","0.6462124640947196","1","","","","","",""
"","do_trial","379","2078081","0.0-354.0-0.0","699.1999999284744","","","","51","0,1,1","6","blank","307","null","0.5881417681274708","0.1832870821454432","0.5629455504879295","1","","","","","",""
"","do_trial","380","2082042","0.0-355.0-0.0","413.60000002384186","","","","51","1,0,1","6","blank","308","null","0.7749303346184815","0.14180066549990308","0.5468054161515664","1","","","","","",""
"","do_trial","381","2085963","0.0-356.0-0.0","375.5","","","","51","0,0,0","6","blank","309","null","0.7668021504216576","0.10311558441043095","0.4912486384945069","0","","","","","",""
"","do_trial","382","2089909","0.0-357.0-0.0","396.39999997615814","","","","51","1,0,0","6","blank","310","null","0.9031444525175057","0.08433357273722525","0.5703605361585458","0","","","","","",""
"","do_recog","383","2093073","0.0-358.0-0.0","1656.3000000715256","","","","54","","","","311","probe-60","","","","","1","[object Object]","203","5","0",""
"","do_trial","384","2097104","0.0-359.0-0.0","481.2999999523163","","","","51","1,0,0","6","blank","312","null","0.923435259791919","0.07188843994350262","0.4447882867193376","0","","","","","",""
"","do_trial","385","2100666","0.0-360.0-0.0","16.799999952316284","","","","51","1,0,0","6","blank","313","null","0.9472312167642088","0.09513006144336501","0.3631647329043836","0","","","","","",""
"","do_trial","386","2104585","0.0-361.0-0.0","366.10000002384186","","","","51","1,0,1","6","blank","314","null","0.9072970155766491","0.07326699670953936","0.3557152942601185","1","","","","","",""
"","do_recog","387","2107101","0.0-362.0-0.0","1008.1000000238419","","","","56","","","","315","probe-180","","","","","1","[object Object]","42","1","1",""
"","do_trial","388","2111010","0.0-363.0-0.0","366","","","","51","0,0,0","6","blank","316","null","0.8561701155405609","0.07655052323631961","0.324082255209903","0","","","","","",""
"","do_recog","389","2114024","0.0-364.0-0.0","1508.2000000476837","","","","55","","","","317","probe-240","","","","","1","[object Object]","43","1","1",""
"","do_trial","390","2117939","0.0-365.0-0.0","368.2999999523163","","","","49","0,0,0","6","blank","318","null","0.7641261532776167","0.17183237167703028","0.2518916943993554","0","","","","","",""
"","do_trial","391","2122133","0.0-366.0-0.0","647.1999999284744","","","","50","1,0,0","6","blank","319","null","0.7793962476049228","0.16975718496866316","0.3137220124806671","0","","","","","",""
"","do_trial","392","2126083","0.0-367.0-0.0","402.09999990463257","","","","49","1,0,1","6","blank","320","null","0.7398020145054973","0.0930412080655913","0.2883742053286157","1","","","","","",""
"","do_trial","393","2130120","0.0-368.0-0.0","490","","","","49","1,0,1","6","blank","321","null","0.6517364304209866","0.1713236639460254","0.16988396231635894","1","","","","","",""
"","do_trial","394","2134024","0.0-369.0-0.0","352.1999999284744","","","","49","1,1,0","6","blank","322","null","0.6635345463762061","0.2879215521617669","0.1664661963250827","1","","","","","",""
"","do_recog","395","2136782","0.0-370.0-0.0","1249.9000000953674","","","","56","","","","323","probe-196","","","","","1","[object Object]","86","2","1",""
"","do_trial","396","2140728","0.0-371.0-0.0","397.89999997615814","","","","49","1,0,0","6","blank","324","null","0.7920240307022004","0.18957468726121615","0.41354522793630444","1","","","","","",""
"","do_trial","397","2144691","0.0-372.0-0.0","414.3000000715256","","","","49","1,0,1","6","blank","325","null","0.7668819780921681","0.13721616473735304","0.49180006325570574","1","","","","","",""
"","do_recog","398","2147099","0.0-373.0-0.0","897.1000000238419","","","","56","","","","326","probe-244","","","","","0","[object Object]","null","null","0",""
"","do_trial","399","2150951","0.0-374.0-0.0","304.39999997615814","","","","49","0,0,0","6","blank","327","null","0.7587387554852285","0.1460845954356139","0.44168679030535696","0","","","","","",""
"","do_trial","400","2154819","0.0-375.0-0.0","322.7000000476837","","","","51","1,0,1","6","blank","328","null","0.8231411265086894","0.18161740945590496","0.4768829593140083","1","","","","","",""
"","do_recog","401","2158979","0.0-376.0-0.0","2653","","","","54","","","","329","probe-215","","","","","1","[object Object]","166","4","0",""
"","do_trial","402","2163031","0.0-377.0-0.0","504.60000002384186","","","","49","1,1,0","6","blank","330","null","1","0.12004997834543625","0.46913989388922533","1","","","","","",""
"","do_trial","403","2166896","0.0-378.0-0.0","318.2000000476837","","","","51","1,0,0","6","blank","331","null","0.9254303576326356","0.11661592537535906","0.5200403415768411","0","","","","","",""
"","do_trial","404","2170702","0.0-379.0-0.0","260.2999999523163","","","","49","1,0,1","6","blank","332","null","0.9085247711314247","0.14118471695215812","0.5348746929284699","1","","","","","",""
"","do_recog","405","2173599","0.0-380.0-0.0","1390.6000000238419","","","","56","","","","333","probe-248","","","","","0","[object Object]","null","null","0",""
"","do_trial","406","2177483","0.0-381.0-0.0","340.6999999284744","","","","49","1,0,1","6","blank","334","null","0.936526967076954","0.0678769227816967","0.4397236059360396","1","","","","","",""
"","do_recog","407","2180541","0.0-382.0-0.0","1552.6999999284744","","","","55","","","","335","probe-69","","","","","1","[object Object]","161","4","1",""
"","do_trial","408","2184634","0.0-383.0-0.0","549.1999999284744","","","","51","1,0,0","6","blank","336","null","0.9069124910125234","0.12523503282793982","0.35908016446996593","0","","","","","",""
"","do_recog","409","2187391","0.0-384.0-0.0","1249.1999999284744","","","","56","","","","337","probe-116","","","","","1","[object Object]","202","5","1",""
"","do_trial","410","2191461","0.0-385.0-0.0","523.1000000238419","","","","49","1,0,0","6","blank","338","null","0.8727983401054351","0.056255373219809036","0.45299904744571284","1","","","","","",""
"","do_recog","411","2194582","0.0-386.0-0.0","1613.6000000238419","","","","55","","","","339","probe-129","","","","","1","[object Object]","169","4","1",""
"","do_trial","412","2198502","0.0-387.0-0.0","377.10000002384186","","","","49","1,0,1","6","blank","340","null","0.9207272912168079","0.12677869320012367","0.5125695294912374","1","","","","","",""
"","do_recog","413","2200836","0.0-388.0-0.0","823.7000000476837","","","","55","","","","341","probe-173","","","","","1","[object Object]","125","3","1",""
"","do_trial","414","2204669","0.0-389.0-0.0","286.3000000715256","","","","51","1,0,0","6","blank","342","null","0.8721371731193864","0.1060450175396875","0.45583696216630876","0","","","","","",""
"","do_trial","415","2208593","0.0-390.0-0.0","373.39999997615814","","","","49","0,0,0","6","blank","343","null","0.8878646558648707","0.12911820660092838","0.38872368722280365","0","","","","","",""
"","do_recog","416","2211120","0.0-391.0-0.0","1019.8999999761581","","","","55","","","","344","probe-77","","","","","1","[object Object]","162","4","1",""
"","do_trial","417","2215004","0.0-392.0-0.0","336.5","","","","50","1,0,0","6","blank","345","null","0.7925481912785449","0.06831465466423339","0.46511263853393564","0","","","","","",""
"","do_recog","418","2217464","0.0-393.0-0.0","949.1999999284744","","","","56","","","","346","probe-227","","","","","1","[object Object]","46","1","1",""
"","do_trial","419","2221304","0.0-394.0-0.0","295.60000002384186","","","","51","0,0,0","6","blank","347","null","0.5895035796641802","0.2983720374079712","0.5881035545645366","0","","","","","",""
"","do_recog","420","2224098","0.0-395.0-0.0","1287.5","","","","56","","","","348","probe-41","","","","","1","[object Object]","128","3","1",""
"","do_trial","421","2227699","0.0-396.0-0.0","56.300000071525574","","","","51","0,0,1","6","blank","349","null","0.35740735353375913","0.3543486899123521","0.595627290587929","1","","","","","",""
"","do_trial","422","2231929","0.0-397.0-0.0","684.6999999284744","","","","51","1,0,0","6","blank","350","null","0.23890512858156832","0.5120790177179703","0.6329972959282677","0","","","","","",""
"","do_recog","423","2234484","0.0-398.0-0.0","1044","","","","56","","","","351","probe-168","","","","","1","[object Object]","89","2","1",""
"","do_trial","424","2238327","0.0-399.0-0.0","293.5","","","","51","0,0,1","6","blank","352","null","0.12533500064129857","0.675845846540945","0.7166093719081991","1","","","","","",""
"","do_trial","425","2242398","0.0-400.0-0.0","519.6000000238419","","","","51","0,1,0","6","blank","353","null","0.05780732977062187","0.7993742720397278","0.4870766180503967","0","","","","","",""
"","do_trial","426","2246433","0.0-401.0-0.0","489.89999997615814","","","","49","0,1,0","6","blank","354","null","0.09608925535486938","0.7507946260976526","0.4973434951563192","0","","","","","",""
"","do_trial","427","2250366","0.0-402.0-0.0","386","","","","51","1,1,0","6","blank","355","null","0.058565888000377556","0.8692140616012738","0.538259305463184","0","","","","","",""
"","do_recog","428","2252946","0.0-403.0-0.0","1071.3999999761581","","","","56","","","","356","probe-58","","","","","1","[object Object]","49","1","1",""
"","do_trial","429","2258117","0.0-404.0-0.0","1625.1999999284744","","","","50","0,1,0","6","blank","357","null","0.05482661380399991","0.9169750037044904","0.5521928826675605","1","","","","","",""
"","do_recog","430","2260304","0.0-405.0-0.0","682.6000000238419","","","","56","","","","358","probe-111","","","","","1","[object Object]","209","5","1",""
"","do_trial","431","2264122","0.0-406.0-0.0","269.39999997615814","","","","50","0,0,0","6","blank","359","null","0.0656087004007463","0.6866771602082552","0.5101876451794324","0","","","","","",""
"","do_trial","432","2268031","0.0-407.0-0.0","358.2000000476837","","","","51","0,1,1","6","blank","360","null","0.0683193973050395","0.8045879504964311","0.5898997348706542","1","","","","","",""
"","do_trial","433","2272355","0.0-408.0-0.0","774.8999999761581","","","","51","0,1,1","6","blank","361","null","0.13755000277454263","0.7982453207771798","0.6515365403890219","1","","","","","",""
"","do_trial","434","2276851","0.0-409.0-0.0","948.3000000715256","","","","51","0,1,1","6","blank","362","null","0.10730285651513789","0.8181673294364882","0.6704872613075328","1","","","","","",""
"","do_trial","435","2280908","0.0-410.0-0.0","509.39999997615814","","","","51","0,0,0","6","blank","363","null","0.20699616314103647","0.7484492415100883","0.4677740958058466","0","","","","","",""
"","do_recog","436","2283369","0.0-411.0-0.0","954.3000000715256","","","","56","","","","364","probe-11","","","","","1","[object Object]","201","5","1",""
"","do_trial","437","2287255","0.0-412.0-0.0","341","","","","51","0,0,1","6","blank","365","null","0.32681913910335897","0.8155581078090441","0.47993809237922125","1","","","","","",""
"","do_trial","438","2291130","0.0-413.0-0.0","328.3000000715256","","","","51","0,1,0","6","blank","366","null","0.21860364763467638","0.7652363765939478","0.38701504754418625","0","","","","","",""
"","do_trial","439","2295058","0.0-414.0-0.0","381.39999997615814","","","","51","0,1,1","6","blank","367","null","0.2614191265490527","0.8447574661638608","0.40585751033408557","1","","","","","",""
"","do_recog","440","2297249","0.0-415.0-0.0","684.4000000953674","","","","56","","","","368","probe-144","","","","","1","[object Object]","48","1","1",""
"","do_trial","441","2303305","0.0-416.0-0.0","2507.600000023842","","","","50","0,1,0","6","blank","369","null","0.13674980724568972","0.9420719325578243","0.3603015827125571","1","","","","","",""
"","do_trial","442","2307672","0.0-417.0-0.0","821.2000000476837","","","","51","0,1,1","6","blank","370","null","0.19577500515671914","0.9427569243610454","0.42114977288823896","1","","","","","",""
"","do_recog","443","2310264","0.0-418.0-0.0","1083.4000000953674","","","","56","","","","371","probe-91","","","","","1","[object Object]","85","2","1",""
"","do_trial","444","2315872","0.0-419.0-0.0","2059","","","","51","1,1,0","6","blank","372","null","0.19785798069372873","0.8816043274676483","0.43357954787642955","0","","","","","",""
"","do_recog","445","2318162","0.0-420.0-0.0","783","","","","56","","","","373","probe-51","","","","","1","[object Object]","82","2","1",""
"","do_trial","446","2323572","0.0-421.0-0.0","1862.6000000238419","","","","51","0,0,1","6","blank","374","null","0.15286579133721437","0.7879372593182347","0.430025073697931","1","","","","","",""
"","do_recog","447","2327545","0.0-422.0-0.0","2463.8000000715256","","","","56","","","","375","probe-101","","","","","1","[object Object]","83","2","1",""
"","do_trial","448","2333364","0.0-423.0-0.0","2270.5999999046326","","","","50","0,1,0","6","blank","376","null","0.08380747922637447","1","0.39045217837757235","1","","","","","",""
"","do_trial","449","2337871","0.0-424.0-0.0","960.2999999523163","","","","49","0,1,1","6","blank","377","null","0.078082015282253","0.8698704285955037","0.3197220401937335","0","","","","","",""
"","do_trial","450","2343031","0.0-425.0-0.0","1607.2000000476837","","","","51","1,1,0","6","blank","378","null","0.08192878296846395","0.9188596671217384","0.4051454713772323","0","","","","","",""
"","do_recog","451","2347223","0.0-426.0-0.0","2682.100000023842","","","","54","","","","379","probe-241","","","","","0","[object Object]","null","null","1",""
"","do_trial","452","2352741","0.0-427.0-0.0","1970.7000000476837","","","","49","0,1,0","6","blank","380","null","0.09888275423704462","0.899911735894994","0.4597325305686517","0","","","","","",""
"","do_recog","453","2355398","0.0-428.0-0.0","1149.2000000476837","","","","56","","","","381","probe-110","","","","","1","[object Object]","208","5","1",""
"","do_trial","454","2360539","0.0-429.0-0.0","1593.8999999761581","","","","50","0,1,0","6","blank","382","null","0.131211858206142","0.8322154810546986","0.3960467980097751","1","","","","","",""
"","do_recog","455","2363546","0.0-430.0-0.0","1496.8000000715256","","","","54","","","","383","probe-84","","","","","1","[object Object]","164","4","0",""
"","do_trial","456","2368446","0.0-431.0-0.0","1355.5","","","","51","0,1,1","6","blank","384","null","0.16595849370369473","0.7111203241109871","0.42027578844015834","1","","","","","",""
"","do_recog","457","2371848","0.0-432.0-0.0","1892.2000000476837","","","","56","","","","385","probe-130","","","","","1","[object Object]","200","5","1",""
"","do_trial","458","2377258","0.0-433.0-0.0","1863.2999999523163","","","","50","0,0,0","6","blank","386","null","0.11575509543673887","0.6877429562039865","0.2644364325136847","0","","","","","",""
"","do_trial","459","2381188","0.0-434.0-0.0","385.3000000715256","","","","51","0,1,0","6","blank","387","null","0.14282049186323392","0.8392545248585291","0.2917346638662392","0","","","","","",""
"","do_trial","460","2386726","0.0-435.0-0.0","1992.0999999046326","","","","51","0,1,0","6","blank","388","null","0.14744663205865047","0.8299795273930266","0.3608035614490543","0","","","","","",""
"","do_recog","461","2390560","0.0-436.0-0.0","2329.0999999046326","","","","56","","","","389","probe-100","","","","","1","[object Object]","88","2","1",""
"","do_trial","462","2395772","0.0-437.0-0.0","1664.7000000476837","","","","51","0,1,0","6","blank","390","null","0.23263901308861448","0.9033564892984101","0.5342431117872296","0","","","","","",""
"","do_trial","463","2400158","0.0-438.0-0.0","838.8999999761581","","","","51","1,1,1","6","blank","391","null","0.4099668863819136","0.8147753601813856","0.4405381068057326","1","","","","","",""
"","do_trial","464","2405331","0.0-439.0-0.0","1626","","","","49","1,0,0","6","blank","392","null","0.4068226560148812","0.48956912756799087","0.17358184323815565","1","","","","","",""
"","do_trial","465","2409821","0.0-440.0-0.0","942.2999999523163","","","","50","0,1,0","6","blank","393","null","0.619760871762236","0.4996751324932883","0.07949290516156474","1","","","","","",""
"","do_recog","466","2413231","0.0-441.0-0.0","1902.6999999284744","","","","56","","","","394","probe-145","","","","","1","[object Object]","204","5","1",""
"","do_trial","467","2419275","0.0-442.0-0.0","null","","","","null","1,1,0","6","blank","395","null","0.6904932235869609","0.46382355123640784","0.06904009129045269","","","","","","",""
"","do_trial","468","2423238","0.0-443.0-0.0","412.7999999523163","","","","50","1,0,0","6","blank","396","null","0.7669087180551051","0.34743742072764716","0.1557496240393863","0","","","","","",""
"","do_trial","469","2427122","0.0-444.0-0.0","336","","","","49","1,1,0","6","blank","397","null","0.6415408537477104","0.4201859683496242","0.19736185087664987","1","","","","","",""
"","do_trial","470","2431111","0.0-445.0-0.0","443.7000000476837","","","","50","1,0,1","6","blank","398","null","0.7644676581925736","0.45358712187327566","0.17113739736717276","0","","","","","",""
"","do_trial","471","2434823","0.0-446.0-0.0","168.39999997615814","","","","51","1,0,0","6","blank","399","null","0.7679469348964898","0.4564438607860587","0.12826928426245368","0","","","","","",""
"","do_trial","472","2438691","0.0-447.0-0.0","316.10000002384186","","","","49","1,1,0","6","blank","400","null","0.7837099887443946","0.39367274258757257","0.1130059111100756","1","","","","","",""
"","do_recog","473","2441926","0.0-448.0-0.0","1728.2999999523163","","","","56","","","","401","probe-94","","","","","1","[object Object]","120","3","1",""
"","do_trial","474","2448093","0.0-449.0-0.0","2621","","","","50","1,0,1","6","blank","402","null","0.7839200107237814","0.44644247337430754","0.08736648931579312","0","","","","","",""
"","do_recog","475","2452723","0.0-450.0-0.0","3124.899999976158","","","","56","","","","403","probe-137","","","","","1","[object Object]","206","5","1",""
"","do_trial","476","2456975","0.0-451.0-0.0","705.3999999761581","","","","50","1,1,0","6","blank","404","null","0.9378413991638023","0.3604404117468693","0.09765271851702784","1","","","","","",""
"","do_recog","477","2460288","0.0-452.0-0.0","1806.5","","","","53","","","","405","probe-250","","","","","0","[object Object]","null","null","1",""
"","do_trial","478","2464176","0.0-453.0-0.0","343.1999999284744","","","","49","1,0,0","6","blank","406","null","0.89049105160045","0.35610827210901397","0.10427421971303438","1","","","","","",""
"","do_trial","479","2468240","0.0-454.0-0.0","519.7999999523163","","","","49","1,0,0","6","blank","407","null","0.896536920570751","0.32053387909830805","0.1352060778628989","1","","","","","",""
"","do_trial","480","2472791","0.0-455.0-0.0","1002.3999999761581","","","","50","0,1,0","6","blank","408","null","0.7430073544097008","0.45956672068718407","0.06749403997602531","1","","","","","",""
