"success","trial_type","trial_index","time_elapsed","internal_node_id","rt","stimulus","key_press","subject_id","response","choice_outcomes","context_n","context_img_id","trial_n","probe_img_id","pR_red","pR_white","pR_black","outcome","is_valid","image_to_show","probed_trial","probed_context","correct","context_id"
"true","fullscreen","0","10975","0.0-0.0","","","","","","","","","","","","","","","","","","","",""
"","pavlovia","1","10991","0.0-1.0","","","","","","","","","","","","","","","","","","","",""
"","html-keyboard-response","2","30621","0.0-2.0","19626.40000000596","<div class='center'><p>Welcome! This experiment will last ~1 hour. In this experiment, you are the head captain of a pirate ship traveling around the world to different places. You will complete several different tasks during this experiment. Here is an overview of these tasks:</p><br><p>1. Tutorial and quiz</p><p>2. Pick a pirate game in 6 different places</p><p>3. Pick a pirate game and memory game</p><p>4. Final questions and payment</p><br><p>If you complete the entire experiment, you will receive $15 and a possible bonus payment.</p><p><b>[Press the space bar to begin the tutorial]</b></p></div>","32","610000c1d6369f46f00b495c","","","","","","","","","","","","","","","",""
"","html-keyboard-response","3","52358","0.0-3.0","21733.30000001192","<div class='center'><p>You are the head captain of a pirate ship.</p><p> Your pirates rob other ships as they leave the marketplace port.</p> These ships have just sold all their goods at the marketplace, so they have lots and lots of gold on them.</p><p><img src='run_exp/static/images/ship_center.png' height='400'></p><p><b>[Press the space bar to continue]</b></p></div>","32","","","","","","","","","","","","","","","","",""
"","html-keyboard-response","4","65467","0.0-4.0","13105.199999988079","<div class='center'><p>As the head captain, you do not have to rob any ships yourself.</p><p>You get to choose which pirate you want to rob the next ship. </p><p>If they are successful at robbing the ship, then you will get gold coins.</p><p> If they are not successful, then you will get no gold coins.</p><p> The more coins you collect, the more bonus money you will win. So, choose your pirate wisely.</p><p><img src='run_exp/static/images/goal.png' height='400'></p><p><b>[Press the space bar to continue]</b></p><div>","32","","","","","","","","","","","","","","","","",""
"","html-keyboard-response","5","78258","0.0-5.0","12786.699999988079","<div class='center'><p>Even the most skilled pirate will not be able to rob EVERY ship.</p><p> Some ships will have very strong defenses against attacks.</p><p> For example, blue beard, here,  is very good at robbing ships.</p><p> You can press the <b>‘1’</b> button on the keyboard to choose him.</p><p> Try choosing him 10 times to see how often he is successful at robbing ships. </p><p><img src='run_exp/static/images/blue.png' height='500'></p></div>","49","","","","","","","","","","","","","","","","",""
"","html-keyboard-response","6","79762","0.0-6.0","null","<br><br><br><br><p><img src='run_exp/static/images/blue_win.png' height='500'></p>","null","","","","","","","","","","","","","","","","",""
"","html-keyboard-response","7","80632","0.0-7.0","866.8000000119209","<br><br><br><br><p><img src='run_exp/static/images/blue.png' height='500'></p>","49","","","","","","","","","","","","","","","","",""
"","html-keyboard-response","8","82137","0.0-8.0","null","<br><br><br><br><p><img src='run_exp/static/images/blue_win.png' height='500'></p>","null","","","","","","","","","","","","","","","","",""
"","html-keyboard-response","9","82631","0.0-9.0","488","<br><br><br><br><p><img src='run_exp/static/images/blue.png' height='500'></p>","49","","","","","","","","","","","","","","","","",""
"","html-keyboard-response","10","84137","0.0-10.0","null","<br><br><br><br><p><img src='run_exp/static/images/blue_win.png' height='500'></p>","null","","","","","","","","","","","","","","","","",""
"","html-keyboard-response","11","84572","0.0-11.0","428.69999998807907","<br><br><br><br><p><img src='run_exp/static/images/blue.png' height='500'></p>","49","","","","","","","","","","","","","","","","",""
"","html-keyboard-response","12","86078","0.0-12.0","null","<br><br><br><br><p><img src='run_exp/static/images/blue_no_win.png' height='500'></p>","null","","","","","","","","","","","","","","","","",""
"","html-keyboard-response","13","86737","0.0-13.0","654.8999999761581","<br><br><br><br><p><img src='run_exp/static/images/blue.png' height='500'></p>","49","","","","","","","","","","","","","","","","",""
"","html-keyboard-response","14","88243","0.0-14.0","null","<br><br><br><br><p><img src='run_exp/static/images/blue_win.png' height='500'></p>","null","","","","","","","","","","","","","","","","",""
"","html-keyboard-response","15","89013","0.0-15.0","760.3000000119209","<br><br><br><br><p><img src='run_exp/static/images/blue.png' height='500'></p>","49","","","","","","","","","","","","","","","","",""
"","html-keyboard-response","16","90516","0.0-16.0","null","<br><br><br><br><p><img src='run_exp/static/images/blue_win.png' height='500'></p>","null","","","","","","","","","","","","","","","","",""
"","html-keyboard-response","17","91490","0.0-17.0","968.5999999940395","<br><br><br><br><p><img src='run_exp/static/images/blue.png' height='500'></p>","49","","","","","","","","","","","","","","","","",""
"","html-keyboard-response","18","92994","0.0-18.0","null","<br><br><br><br><p><img src='run_exp/static/images/blue_win.png' height='500'></p>","null","","","","","","","","","","","","","","","","",""
"","html-keyboard-response","19","93404","0.0-19.0","406.7000000178814","<br><br><br><br><p><img src='run_exp/static/images/blue.png' height='500'></p>","49","","","","","","","","","","","","","","","","",""
"","html-keyboard-response","20","94908","0.0-20.0","null","<br><br><br><br><p><img src='run_exp/static/images/blue_no_win.png' height='500'></p>","null","","","","","","","","","","","","","","","","",""
"","html-keyboard-response","21","95418","0.0-21.0","504.30000001192093","<br><br><br><br><p><img src='run_exp/static/images/blue.png' height='500'></p>","49","","","","","","","","","","","","","","","","",""
"","html-keyboard-response","22","96923","0.0-22.0","null","<br><br><br><br><p><img src='run_exp/static/images/blue_win.png' height='500'></p>","null","","","","","","","","","","","","","","","","",""
"","html-keyboard-response","23","97279","0.0-23.0","352.7999999821186","<br><br><br><br><p><img src='run_exp/static/images/blue.png' height='500'></p>","49","","","","","","","","","","","","","","","","",""
"","html-keyboard-response","24","98783","0.0-24.0","null","<br><br><br><br><p><img src='run_exp/static/images/blue_win.png' height='500'></p>","null","","","","","","","","","","","","","","","","",""
"","html-keyboard-response","25","101853","0.0-25.0","3066.5","<div class='center'><p> See, he was successful at robbing the ships most of the time but not every time. </p><p><b>[Press the space bar to continue]</b></p></div>","32","","","","","","","","","","","","","","","","",""
"","html-keyboard-response","26","110904","0.0-26.0","9047.200000017881","<div class='center'><p>In the game, you will get to choose which of three pirates you want to rob the next ship. <p>Press the <b>‘1’</b> button on your keyboard to pick the pirate with the red beard.</p><p> Press <b>‘2’</b> to pick the pirate with the white beard.</p><p> Press <b>‘3’</b> to pick the pirate with the black beard.</p><p>Try picking a pirate now!</p><p><img src='run_exp/static/images/all_pirates.png' height='500'></p></div>","50","","","","","","","","","","","","","","","","",""
"","html-keyboard-response","27","112881","0.0-27.0-0.0","1970.6000000238419","<div class='center'><p>This pirate was successful at robbing the ship!</p><p><img src='run_exp/static/images/white_win.png' height='500'></p><p><b>[Press the space bar to continue]</b></p></div>","32","","","","","","","","","","","","","","","","",""
"","html-keyboard-response","28","114984","0.0-27.0-1.0","2099.5","<div class='center'><p>Now try choosing another</p><p><img src='run_exp/static/images/all_pirates.png' height='500'></p></div>","50","","","","","","","","","","","","","","","","",""
"","html-keyboard-response","29","118141","0.0-28.0-0.0","3154","<div class='center'><p>This pirate was not successful at robbing the ship!</p><p><img src='run_exp/static/images/white_no_win.png' height='500'></p><p><b>[Press the space bar to continue]</b></p></div>","32","","","","","","","","","","","","","","","","",""
"","html-keyboard-response","30","121842","0.0-29.0-0.0","3698.5","<div class='center'><p>You’ll stop at these 6 places on your journey.</p><p><img src='run_exp/static/images/all_contexts.png' height='500'></p><p><b>[Press the space bar to continue]</b></p></div>","32","","","","","","","","","","","","","","","","",""
"","html-keyboard-response","31","131985","0.0-29.0-1.0","10140.09999999404","<div class='center'><p>How good a pirate is at robbing ships will depend on the current place.</p><p> Some pirates will have been to the place before, and will have more experience robbing ships there.</p><p>So, they will be more successful at stealing gold and bringing it back to you.</p><p><b>[Press the space bar to continue]</b></p></div>","32","","","","","","","","","","","","","","","","",""
"","html-keyboard-response","32","145731","0.0-29.0-2.0","13743.59999999404","<div class='center'><p>How successful a pirate is at robbing ships can also change in a place.<p> Ships may hear about the pirates coming and will improve their defenses. This may make it more difficult to rob them.</p><p> Ships may also grow lazy and lower their defenses. This may make it easier to rob them.</p><br><p>Things are always changing on the high seas! So, try your best to pay attention!</p><p><img src='run_exp/static/images/contingency.png' height='500'></p><p><b>[Press the space bar to continue]</b></p></div>","32","","","","","","","","","","","","","","","","",""
"","html-keyboard-response","33","187182","0.0-29.0-3.0","41445.89999997616","<div class='center'><p>Once you choose a pirate to rob a ship, you’ll be shown the ship they are robbing.</p><p>The ship will have a picture of the item they sold at the marketplace.</p><p> Try your best to remember the ship and where you saw the ship.</p><p> You’ll have to remember this for later, and remembering this correctly will help you win more bonus money!</p><p>You can remember the ship by remembering the item they sold at the marketplace</p><p>A helpful strategy is to try to come up with a story of the chosen pirate and ship’s item interacting with the scene.</p><p> For example, a ship might have sold travel mugs and you could imagine red beard walking through the city with a travel mug. </p><p>Or imagine an apple falling from a tree into white beard's hands in the forest.</p><p><img src='run_exp/static/images/example_probe.png' height='500'></p><p><b>[Press the space bar to continue]</b></p></div>","32","","","","","","","","","","","","","","","","",""
"","html-keyboard-response","34","196556","0.0-29.0-4.0","9371.200000017881","<div class='center'><p>If you don’t make your choice fast enough, you’ll have to wait a few seconds before you can make another one. </p><p>You can’t win more gold. You just have to sit and wait.</p><p><img src='run_exp/static/images/hurry_up.png' height='500'></p><p><b>[Press the space bar to continue]</b></p></div>","32","","","","","","","","","","","","","","","","",""
"","html-keyboard-response","35","237494","0.0-29.0-5.0","40934.79999998212","<div class='center'><p>Again, you have two important things to do: </p><b><p> 1. Pick the pirate who you think will be most successful at robbing the next ship.</p></b><b><p> 2. Remember where a pirate robbed a ship.</p> </b><p>Both are important in determining how much bonus money you’ll win.</p><br><p>Let’s try a practice game. The game will start by showing you the pirates. First pick a pirate using the <b> 1, 2, 3 </b> buttons on your keyboard. When you are shown a ship, try to remember the place you’re in by making up a story.</p><p> You only have 3 seconds to pick a pirate, so please make a choice quickly! If you are too slow, you’ll have to wait a bit during the time out.</p><p> Don’t feel rushed, but please do try to make a choice every time.</p><p>How good a pirate is at robbing a ship will change depending on the place they are in and how good the defenses are of the ship.</p> <p>This is just a practice game, so you’re not playing for money. </p><p>You’ll receive a bag which may or may not contain gold coins.</p><p> In the real game, though, you’ll be able to see whether or not you received the gold coins.</p><p> Good luck, remember press <b>'1'</b> to choose red beard, <b>'2'</b> to choose white beard, and <b>'3'</b> to choose black beard</p><p><b>[Press the space bar to begin the practice game]</b></p></div>","32","","","","","","","","","","","","","","","","",""
"","do_trial_prac","36","242897","0.0-29.0-6.0","880","","","","50","","","","","","","","","","","","","","",""
"","do_trial_prac","37","248907","0.0-29.0-7.0","null","","","","null","","","","","","","","","","","","","","",""
"","do_trial_prac","38","253953","0.0-29.0-8.0","532.2999999821186","","","","51","","","","","","","","","","","","","","",""
"","do_trial_prac","39","260253","0.0-29.0-9.0","1790.0999999940395","","","","49","","","","","","","","","","","","","","",""
"","do_trial_prac","40","265913","0.0-29.0-10.0","1142.5","","","","50","","","","","","","","","","","","","","",""
"","html-keyboard-response","41","273006","0.0-29.0-11.0","7087.699999988079","<div class='center'><p>Great job on the practice game!</p><p> Now, you will be asked you some true or false questions to make sure you really understand the rules of the game.</p><p> Press <b>'1'</b> on the keyboard for true and press <b>'2'</b> for false.</p><p><b>[Press the space bar to begin the quiz]</b></p></div>","32","","","","","","","","","","","","","","","","",""
"","html-keyboard-response","42","283136","0.0-29.0-12.0","10126.09999999404","<div class='center'><p>You win bonus money by making choices as fast as possible.</p><p>Press 1 for true and press  2 for false.</p></div>","50","","","","","","","","","","","","","","","","",""
"","html-keyboard-response","43","284440","0.0-30.0-0.0","1300.800000011921","<br><br><br><br><p>That's correct!</p> <p><b>[press the space bar to continue with the quiz]</b></p>","32","","","","","","","","","","","","","","","","",""
"","html-keyboard-response","44","289056","0.0-30.0-1.0","4613.399999976158","<div class='center'><p>You press the <b>‘3’</b> button on the keyboard to choose the red bearded pirate? </p><p>Press 1 for true and press  2 for false.</p></div>","50","","","","","","","","","","","","","","","","",""
"","html-keyboard-response","45","290014","0.0-31.0-0.0","954.8000000119209","<br><br><br><br><p>That's correct!</p> <p><b>[press the space bar to continue with the quiz]</b></p>","32","","","","","","","","","","","","","","","","",""
"","html-keyboard-response","46","293820","0.0-31.0-1.0","3802.0999999940395","<div class='center'><p>A pirate will always be equally successful at robbing ships in each place</p><p>Press 1 for true and press  2 for false.</p></div>","50","","","","","","","","","","","","","","","","",""
"","html-keyboard-response","47","294822","0.0-32.0-0.0","996.4000000059605","<br><br><br><br><p>That's correct!</p> <p><b>[press the space bar to continue with the quiz]</b></p>","32","","","","","","","","","","","","","","","","",""
"","html-keyboard-response","48","296586","0.0-32.0-1.0","1758.699999988079","<div class='center'><p>You should remember the place where a pirate robbed a ship.</p><p>Press 1 for true and press  2 for false.</p></div>","49","","","","","","","","","","","","","","","","",""
"","html-keyboard-response","49","297552","0.0-33.0-0.0","925.5999999940395","<br><br><br><br><p>That's correct!</p> <p><b>[press the space bar to continue with the quiz]</b></p>","32","","","","","","","","","","","","","","","","",""
"","html-keyboard-response","50","299017","0.0-34.0-0.0","1463.4000000059605","<br><br><br><br><p>Good job! You’re now ready to move on to the real game!</p> <p><br>[press the space bar to begin!]</br></p>","32","","","","","","","","","","","","","","","","",""
"","do_welcome","51","300525","0.0-35.0-0.0","null","","","","null","","","","","","","","","","","","","","",""
"","do_trial","52","306703","0.0-36.0-0.0","null","","","","null","1,0,0","0","mountain","0","probe-76","1","0.4","0.1","","","","","","",""
"","do_trial","53","312741","0.0-37.0-0.0","431.09999999403954","","","","51","1,0,1","0","mountain","1","probe-148","1","0.4912325549852418","0.19069604534819717","1","","","","","",""
"","do_trial","54","319465","0.0-38.0-0.0","1116.300000011921","","","","49","1,1,0","0","mountain","2","probe-99","1","0.6909209186509547","0.1607588344862746","1","","","","","",""
"","do_trial","55","325774","0.0-39.0-0.0","697.4000000059605","","","","50","1,1,0","0","mountain","3","probe-20","1","0.5494362630991895","0.18774012225117478","1","","","","","",""
"","do_trial","56","333836","0.0-40.0-0.0","2442.5999999940395","","","","49","1,0,0","0","mountain","4","probe-222","0.8797053434507283","0.3896498713863349","0.13795595070042693","1","","","","","",""
"","do_trial","57","340228","0.0-41.0-0.0","761.5999999940395","","","","50","1,0,0","0","mountain","5","probe-102","0.8425597389477428","0.39222787886589366","0.08378632771061724","0","","","","","",""
"","do_trial","58","346652","0.0-42.0-0.0","819.2000000178814","","","","51","1,0,0","0","mountain","6","probe-65","0.7546840568673884","0.27102472228609276","0.06099927349333615","0","","","","","",""
"","do_trial","59","353025","0.0-43.0-0.0","754.1999999880791","","","","49","1,0,1","0","mountain","7","probe-188","0.7878595811236011","0.12994119100084955","0.1956638565504341","1","","","","","",""
"","do_trial","60","359197","0.0-44.0-0.0","547","","","","50","1,0,0","0","mountain","8","probe-29","0.6689966633179759","0.35599270761808205","0.05940951312485128","0","","","","","",""
"","do_trial","61","365877","0.0-45.0-0.0","1073.4000000059605","","","","51","1,0,0","0","mountain","9","probe-178","0.7866986194648851","0.24353558606523096","0.13134056767540192","0","","","","","",""
"","do_trial","62","372012","0.0-46.0-0.0","513.0999999940395","","","","49","1,1,0","0","mountain","10","probe-67","0.5689652333110644","0.4560821226181338","0.4174524413248749","1","","","","","",""
"","do_trial","63","378122","0.0-47.0-0.0","498.90000000596046","","","","49","0,0,0","0","mountain","11","probe-168","0.37057165977169426","0.4252540355578568","0.5600021738375347","0","","","","","",""
"","do_trial","64","384238","0.0-48.0-0.0","490.89999997615814","","","","50","0,0,1","0","mountain","12","probe-79","0.05387458365673446","0.37690919621606916","0.6490955174345655","0","","","","","",""
"","do_trial","65","390625","0.0-49.0-0.0","764.8999999761581","","","","51","1,1,0","0","mountain","13","probe-59","0.08396586900384613","0.4112126363924447","0.7843551421809691","0","","","","","",""
"","do_trial","66","396831","0.0-50.0-0.0","600.7999999821186","","","","49","1,0,1","0","mountain","14","probe-136","0.12294314961752958","0.44450060999861296","0.8679582512434153","1","","","","","",""
"","do_trial","67","403368","0.0-51.0-0.0","928","","","","49","0,1,1","0","mountain","15","probe-145","0.1567828207470227","0.48878197334114426","0.7637654207006432","0","","","","","",""
"","do_trial","68","409590","0.0-52.0-0.0","606.6000000238419","","","","49","1,0,1","0","mountain","16","probe-62","0.17728751103978638","0.34456838006511736","0.7064815844196716","1","","","","","",""
"","do_trial","69","415650","0.0-53.0-0.0","447.69999998807907","","","","50","0,1,1","0","mountain","17","probe-01","0.1352430237517388","0.31111590818689033","0.9170952633386417","1","","","","","",""
"","do_trial","70","421792","0.0-54.0-0.0","527.4000000059605","","","","51","1,0,1","0","mountain","18","probe-107","0.17383204242806924","0.29435301071525644","0.9214705144816019","1","","","","","",""
"","do_trial","71","428266","0.0-55.0-0.0","860.5","","","","49","1,1,0","0","mountain","19","probe-134","0.2645173090920247","0.4410298036372066","0.9035062017430205","1","","","","","",""
"","do_trial","72","434618","0.0-56.0-0.0","736.1999999880791","","","","51","0,1,1","0","mountain","20","probe-49","0.18841066555814467","0.5248266659081869","0.8417069464313301","1","","","","","",""
"","do_trial","73","440593","0.0-57.0-0.0","367.90000000596046","","","","50","1,0,0","0","mountain","21","probe-140","0.18886424325611542","0.32795233596018725","0.8951519361213373","0","","","","","",""
"","do_trial","74","446504","0.0-58.0-0.0","295","","","","51","0,0,1","0","mountain","22","probe-22","0.0935955370855895","0.47473321616456887","0.7830919619820165","1","","","","","",""
"","do_trial","75","452621","0.0-59.0-0.0","502.80000001192093","","","","49","1,1,0","0","mountain","23","probe-160","0.2136078382903342","0.39444280241595764","0.7657765735589557","1","","","","","",""
"","do_trial","76","458758","0.0-60.0-0.0","521.1999999880791","","","","50","1,1,1","0","mountain","24","probe-218","0.2056822820401922","0.4220967173325407","0.7237039622513455","1","","","","","",""
"","do_trial","77","464882","0.0-61.0-0.0","506.19999998807907","","","","51","0,0,1","0","mountain","25","probe-128","0.2016316155768935","0.3968765019622923","0.7820970379486342","1","","","","","",""
"","do_trial","78","471257","0.0-62.0-0.0","752.9000000059605","","","","51","0,0,1","0","mountain","26","probe-33","0.06789056480575431","0.4175577834360002","0.7267776706501546","1","","","","","",""
"","do_trial","79","477309","0.0-63.0-0.0","432.30000001192093","","","","49","0,0,1","0","mountain","27","probe-08","0.19664250785474985","0.4827505928545021","0.7948264303940079","0","","","","","",""
"","do_trial","80","483326","0.0-64.0-0.0","406.7999999821186","","","","50","0,1,0","0","mountain","28","probe-149","0.1395557202265879","0.42255048371298176","0.8410728749577524","1","","","","","",""
"","do_trial","81","489607","0.0-65.0-0.0","663.7000000178814","","","","50","1,0,1","0","mountain","29","probe-204","0.18962444017325866","0.4817116272464972","0.8848410084524142","0","","","","","",""
"","do_trial","82","495616","0.0-66.0-0.0","396.2000000178814","","","","49","0,0,1","0","mountain","30","probe-106","0.08537247502283193","0.5447551486606192","0.7721140781539529","0","","","","","",""
"","do_trial","83","501584","0.0-67.0-0.0","352.2999999821186","","","","51","0,0,1","0","mountain","31","probe-217","0.10248657455408962","0.3975595740274776","0.8806896966640758","1","","","","","",""
"","do_trial","84","507967","0.0-68.0-0.0","770.1999999880791","","","","51","0,0,1","0","mountain","32","probe-25","0.08654225925035305","0.45644515705237126","0.8621236331005058","1","","","","","",""
"","do_trial","85","514269","0.0-69.0-0.0","693.2999999821186","","","","49","0,1,0","0","mountain","33","probe-11","0.18583903542259536","0.304228678103239","0.8045356459844648","0","","","","","",""
"","do_trial","86","520296","0.0-70.0-0.0","409.09999999403954","","","","50","0,1,1","0","mountain","34","probe-123","0.08320361439655663","0.3894887896520453","0.7602053640709291","1","","","","","",""
"","do_trial","87","526440","0.0-71.0-0.0","532.6999999880791","","","","51","0,0,1","0","mountain","35","probe-39","0.05527461564083517","0.34156216455530825","0.8118702161555698","1","","","","","",""
"","do_trial","88","532834","0.0-72.0-0.0","778","","","","51","1,0,1","0","mountain","36","probe-127","0.09003311151392979","0.4371399709144897","0.7839753049285634","1","","","","","",""
"","do_trial","89","539157","0.0-73.0-0.0","700","","","","49","0,0,1","0","mountain","37","probe-181","0.08685007965244036","0.32664445822362176","0.6548797475627138","0","","","","","",""
"","do_trial","90","545437","0.0-74.0-0.0","665","","","","50","1,0,0","0","mountain","38","probe-35","0.1875409038612703","0.3862700148901037","0.7649232648620463","0","","","","","",""
"","do_trial","91","551675","0.0-75.0-0.0","618.5999999940395","","","","51","1,0,1","0","mountain","39","probe-171","0.14587784323847328","0.3160081343756527","0.6877843225736018","1","","","","","",""
"","do_bye","92","553194","0.0-76.0-0.0","null","","","","null","","","","","","","","","","","","","","",""
"","do_travel","93","559204","0.0-77.0-0.0","null","","","","null","","","","","","","","","","","","","","",""
"","do_welcome","94","560719","0.0-77.0-1.0","null","","","","null","","","","","","","","","","","","","","",""
"","do_trial","95","566822","0.0-78.0-0.0","null","","","","null","0,0,1","1","highway","40","probe-94","0.1450888409807735","0.3211455057288026","1","","","","","","",""
"","do_trial","96","573513","0.0-79.0-0.0","1083.5","","","","51","0,0,1","1","highway","41","probe-216","0.18916136257945945","0.33795205987597854","1","1","","","","","",""
"","do_trial","97","579593","0.0-80.0-0.0","453.19999998807907","","","","50","0,1,1","1","highway","42","probe-207","0.12541566341138927","0.4049639574165452","1","1","","","","","",""
"","do_trial","98","585720","0.0-81.0-0.0","500.40000000596046","","","","49","0,0,1","1","highway","43","probe-229","0.09695384493635739","0.4442617877643177","1","0","","","","","",""
"","do_trial","99","591907","0.0-82.0-0.0","570.6999999880791","","","","50","0,0,1","1","highway","44","probe-129","0.10710515112412798","0.3776012555098089","0.807600140105161","0","","","","","",""
"","do_trial","100","597863","0.0-83.0-0.0","350.80000001192093","","","","51","0,1,0","1","highway","45","probe-103","0.13840893674476118","0.4770671466896684","0.6342975947888535","0","","","","","",""
"","do_trial","101","603856","0.0-84.0-0.0","379.40000000596046","","","","49","1,0,1","1","highway","46","probe-131","0.22572601065376355","0.3738934487074355","0.6661099413102223","1","","","","","",""
"","do_trial","102","609831","0.0-85.0-0.0","359.5","","","","49","0,0,1","1","highway","47","probe-214","0.22461673602494844","0.2646704760881137","0.6518785721476169","0","","","","","",""
"","do_trial","103","616108","0.0-86.0-0.0","656.9000000059605","","","","51","0,1,1","1","highway","48","probe-36","0.1843834401623432","0.47322615141348956","0.8610218735525981","1","","","","","",""
"","do_trial","104","622250","0.0-87.0-0.0","527.5999999940395","","","","50","0,1,1","1","highway","49","probe-84","0.19204890153442436","0.5484981719486133","0.9316566774032294","1","","","","","",""
"","do_trial","105","628240","0.0-88.0-0.0","379.69999998807907","","","","50","0,0,1","1","highway","50","probe-120","0.29867465386686126","0.6460572975258784","0.773761107815331","0","","","","","",""
"","do_trial","106","634167","0.0-89.0-0.0","317.30000001192093","","","","51","0,0,1","1","highway","51","probe-115","0.1217673011125812","0.6558214288319927","0.5317427743304505","1","","","","","",""
"","do_trial","107","640221","0.0-90.0-0.0","425.09999999403954","","","","49","0,0,1","1","highway","52","probe-92","0.07524112169145808","0.7028414718417075","0.4776270315203967","0","","","","","",""
"","do_trial","108","646440","0.0-91.0-0.0","591.7000000178814","","","","51","0,1,1","1","highway","53","probe-86","0.1138342053826525","0.7488551217977336","0.4266318796917052","1","","","","","",""
"","do_trial","109","652420","0.0-92.0-0.0","361.2000000178814","","","","50","0,0,0","1","highway","54","probe-150","0.10553446540606254","0.5357772603447433","0.2962462404047878","0","","","","","",""
"","do_trial","110","658894","0.0-93.0-0.0","859.5999999940395","","","","51","0,0,0","1","highway","55","probe-66","0.051255836788987985","0.616855472480012","0.2732246100889741","0","","","","","",""
"","do_trial","111","664937","0.0-94.0-0.0","425.7000000178814","","","","49","0,1,0","1","highway","56","probe-40","0.09803090808742175","0.6472329844016612","0.27421554789752506","0","","","","","",""
"","do_trial","112","671047","0.0-95.0-0.0","495.69999998807907","","","","50","0,1,0","1","highway","57","probe-06","0.10566529053947432","0.7421638570157225","0.3470637463080118","1","","","","","",""
"","do_trial","113","677067","0.0-96.0-0.0","399.90000000596046","","","","50","0,0,1","1","highway","58","probe-220","0.06735088445755304","0.7064022064635647","0.27853148105742465","0","","","","","",""
"","do_trial","114","683151","0.0-97.0-0.0","466.30000001192093","","","","51","0,1,1","1","highway","59","probe-38","0.12233555943451958","0.7546030754241296","0.41550913654909166","1","","","","","",""
"","do_trial","115","689223","0.0-98.0-0.0","455.69999998807907","","","","49","0,1,0","1","highway","60","probe-156","0.237610823008069","0.7552451925489517","0.5125394672504473","0","","","","","",""
"","do_trial","116","695421","0.0-99.0-0.0","577.9000000059605","","","","50","0,1,1","1","highway","61","probe-110","0.21034669968634961","0.734784903300433","0.5369740626513926","1","","","","","",""
"","do_trial","117","701316","0.0-100.0-0.0","272.90000000596046","","","","51","0,1,0","1","highway","62","probe-56","0.11699776755169956","0.8009506703414866","0.5281777939057827","0","","","","","",""
"","do_trial","118","707259","0.0-101.0-0.0","329.09999999403954","","","","50","1,1,0","1","highway","63","probe-75","0.18012756276217165","0.7584286791967239","0.4616272385683535","1","","","","","",""
"","do_trial","119","713236","0.0-102.0-0.0","361.2000000178814","","","","49","0,1,1","1","highway","64","probe-180","0.13381256470227645","0.894263259538636","0.5276866173851112","0","","","","","",""
"","do_trial","120","719236","0.0-103.0-0.0","370","","","","50","0,0,1","1","highway","65","probe-147","0.0581344836804227","0.8156092953149375","0.34085060716803606","0","","","","","",""
"","do_trial","121","725310","0.0-104.0-0.0","454.09999999403954","","","","51","0,1,0","1","highway","66","probe-81","0.1184139835477664","0.6863018068821535","0.22336712652165097","0","","","","","",""
"","do_trial","122","731332","0.0-105.0-0.0","405","","","","51","0,0,0","1","highway","67","probe-173","0.1227227605586346","0.7130500834254564","0.09488636422356252","0","","","","","",""
"","do_trial","123","737315","0.0-106.0-0.0","364.7000000178814","","","","50","0,1,0","1","highway","68","probe-116","0.07724289182968073","0.6961910339336106","0.19373709196497974","1","","","","","",""
"","do_trial","124","743344","0.0-107.0-0.0","396.59999999403954","","","","49","1,1,1","1","highway","69","probe-165","0.221961601696085","0.7257886036345447","0.29144355963820945","1","","","","","",""
"","do_trial","125","749671","0.0-108.0-0.0","709.5","","","","50","0,1,0","1","highway","70","probe-109","0.20777673555066326","0.6849165487034872","0.27150082826464045","1","","","","","",""
"","do_trial","126","755891","0.0-109.0-0.0","603","","","","51","0,1,0","1","highway","71","probe-95","0.10497789335393072","0.6632371340052217","0.2682592456650506","0","","","","","",""
"","do_trial","127","761891","0.0-110.0-0.0","392.19999998807907","","","","50","0,1,1","1","highway","72","probe-138","0.11325538910290807","0.7696408151271061","0.49969490469423244","1","","","","","",""
"","do_trial","128","768025","0.0-111.0-0.0","519.0999999940395","","","","49","0,1,0","1","highway","73","probe-60","0.15637434947962942","0.8141232133458908","0.3952087069375181","0","","","","","",""
"","do_trial","129","774022","0.0-112.0-0.0","375.7999999821186","","","","50","0,1,0","1","highway","74","probe-47","0.11139206417098468","0.796736387786024","0.47358699025867196","1","","","","","",""
"","do_trial","130","779914","0.0-113.0-0.0","279.69999998807907","","","","50","1,1,0","1","highway","75","probe-09","0.21153896187941335","0.8275316438327563","0.48600813309128454","1","","","","","",""
"","do_trial","131","785846","0.0-114.0-0.0","315.19999998807907","","","","51","0,1,0","1","highway","76","probe-111","0.05781903308053945","0.9328163164355974","0.47755078878346274","0","","","","","",""
"","do_trial","132","791935","0.0-115.0-0.0","480.5","","","","50","0,1,0","1","highway","77","probe-182","0.06797535314194357","0.8021214186084561","0.429954761369647","1","","","","","",""
"","do_trial","133","798023","0.0-116.0-0.0","477.30000001192093","","","","49","0,1,0","1","highway","78","probe-236","0.05390432245613008","0.8466828679621372","0.44563250331040927","0","","","","","",""
"","do_trial","134","804417","0.0-117.0-0.0","778.5","","","","50","0,0,0","1","highway","79","probe-167","0.06427890944863808","0.6855021903976884","0.38475043066039355","0","","","","","",""
"","do_bye","135","805932","0.0-118.0-0.0","null","","","","null","","","","","","","","","","","","","","",""
"","do_travel","136","811938","0.0-119.0-0.0","null","","","","null","","","","","","","","","","","","","","",""
"","do_welcome","137","813450","0.0-119.0-1.0","null","","","","null","","","","","","","","","","","","","","",""
"","do_trial","138","819574","0.0-120.0-0.0","null","","","","null","0,1,0","2","coast","80","probe-228","0.1736335241162876","1","0.3336721918361759","","","","","","",""
"","do_trial","139","825532","0.0-121.0-0.0","337.5","","","","49","0,1,0","2","coast","81","probe-54","0.17801773676879734","1","0.36314272712499773","0","","","","","",""
"","do_trial","140","831590","0.0-122.0-0.0","429","","","","50","0,1,0","2","coast","82","probe-151","0.24271041427780282","1","0.2819890028467615","1","","","","","",""
"","do_trial","141","837982","0.0-123.0-0.0","783.2000000178814","","","","51","1,1,0","2","coast","83","probe-87","0.21193145942709246","1","0.3331216182461264","0","","","","","",""
"","do_trial","142","844126","0.0-124.0-0.0","527.5999999940395","","","","49","0,1,0","2","coast","84","probe-82","0.07971363147911394","0.8012163153508665","0.3874752696609003","0","","","","","",""
"","do_trial","143","850242","0.0-125.0-0.0","497.69999998807907","","","","50","0,0,0","2","coast","85","probe-186","0.10533275186164541","0.7751793923618486","0.4086413442296834","0","","","","","",""
"","do_trial","144","856348","0.0-126.0-0.0","485.59999999403954","","","","51","0,1,0","2","coast","86","probe-211","0.05736068704031056","0.6966235227145324","0.4274538549434045","0","","","","","",""
"","do_trial","145","862650","0.0-127.0-0.0","670.4000000059605","","","","49","0,0,0","2","coast","87","probe-152","0.06380340930014378","0.8181756573737883","0.42638363000687607","0","","","","","",""
"","do_trial","146","868651","0.0-128.0-0.0","379.80000001192093","","","","50","0,1,0","2","coast","88","probe-19","0.13571147910572265","0.7235780148746919","0.43773882135980496","1","","","","","",""
"","do_trial","147","874775","0.0-129.0-0.0","480.69999998807907","","","","50","0,1,0","2","coast","89","probe-15","0.15643227571242932","0.7047747885285603","0.398864572061403","1","","","","","",""
"","do_trial","148","883154","0.0-130.0-0.0","2752.100000023842","","","","50","1,1,0","2","coast","90","probe-176","0.3314887318803694","0.6436448698759114","0.31441883996464176","1","","","","","",""
"","do_trial","149","889056","0.0-131.0-0.0","291.19999998807907","","","","51","1,0,0","2","coast","91","probe-130","0.5229848142287199","0.5810626347622951","0.2725947090474627","0","","","","","",""
"","do_trial","150","895660","0.0-132.0-0.0","985.7999999821186","","","","49","1,1,0","2","coast","92","probe-230","0.6294208971083258","0.5264212415874401","0.1693379503664456","1","","","","","",""
"","do_trial","151","901736","0.0-133.0-0.0","456.59999999403954","","","","49","0,1,1","2","coast","93","probe-193","0.7169752060078577","0.5553330331566741","0.2496507668171601","0","","","","","",""
"","do_trial","152","907810","0.0-134.0-0.0","445.5","","","","50","0,0,0","2","coast","94","probe-10","0.5298587186324214","0.5947634794099101","0.06411746705653544","0","","","","","",""
"","do_trial","153","914429","0.0-135.0-0.0","992.2000000178814","","","","49","0,0,0","2","coast","95","probe-63","0.5908843621866481","0.5711826897362677","0.06504848465162506","0","","","","","",""
"","do_trial","154","920341","0.0-136.0-0.0","299.30000001192093","","","","50","1,0,0","2","coast","96","probe-202","0.6225475839286845","0.5035021531983473","0.11450590209090171","0","","","","","",""
"","do_trial","155","926682","0.0-137.0-0.0","718.0999999940395","","","","50","1,1,0","2","coast","97","probe-124","0.7440562849914344","0.3506864561105006","0.11261740279410065","1","","","","","",""
"","do_trial","156","932704","0.0-138.0-0.0","400.59999999403954","","","","49","1,0,0","2","coast","98","probe-28","0.659942440780335","0.465039777287153","0.0952839420054362","1","","","","","",""
"","do_trial","157","938927","0.0-139.0-0.0","596.4000000059605","","","","50","0,1,0","2","coast","99","probe-18","0.6641796335433914","0.5955320835698835","0.1824978761711235","1","","","","","",""
"","do_trial","158","944816","0.0-140.0-0.0","274.7999999821186","","","","51","1,0,0","2","coast","100","probe-34","0.7286457797242675","0.6644251208015556","0.08032175455458386","0","","","","","",""
"","do_trial","159","951301","0.0-141.0-0.0","877.8000000119209","","","","50","1,0,0","2","coast","101","probe-100","0.7789847503300579","0.5324663610064596","0.05208041198821623","0","","","","","",""
"","do_trial","160","957276","0.0-142.0-0.0","353.09999999403954","","","","49","0,0,0","2","coast","102","probe-177","0.7891622265547169","0.36781056115485633","0.10465372694927627","0","","","","","",""
"","do_trial","161","963423","0.0-143.0-0.0","534.8000000119209","","","","50","1,0,0","2","coast","103","probe-231","0.7559638278052022","0.352590212345574","0.1414183082718982","0","","","","","",""
"","do_trial","162","970688","0.0-144.0-0.0","1653.3999999761581","","","","49","1,0,0","2","coast","104","probe-215","0.7327479098966952","0.24504409958089673","0.08763217580433534","1","","","","","",""
"","do_trial","163","978582","0.0-145.0-0.0","2286.9000000059605","","","","50","1,0,0","2","coast","105","probe-141","0.8124134573294365","0.31867184627736206","0.21342201464541227","0","","","","","",""
"","do_trial","164","984617","0.0-146.0-0.0","415.5","","","","51","1,0,0","2","coast","106","probe-154","0.7308260690361683","0.3054021395004829","0.2616917487908682","0","","","","","",""
"","do_trial","165","990832","0.0-147.0-0.0","598.1999999880791","","","","49","1,1,0","2","coast","107","probe-213","0.8167607942964837","0.34561801536799713","0.09849047365263175","1","","","","","",""
"","do_trial","166","997430","0.0-148.0-0.0","972.1000000238419","","","","50","1,0,1","2","coast","108","probe-04","0.8195653533576459","0.3374118193555198","0.06717850884161988","0","","","","","",""
"","do_trial","167","1003815","0.0-149.0-0.0","765.1999999880791","","","","49","1,0,1","2","coast","109","probe-43","0.8708745875369573","0.46500956320540277","0.1494574175656986","1","","","","","",""
"","do_trial","168","1010307","0.0-150.0-0.0","875.9000000059605","","","","51","1,1,0","2","coast","110","probe-73","0.8117292651556839","0.5764152768405876","0.0916117134707699","0","","","","","",""
"","do_trial","169","1016264","0.0-151.0-0.0","342.69999998807907","","","","50","1,0,0","2","coast","111","probe-163","0.8486207933395885","0.49500062542347895","0.050479034120079154","0","","","","","",""
"","do_trial","170","1022265","0.0-152.0-0.0","375.59999999403954","","","","49","1,0,0","2","coast","112","probe-77","0.8230141425885747","0.5720789069217164","0.10987801601309341","1","","","","","",""
"","do_trial","171","1028373","0.0-153.0-0.0","492.90000000596046","","","","49","1,1,1","2","coast","113","probe-200","0.8624138859178886","0.5180260879185592","0.1227742548932513","1","","","","","",""
"","do_trial","172","1034472","0.0-154.0-0.0","482.59999999403954","","","","50","1,1,0","2","coast","114","probe-192","0.8365995070537285","0.5066062933704762","0.12806666479176554","1","","","","","",""
"","do_trial","173","1040489","0.0-155.0-0.0","406.2999999821186","","","","50","1,1,0","2","coast","115","probe-05","0.886213902263824","0.4690032549278125","0.08763187732399175","1","","","","","",""
"","do_trial","174","1046646","0.0-156.0-0.0","539.8000000119209","","","","50","1,0,0","2","coast","116","probe-210","0.8335798692701581","0.278440139384547","0.11400822786432142","0","","","","","",""
"","do_trial","175","1052674","0.0-157.0-0.0","404","","","","49","0,0,0","2","coast","117","probe-224","0.815729547815021","0.3414878416099012","0.0978784080856954","0","","","","","",""
"","do_trial","176","1060585","0.0-158.0-0.0","2297.699999988079","","","","50","1,0,0","2","coast","118","probe-233","0.8482283524569151","0.33782193849975173","0.23502052031473164","0","","","","","",""
"","do_trial","177","1066840","0.0-159.0-0.0","637.1000000238419","","","","49","1,0,0","2","coast","119","probe-45","0.8486532995535676","0.24891908605114807","0.22741051226667408","1","","","","","",""
"","do_bye","178","1068354","0.0-160.0-0.0","null","","","","null","","","","","","","","","","","","","","",""
"","do_travel","179","1074362","0.0-161.0-0.0","null","","","","null","","","","","","","","","","","","","","",""
"","do_welcome","180","1075873","0.0-161.0-1.0","null","","","","null","","","","","","","","","","","","","","",""
"","do_trial","181","1082994","0.0-162.0-0.0","1519","","","","50","1,0,1","3","countryside","120","probe-50","1","0.3106946115717616","0.1997031532026892","0","","","","","",""
"","do_trial","182","1089862","0.0-163.0-0.0","1261.5","","","","50","1,1,1","3","countryside","121","probe-07","1","0.23111295753168226","0.25285739209181873","1","","","","","",""
"","do_trial","183","1096852","0.0-164.0-0.0","1379","","","","51","1,0,0","3","countryside","122","probe-30","1","0.30040728079464585","0.13808767539465197","0","","","","","",""
"","do_trial","184","1103115","0.0-165.0-0.0","650","","","","50","1,1,0","3","countryside","123","probe-89","1","0.3693772215645189","0.09898241816651623","1","","","","","",""
"","do_trial","185","1109034","0.0-166.0-0.0","309.10000002384186","","","","50","1,1,0","3","countryside","124","probe-121","0.9060237654717546","0.38775888444602097","0.06901677530344974","1","","","","","",""
"","do_trial","186","1115187","0.0-167.0-0.0","543.6999999880791","","","","50","1,0,0","3","countryside","125","probe-105","0.9169957476904189","0.35868345683426034","0.1543257534577186","0","","","","","",""
"","do_trial","187","1121252","0.0-168.0-0.0","459.89999997615814","","","","49","1,0,0","3","countryside","126","probe-161","0.9464546783441931","0.5025965504055928","0.19179792075077728","1","","","","","",""
"","do_trial","188","1127710","0.0-169.0-0.0","833.7999999821186","","","","49","1,1,0","3","countryside","127","probe-72","0.8086949906037671","0.33475989369230263","0.2492698741299885","1","","","","","",""
"","do_trial","189","1133889","0.0-170.0-0.0","568.8000000119209","","","","49","0,1,0","3","countryside","128","probe-114","0.9367443059221634","0.30635168578748173","0.23372230641908562","0","","","","","",""
"","do_trial","190","1139895","0.0-171.0-0.0","397.90000000596046","","","","51","1,0,1","3","countryside","129","probe-143","0.8970531692584871","0.4231316960494166","0.2773881881136696","1","","","","","",""
"","do_trial","191","1146332","0.0-172.0-0.0","825.8000000119209","","","","51","1,1,0","3","countryside","130","probe-183","0.5518125285568047","0.5970597743802358","0.37543695665798615","0","","","","","",""
"","do_trial","192","1152451","0.0-173.0-0.0","506","","","","49","0,0,1","3","countryside","131","probe-184","0.507721631149255","0.8076270558565412","0.22908265617524726","0","","","","","",""
"","do_trial","193","1158670","0.0-174.0-0.0","608","","","","50","0,1,0","3","countryside","132","probe-203","0.347446081482865","0.6487195435542834","0.2479398137925047","1","","","","","",""
"","do_trial","194","1164785","0.0-175.0-0.0","490.80000001192093","","","","50","0,0,0","3","countryside","133","probe-135","0.28671507327626367","0.6435085393137316","0.32101245847052673","0","","","","","",""
"","do_trial","195","1170697","0.0-176.0-0.0","297.2000000178814","","","","49","1,1,1","3","countryside","134","probe-104","0.2588251670171635","0.7751604944781141","0.41565931937373385","1","","","","","",""
"","do_trial","196","1177040","0.0-177.0-0.0","725.5999999940395","","","","50","0,1,0","3","countryside","135","probe-03","0.20777745045898147","0.7422549927500017","0.312949337031827","1","","","","","",""
"","do_trial","197","1183135","0.0-178.0-0.0","484.2999999821186","","","","50","0,1,0","3","countryside","136","probe-58","0.2436482040851821","0.7297331980654308","0.4384729737330716","1","","","","","",""
"","do_trial","198","1190076","0.0-179.0-0.0","1326.800000011921","","","","50","0,1,0","3","countryside","137","probe-226","0.2907812099299067","0.6485762933252301","0.19601683690019403","1","","","","","",""
"","do_trial","199","1196423","0.0-180.0-0.0","739.7000000178814","","","","50","0,1,0","3","countryside","138","probe-113","0.2631459205929496","0.5976798469436638","0.3175349762733173","1","","","","","",""
"","do_trial","200","1202836","0.0-181.0-0.0","790.4000000059605","","","","49","0,0,0","3","countryside","139","probe-83","0.19702036922212954","0.7974333858869699","0.286219297629954","0","","","","","",""
"","do_trial","201","1210325","0.0-182.0-0.0","1876.199999988079","","","","50","1,1,1","3","countryside","140","probe-169","0.3551480255317766","0.7496142387335363","0.3397927518891412","1","","","","","",""
"","do_trial","202","1217756","0.0-183.0-0.0","1814.800000011921","","","","50","0,1,1","3","countryside","141","probe-174","0.2383864596255577","0.8422653803159816","0.3488939298100776","1","","","","","",""
"","do_trial","203","1223860","0.0-184.0-0.0","484.60000002384186","","","","50","0,1,0","3","countryside","142","probe-212","0.21388249297149473","0.7245051074375615","0.42535370383434656","1","","","","","",""
"","do_trial","204","1230474","0.0-185.0-0.0","990.5","","","","51","0,1,0","3","countryside","143","probe-139","0.24071306656966143","0.6832740908697705","0.37996747891595856","0","","","","","",""
"","do_trial","205","1236977","0.0-186.0-0.0","890.0999999940395","","","","50","0,1,1","3","countryside","144","probe-179","0.24553540489908282","0.7009834937306577","0.3898500972380128","1","","","","","",""
"","do_trial","206","1243242","0.0-187.0-0.0","654.1000000238419","","","","50","0,1,1","3","countryside","145","probe-153","0.24971493284721674","0.6922292562804759","0.4009470920988947","1","","","","","",""
"","do_trial","207","1249322","0.0-188.0-0.0","467.5","","","","49","0,1,1","3","countryside","146","probe-48","0.12871718453008232","0.8560285393866895","0.4304816360511214","0","","","","","",""
"","do_trial","208","1255644","0.0-189.0-0.0","703","","","","50","0,0,1","3","countryside","147","probe-68","0.06670522662453623","0.9295470514410862","0.411791137238769","0","","","","","",""
"","do_trial","209","1261573","0.0-190.0-0.0","318.7999999821186","","","","49","0,1,0","3","countryside","148","probe-02","0.11301911928017049","0.8401289144048676","0.3023278249784215","0","","","","","",""
"","do_trial","210","1267583","0.0-191.0-0.0","387.2999999821186","","","","51","0,0,1","3","countryside","149","probe-155","0.12044583443553453","0.8297912503027323","0.5089823575262464","1","","","","","",""
"","do_trial","211","1273789","0.0-192.0-0.0","599.3000000119209","","","","51","0,0,0","3","countryside","150","probe-209","0.05291035193421419","0.7518359303921838","0.43864536108261937","0","","","","","",""
"","do_trial","212","1280040","0.0-193.0-0.0","630.0999999940395","","","","51","0,1,0","3","countryside","151","probe-142","0.09749489760210031","0.7121765436229095","0.3432671021445902","0","","","","","",""
"","do_trial","213","1286099","0.0-194.0-0.0","436.5","","","","49","0,1,1","3","countryside","152","probe-175","0.07639978082368931","0.914338273669906","0.3349369832774125","0","","","","","",""
"","do_trial","214","1292418","0.0-195.0-0.0","703.9000000059605","","","","50","1,1,0","3","countryside","153","probe-196","0.10793551605503827","0.8712033394796277","0.38095663532997665","1","","","","","",""
"","do_trial","215","1298464","0.0-196.0-0.0","414.5","","","","49","0,1,0","3","countryside","154","probe-146","0.09085612486240909","0.8459297498066076","0.4138047667016126","0","","","","","",""
"","do_trial","216","1304576","0.0-197.0-0.0","506.30000001192093","","","","50","0,1,0","3","countryside","155","probe-57","0.0992549387009761","0.9018668023828375","0.34049546069509296","1","","","","","",""
"","do_trial","217","1311451","0.0-198.0-0.0","1264.300000011921","","","","51","0,1,1","3","countryside","156","probe-26","0.0523648570256033","0.8533156525348481","0.4332180421617901","1","","","","","",""
"","do_trial","218","1318030","0.0-199.0-0.0","965","","","","51","0,0,0","3","countryside","157","probe-17","0.15657442728836252","0.9118522614759311","0.3647398054478635","0","","","","","",""
"","do_trial","219","1324487","0.0-200.0-0.0","848.2999999821186","","","","49","0,0,1","3","countryside","158","probe-117","0.1376869117883565","0.879272968563131","0.29913610769225096","0","","","","","",""
"","do_trial","220","1331770","0.0-201.0-0.0","1671","","","","50","0,0,1","3","countryside","159","probe-239","0.1433895504535326","0.8322101222722256","0.3624891296933726","0","","","","","",""
"","do_bye","221","1333285","0.0-202.0-0.0","null","","","","null","","","","","","","","","","","","","","",""
"","do_travel","222","1339296","0.0-203.0-0.0","null","","","","null","","","","","","","","","","","","","","",""
"","do_welcome","223","1340810","0.0-203.0-1.0","null","","","","null","","","","","","","","","","","","","","",""
"","do_trial","224","1348387","0.0-204.0-0.0","1973.800000011921","","","","51","0,1,0","4","city","160","probe-189","0.27504833310624827","1","0.44100824118278736","0","","","","","",""
"","do_trial","225","1354779","0.0-205.0-0.0","778.3000000119209","","","","49","1,1,0","4","city","161","probe-158","0.3666317021364502","1","0.478349839580222","1","","","","","",""
"","do_trial","226","1361050","0.0-206.0-0.0","640.7999999821186","","","","51","1,1,1","4","city","162","probe-194","0.2916346591512533","1","0.5541994932949601","1","","","","","",""
"","do_trial","227","1367501","0.0-207.0-0.0","840","","","","49","0,1,0","4","city","163","probe-31","0.18881090808414847","1","0.5203973972573672","0","","","","","",""
"","do_trial","228","1373805","0.0-208.0-0.0","693.7999999821186","","","","50","0,1,0","4","city","164","probe-172","0.06800464901015695","0.8919811493800331","0.5407845286680517","1","","","","","",""
"","do_trial","229","1380215","0.0-209.0-0.0","803.4000000059605","","","","49","0,0,1","4","city","165","probe-208","0.11096800877777618","0.6598593148459557","0.4475940636829119","0","","","","","",""
"","do_trial","230","1386607","0.0-210.0-0.0","782.2999999821186","","","","49","0,0,1","4","city","166","probe-234","0.06310275457816626","0.6129180449039635","0.3740126630184609","0","","","","","",""
"","do_trial","231","1392940","0.0-211.0-0.0","701.9000000059605","","","","51","0,1,0","4","city","167","probe-71","0.0687317514679019","0.7043349518731591","0.3532103582258636","0","","","","","",""
"","do_trial","232","1398858","0.0-212.0-0.0","297.90000000596046","","","","50","0,1,0","4","city","168","probe-205","0.05450923796182426","0.7991486136442969","0.2380360461107687","1","","","","","",""
"","do_trial","233","1405432","0.0-213.0-0.0","958.0999999940395","","","","50","0,1,0","4","city","169","probe-80","0.09933893270954788","0.8299431018932282","0.3798672852855626","1","","","","","",""
"","do_trial","234","1412472","0.0-214.0-0.0","1419","","","","49","0,0,0","4","city","170","probe-91","0.30736678801782785","0.5691445007798325","0.42899556872720085","0","","","","","",""
"","do_trial","235","1418679","0.0-215.0-0.0","597.9000000059605","","","","49","1,0,0","4","city","171","probe-223","0.5526810320273188","0.3430242054384649","0.40524231012354006","1","","","","","",""
"","do_trial","236","1425093","0.0-216.0-0.0","802.9000000059605","","","","49","1,0,0","4","city","172","probe-90","0.5658570176594173","0.22249754045022074","0.3023446139343632","1","","","","","",""
"","do_trial","237","1431818","0.0-217.0-0.0","1115.2000000178814","","","","51","1,1,0","4","city","173","probe-185","0.562452794555927","0.4037122106168121","0.23875967413068808","0","","","","","",""
"","do_trial","238","1437887","0.0-218.0-0.0","454","","","","49","0,1,1","4","city","174","probe-85","0.6047847421815817","0.49707168381089256","0.1116976408971406","0","","","","","",""
"","do_trial","239","1444172","0.0-219.0-0.0","661.9000000059605","","","","51","1,0,0","4","city","175","probe-37","0.6606782164602045","0.5077206265700908","0.20480864731920143","0","","","","","",""
"","do_trial","240","1450780","0.0-220.0-0.0","993.1999999880791","","","","49","0,1,0","4","city","176","probe-32","0.7813238852679204","0.3805950309042379","0.17810305639987978","0","","","","","",""
"","do_trial","241","1457196","0.0-221.0-0.0","808.6999999880791","","","","49","1,0,0","4","city","177","probe-78","0.789967177396207","0.41633604911351874","0.139085141327499","1","","","","","",""
"","do_trial","242","1463176","0.0-222.0-0.0","362.30000001192093","","","","49","1,0,0","4","city","178","probe-133","0.77754660507137","0.3915509675372525","0.18489995056812655","1","","","","","",""
"","do_trial","243","1469389","0.0-223.0-0.0","590.7000000178814","","","","51","1,0,1","4","city","179","probe-41","0.7719690245371534","0.26952257424557063","0.13651214253002303","1","","","","","",""
"","do_trial","244","1475717","0.0-224.0-0.0","704.7000000178814","","","","51","1,0,0","4","city","180","probe-221","0.7744754468649631","0.45373136951992393","0.10532123903054352","0","","","","","",""
"","do_trial","245","1481949","0.0-225.0-0.0","617.4000000059605","","","","49","1,0,0","4","city","181","probe-118","0.6059557023490099","0.3897899795546391","0.13231496041744836","1","","","","","",""
"","do_trial","246","1487994","0.0-226.0-0.0","429.5","","","","50","0,1,0","4","city","182","probe-24","0.6734238654353355","0.2012608978988522","0.08750734529822722","1","","","","","",""
"","do_trial","247","1494162","0.0-227.0-0.0","557.1000000238419","","","","49","1,0,0","4","city","183","probe-55","0.7509887638026463","0.27440257060713685","0.1382368232753217","1","","","","","",""
"","do_trial","248","1500265","0.0-228.0-0.0","490","","","","51","0,0,1","4","city","184","probe-13","0.8641522408679511","0.2612174056072733","0.16043624394314526","1","","","","","",""
"","do_trial","249","1506233","0.0-229.0-0.0","351.5","","","","51","1,1,0","4","city","185","probe-232","0.8775845369956474","0.32344335183245376","0.05209552403145232","0","","","","","",""
"","do_trial","250","1512514","0.0-230.0-0.0","661","","","","49","1,0,0","4","city","186","probe-93","0.8625614901760068","0.3095691308853695","0.1457593450095716","1","","","","","",""
"","do_trial","251","1518524","0.0-231.0-0.0","386.39999997615814","","","","49","1,0,0","4","city","187","probe-74","0.8939117587162524","0.2454424122051445","0.10763383086630895","1","","","","","",""
"","do_trial","252","1524678","0.0-232.0-0.0","538.7999999821186","","","","49","1,1,0","4","city","188","probe-197","0.8122842159126734","0.4622950776585639","0.25873593328990896","1","","","","","",""
"","do_trial","253","1530888","0.0-233.0-0.0","598.5","","","","51","1,0,0","4","city","189","probe-206","0.8303965578520486","0.5046499167093258","0.10291235564235962","0","","","","","",""
"","do_trial","254","1536934","0.0-234.0-0.0","432.19999998807907","","","","49","1,0,0","4","city","190","probe-225","0.8469356701186255","0.42716143180747174","0.14964947509940935","1","","","","","",""
"","do_trial","255","1542922","0.0-235.0-0.0","365.80000001192093","","","","50","1,1,0","4","city","191","probe-238","0.8692504634024502","0.3978141585628622","0.12390787501381317","1","","","","","",""
"","do_trial","256","1549042","0.0-236.0-0.0","508.7999999821186","","","","49","0,0,0","4","city","192","probe-51","0.6762428653658742","0.37621289591459395","0.0512986239821294","0","","","","","",""
"","do_trial","257","1555106","0.0-237.0-0.0","440.7999999821186","","","","50","1,0,0","4","city","193","probe-108","0.7422906953932379","0.29699225619780445","0.05649506731373062","0","","","","","",""
"","do_trial","258","1561294","0.0-238.0-0.0","567.7999999821186","","","","51","1,1,1","4","city","194","probe-53","0.9154274081036502","0.4142500922031593","0.15580514619780508","1","","","","","",""
"","do_trial","259","1567179","0.0-239.0-0.0","264.2000000178814","","","","50","1,1,0","4","city","195","probe-64","0.8970860493602096","0.40736469072149034","0.06431293232589527","1","","","","","",""
"","do_trial","260","1573239","0.0-240.0-0.0","442.59999999403954","","","","49","1,0,0","4","city","196","probe-98","0.8493019425781251","0.37245347386495276","0.06597657103256058","1","","","","","",""
"","do_trial","261","1579218","0.0-241.0-0.0","367.40000000596046","","","","50","1,1,0","4","city","197","probe-201","0.8977218751116819","0.3855388523192596","0.10785234523098143","1","","","","","",""
"","do_trial","262","1585369","0.0-242.0-0.0","527","","","","49","1,0,0","4","city","198","probe-126","0.8508829567011104","0.27075328626427086","0.23845310870809278","1","","","","","",""
"","do_trial","263","1591348","0.0-243.0-0.0","362.2000000178814","","","","49","1,0,0","4","city","199","probe-122","0.9464100215606118","0.3284237215943935","0.2071268555054634","1","","","","","",""
"","do_bye","264","1592863","0.0-244.0-0.0","null","","","","null","","","","","","","","","","","","","","",""
"","do_travel","265","1598871","0.0-245.0-0.0","null","","","","null","","","","","","","","","","","","","","",""
"","do_welcome","266","1600387","0.0-245.0-1.0","null","","","","null","","","","","","","","","","","","","","",""
"","do_trial","267","1607211","0.0-246.0-0.0","1205.5999999940395","","","","50","1,0,0","5","forest","200","probe-44","1","0.41208892108436546","0.23295437194503202","0","","","","","",""
"","do_trial","268","1613179","0.0-247.0-0.0","353.09999999403954","","","","51","1,0,0","5","forest","201","probe-112","1","0.36748971746218945","0.22167773563633775","0","","","","","",""
"","do_trial","269","1619212","0.0-248.0-0.0","408","","","","49","1,0,0","5","forest","202","probe-235","1","0.35230027616470166","0.10445465438647102","1","","","","","",""
"","do_trial","270","1625438","0.0-249.0-0.0","610.7000000178814","","","","50","1,1,0","5","forest","203","probe-97","1","0.49993238832163206","0.2172313430944933","1","","","","","",""
"","do_trial","271","1633069","0.0-250.0-0.0","2023.2999999821186","","","","51","1,0,0","5","forest","204","probe-61","0.895445237097367","0.39791186205066886","0.22464206432502798","0","","","","","",""
"","do_trial","272","1639163","0.0-251.0-0.0","471.5","","","","49","1,0,0","5","forest","205","probe-96","0.8253822528378184","0.46567010448106166","0.2936505337946371","1","","","","","",""
"","do_trial","273","1645265","0.0-252.0-0.0","481","","","","50","0,1,0","5","forest","206","probe-227","0.8876859361862671","0.44383565633015154","0.13447406887770044","1","","","","","",""
"","do_trial","274","1651390","0.0-253.0-0.0","506.60000002384186","","","","49","1,0,0","5","forest","207","probe-70","0.8325247710998565","0.38480838944418155","0.11352516815237972","1","","","","","",""
"","do_trial","275","1657519","0.0-254.0-0.0","494","","","","50","1,1,0","5","forest","208","probe-159","0.8383627260941137","0.45823175349714584","0.09048788681385839","1","","","","","",""
"","do_trial","276","1663578","0.0-255.0-0.0","438.40000000596046","","","","49","1,0,0","5","forest","209","probe-191","0.8281256178029308","0.49197444399360934","0.13067498977184808","1","","","","","",""
"","do_trial","277","1669826","0.0-256.0-0.0","637.0999999940395","","","","50","0,1,0","5","forest","210","probe-164","0.7829084195541935","0.592509263336733","0.2129670580011078","1","","","","","",""
"","do_trial","278","1675914","0.0-257.0-0.0","477.2000000178814","","","","50","1,1,0","5","forest","211","probe-219","0.7862592774983981","0.7347035814232318","0.2634424766505747","1","","","","","",""
"","do_trial","279","1681817","0.0-258.0-0.0","270.5","","","","49","0,1,0","5","forest","212","probe-187","0.6561531351384405","0.8193692124247004","0.11878494700675266","0","","","","","",""
"","do_trial","280","1687828","0.0-259.0-0.0","386.19999998807907","","","","51","1,0,0","5","forest","213","probe-237","0.5260132365766874","0.8764811480171777","0.09233895706495755","0","","","","","",""
"","do_trial","281","1694140","0.0-260.0-0.0","693.5999999940395","","","","50","0,1,0","5","forest","214","probe-125","0.4963071774690775","0.9028989262496496","0.05493330780014656","1","","","","","",""
"","do_trial","282","1700381","0.0-261.0-0.0","618.5999999940395","","","","49","1,1,0","5","forest","215","probe-170","0.5496817617662342","0.9392598281168859","0.056138301818443995","1","","","","","",""
"","do_trial","283","1706000","0.0-262.0-0.0","0.7000000178813934","","","","50","1,0,1","5","forest","216","probe-88","0.5331506325662926","0.8653052514767765","0.0769536586652259","0","","","","","",""
"","do_trial","284","1711955","0.0-263.0-0.0","317.7000000178814","","","","49","1,1,0","5","forest","217","probe-12","0.44610155197303886","0.8452060705604778","0.19117619641154168","1","","","","","",""
"","do_trial","285","1717970","0.0-264.0-0.0","394.90000000596046","","","","51","1,1,0","5","forest","218","probe-69","0.4968343010638057","0.8075645573605135","0.1957538307734136","0","","","","","",""
"","do_trial","286","1724340","0.0-265.0-0.0","763.1000000238419","","","","51","0,1,0","5","forest","219","probe-23","0.5650889064938414","0.8278238365091258","0.07769267717101402","0","","","","","",""
"","do_trial","287","1730573","0.0-266.0-0.0","612.3000000119209","","","","49","1,1,0","5","forest","220","probe-198","0.6284640597805651","0.9185320903270194","0.1410456830863967","1","","","","","",""
"","do_trial","288","1737034","0.0-267.0-0.0","843.2000000178814","","","","50","1,1,0","5","forest","221","probe-240","0.5886630617118859","0.8925060942405739","0.18348593466823118","1","","","","","",""
"","do_trial","289","1743271","0.0-268.0-0.0","629.2000000178814","","","","49","0,0,0","5","forest","222","probe-21","0.487985713221977","0.9483907485536416","0.10528452928410609","0","","","","","",""
"","do_trial","290","1750703","0.0-269.0-0.0","1812.5999999940395","","","","49","0,1,0","5","forest","223","probe-195","0.21064545839222792","0.8224157203681104","0.05309915335684176","0","","","","","",""
"","do_trial","291","1757600","0.0-270.0-0.0","1280.699999988079","","","","49","1,1,0","5","forest","224","probe-132","0.3764739159526424","0.7897231045206787","0.05703178961492721","1","","","","","",""
"","do_trial","292","1763615","0.0-271.0-0.0","397.59999999403954","","","","49","0,1,0","5","forest","225","probe-27","0.3993923385624498","0.8180278911187924","0.23881482325996076","0","","","","","",""
"","do_trial","293","1769513","0.0-272.0-0.0","281.7000000178814","","","","50","1,1,0","5","forest","226","probe-144","0.3866838081582005","0.8746815037807822","0.06467588996363226","1","","","","","",""
"","do_trial","294","1775412","0.0-273.0-0.0","272.5","","","","50","0,1,0","5","forest","227","probe-162","0.385196679334398","0.8403160204160058","0.11090986067584173","1","","","","","",""
"","do_trial","295","1781656","0.0-274.0-0.0","614.2000000178814","","","","51","0,1,0","5","forest","228","probe-14","0.3971094219921945","0.8725226408073888","0.13412206319381645","0","","","","","",""
"","do_trial","296","1788226","0.0-275.0-0.0","961.5","","","","50","0,1,0","5","forest","229","probe-137","0.3726365046465855","0.8798469253257994","0.06998733628041576","1","","","","","",""
"","do_trial","297","1795138","0.0-276.0-0.0","1302.0999999940395","","","","50","0,0,1","5","forest","230","probe-190","0.40511558214091753","0.8065631459808575","0.17551488343877228","0","","","","","",""
"","do_trial","298","1800844","0.0-277.0-0.0","88.5","","","","49","0,1,0","5","forest","231","probe-42","0.43172688290662303","0.8090282507559237","0.05092641750519322","0","","","","","",""
"","do_trial","299","1806811","0.0-278.0-0.0","338","","","","49","1,1,0","5","forest","232","probe-52","0.28184139899264177","0.9269942374913667","0.20753250000864426","1","","","","","",""
"","do_trial","300","1813515","0.0-279.0-0.0","1082.199999988079","","","","50","0,1,0","5","forest","233","probe-46","0.5341092641428482","0.9428820169483082","0.13496261773257795","1","","","","","",""
"","do_trial","301","1819564","0.0-280.0-0.0","430.90000000596046","","","","51","1,1,0","5","forest","234","probe-166","0.5045270109845932","0.8977822571715688","0.11407159358864011","0","","","","","",""
"","do_trial","302","1825740","0.0-281.0-0.0","561.3999999761581","","","","51","0,1,0","5","forest","235","probe-101","0.6098708454402738","0.8441954886741421","0.18588294784566597","0","","","","","",""
"","do_trial","303","1832002","0.0-282.0-0.0","642.0999999940395","","","","50","0,1,0","5","forest","236","probe-119","0.45945485966425864","0.8361858006573","0.11173590560407737","1","","","","","",""
"","do_trial","304","1838609","0.0-283.0-0.0","989.5","","","","50","0,1,0","5","forest","237","probe-199","0.5505564022211279","0.8792036500091542","0.09872297972073497","1","","","","","",""
"","do_trial","305","1844754","0.0-284.0-0.0","520.8000000119209","","","","50","0,0,0","5","forest","238","probe-16","0.43888188843343984","0.8660735882301706","0.0734771551816676","0","","","","","",""
"","do_trial","306","1851623","0.0-285.0-0.0","1246.5","","","","50","1,1,0","5","forest","239","probe-157","0.45533842305660577","0.896592939663825","0.13974304982621794","1","","","","","",""
"","do_bye","307","1853139","0.0-286.0-0.0","null","","","","null","","","","","","","","","","","","","","",""
"","html-keyboard-response","308","1963967","0.0-286.0-1.0","110821.60000002384","<div class='center'><p>You may take a break now!</p><p> Stretch for a little bit. Get a glass of water.</p><p> You have two minutes to rest. Then, the game will automatically move on.</p><p>If you’d like to get started on the second half of the experiment sooner, then press the <b>space bar</b></p></div>","32","","","","","","","","","","","","","","","","",""
"","html-keyboard-response","309","1980298","0.0-286.0-2.0","16327","<div class='center'><p>You’ve arrived at the final destination of your journey! Unfortunately, it’s very foggy out, so you won’t be able to see it in the distance like in previous places you've visited.</p><p>You’ll still be deciding which pirates you want to rob ships. However, because of the fog you also won’t be able to see the ship in the distance. </p><p><b>[Press the space bar to continue]</b></p></div>","32","","","","","","","","","","","","","","","","",""
"","html-keyboard-response","310","1995921","0.0-286.0-3.0","15617.5","<div class='center'><p> Sometimes you’ll be asked if you’ve seen a ship before (see the example below). You will use the 5, 6, 7, 8 buttons on your keyboard to respond. </p><p> If you definitely did not see the ship, pick the the big red thumbs down by pressing <b>5</b>.</p><p> If you don’t think you saw it but aren’t sure, then pick the small red thumbs down by pressing <b>6</b>.</p><p> If you think you might have seen it, then pick the small green thumbs up by pressing <b>7</b>.</p><p> If you definitely did see this ship before, then pick the big thumb green thumbs up by pressing <b>8</b>.</p><p> If you recall correctly, then you’ll get a gold coin!</p><p><b>[Press the space bar to begin the next phase of the experiment]</b></p><p><img src='run_exp/static/images/example_recog_trial.png' height='500'></p></div>","32","","","","","","","","","","","","","","","","",""
"","do_welcome","311","1997431","0.0-286.0-4.0","null","","","","null","","","","","","","","","","","","","","",""
"","do_trial","312","2002519","0.0-287.0-0.0","1476.0999999940395","","","","50","0,1,0","6","blank","240","null","0.4034371183838851","1","0.08652524493265858","1","","","","","",""
"","do_recog","313","2006644","0.0-288.0-0.0","2605.5","","","","55","","","","241","probe-255","","","","","0","[object Object]","null","null","0",""
"","do_trial","314","2011293","0.0-289.0-0.0","1026.300000011921","","","","49","1,1,0","6","blank","242","null","0.5308467120498882","0.85977755051759","0.1145490039966414","1","","","","","",""
"","do_recog","315","2014884","0.0-290.0-0.0","2072.2000000178814","","","","56","","","","243","probe-84","","","","","1","[object Object]","49","1","1",""
"","do_trial","316","2020062","0.0-291.0-0.0","1572.6000000238419","","","","51","0,1,1","6","blank","244","null","0.43481763331199136","0.8887023325360105","0.16711518017995056","1","","","","","",""
"","do_recog","317","2024065","0.0-292.0-0.0","2479.5","","","","53","","","","245","probe-158","","","","","1","[object Object]","161","4","0",""
"","do_trial","318","2028359","0.0-293.0-0.0","687.5999999940395","","","","50","0,1,0","6","blank","246","null","0.29288334576872366","0.8584168922399034","0.1798126817047538","1","","","","","",""
"","do_recog","319","2033171","0.0-294.0-0.0","3291.5","","","","55","","","","247","probe-259","","","","","0","[object Object]","null","null","0",""
"","do_trial","320","2037911","0.0-295.0-0.0","1112.4000000059605","","","","51","0,1,0","6","blank","248","null","0.2962926632398323","0.6894228031728039","0.20240145828399342","0","","","","","",""
"","do_trial","321","2042852","0.0-296.0-0.0","1324.5","","","","49","0,1,0","6","blank","249","null","0.3760372364564574","0.7932507369162685","0.1048007159897664","0","","","","","",""
"","do_trial","322","2046724","0.0-297.0-0.0","265.40000000596046","","","","50","1,1,0","6","blank","250","null","0.41838727699830036","0.8098632921249467","0.11020013225346892","1","","","","","",""
"","do_recog","323","2050131","0.0-298.0-0.0","1882.800000011921","","","","55","","","","251","probe-30","","","","","1","[object Object]","122","3","1",""
"","do_trial","324","2054629","0.0-299.0-0.0","891","","","","50","0,0,1","6","blank","252","null","0.49861150663155046","0.7389120855748945","0.20541991458809947","0","","","","","",""
"","do_trial","325","2058909","0.0-300.0-0.0","669.7999999821186","","","","49","1,1,0","6","blank","253","null","0.4989613056330181","0.8134402533437347","0.19544950892568513","1","","","","","",""
"","do_trial","326","2065028","0.0-301.0-0.0","null","","","","null","1,1,0","6","blank","254","null","0.44665411973572305","0.6866982367255087","0.17477369182669314","","","","","","",""
"","do_trial","327","2069862","0.0-302.0-0.0","1214.199999988079","","","","51","1,0,0","6","blank","255","null","0.5537044308045027","0.41005792594772134","0.2290657840214309","0","","","","","",""
"","do_trial","328","2073945","0.0-303.0-0.0","462.09999999403954","","","","50","1,0,0","6","blank","256","null","0.7005142247288886","0.3010872602648276","0.2128078328850554","0","","","","","",""
"","do_recog","329","2077791","0.0-304.0-0.0","2321.7999999821186","","","","54","","","","257","probe-253","","","","","0","[object Object]","null","null","1",""
"","do_trial","330","2081951","0.0-305.0-0.0","541.2999999821186","","","","49","1,0,0","6","blank","258","null","0.7006032332956965","0.2091957580986388","0.32537873028583797","1","","","","","",""
"","do_recog","331","2084595","0.0-306.0-0.0","1126.7999999821186","","","","56","","","","259","probe-44","","","","","1","[object Object]","200","5","1",""
"","do_trial","332","2088792","0.0-307.0-0.0","582.5","","","","50","0,0,0","6","blank","260","null","0.6318437494916012","0.06371131503718747","0.41880120436973195","0","","","","","",""
"","do_recog","333","2091381","0.0-308.0-0.0","1073.300000011921","","","","53","","","","261","probe-31","","","","","1","[object Object]","163","4","0",""
"","do_trial","334","2095366","0.0-309.0-0.0","354.5","","","","51","1,0,0","6","blank","262","null","0.5911377651530669","0.14049696938597286","0.41929804585939584","0","","","","","",""
"","do_trial","335","2099833","0.0-310.0-0.0","853.2999999821186","","","","51","1,0,1","6","blank","263","null","0.682099992961873","0.107458272325819","0.41575920961268625","1","","","","","",""
"","do_trial","336","2104637","0.0-311.0-0.0","1178","","","","50","0,0,0","6","blank","264","null","0.7412821166231861","0.10889300386090273","0.41453640217683857","0","","","","","",""
"","do_recog","337","2107316","0.0-312.0-0.0","1162.0999999940395","","","","55","","","","265","probe-234","","","","","1","[object Object]","166","4","1",""
"","do_trial","338","2111390","0.0-313.0-0.0","466.30000001192093","","","","49","1,0,1","6","blank","266","null","0.7932915800793814","0.20462475333802174","0.29237320334356726","1","","","","","",""
"","do_recog","339","2113719","0.0-314.0-0.0","816.0999999940395","","","","55","","","","267","probe-36","","","","","1","[object Object]","48","1","1",""
"","do_trial","340","2117782","0.0-315.0-0.0","454.5","","","","50","1,0,0","6","blank","268","null","0.7657092676668487","0.16494905316542557","0.2925240662792013","0","","","","","",""
"","do_trial","341","2122428","0.0-316.0-0.0","1026.5999999940395","","","","51","1,0,1","6","blank","269","null","0.7070855264726555","0.13889553240157163","0.4369741809725805","1","","","","","",""
"","do_trial","342","2126754","0.0-317.0-0.0","706.5","","","","50","1,0,0","6","blank","270","null","0.778961504293812","0.1866012401829552","0.22540862651517074","0","","","","","",""
"","do_trial","343","2130716","0.0-318.0-0.0","342.30000001192093","","","","51","0,0,1","6","blank","271","null","0.8746978575859015","0.1256069292096589","0.3096434887540668","1","","","","","",""
"","do_recog","344","2133480","0.0-319.0-0.0","1247","","","","55","","","","272","probe-114","","","","","1","[object Object]","128","3","1",""
"","do_trial","345","2137521","0.0-320.0-0.0","432.59999999403954","","","","49","1,0,0","6","blank","273","null","0.8283840347247007","0.09192715351516967","0.31243709933450914","1","","","","","",""
"","do_recog","346","2140409","0.0-321.0-0.0","1371.1000000238419","","","","54","","","","274","probe-235","","","","","1","[object Object]","202","5","0",""
"","do_trial","347","2144530","0.0-322.0-0.0","507.69999998807907","","","","51","0,0,1","6","blank","275","null","0.6241477847982465","0.06150193697331479","0.40957944680977876","1","","","","","",""
"","do_recog","348","2147422","0.0-323.0-0.0","1371.5","","","","54","","","","276","probe-105","","","","","1","[object Object]","125","3","0",""
"","do_trial","349","2152038","0.0-324.0-0.0","986.0999999940395","","","","50","0,0,0","6","blank","277","null","0.567571435014248","0.11829719108907583","0.4347905144150018","0","","","","","",""
"","do_recog","350","2154465","0.0-325.0-0.0","909.4000000059605","","","","55","","","","278","probe-216","","","","","1","[object Object]","41","1","1",""
"","do_trial","351","2158835","0.0-326.0-0.0","753.4000000059605","","","","49","1,0,1","6","blank","279","null","0.7796774107605683","0.14876717831799424","0.42069072271291225","1","","","","","",""
"","do_recog","352","2161589","0.0-327.0-0.0","1239.300000011921","","","","55","","","","280","probe-214","","","","","1","[object Object]","47","1","1",""
"","do_trial","353","2165957","0.0-328.0-0.0","752.2000000178814","","","","51","1,0,0","6","blank","281","null","0.7299097621814579","0.09510538341902675","0.26956251007955784","0","","","","","",""
"","do_recog","354","2168409","0.0-329.0-0.0","932.5999999940395","","","","55","","","","282","probe-15","","","","","1","[object Object]","89","2","1",""
"","do_trial","355","2172439","0.0-330.0-0.0","408.90000000596046","","","","49","0,0,0","6","blank","283","null","0.7890514218849923","0.10830419447432581","0.12778190001163886","0","","","","","",""
"","do_recog","356","2175158","0.0-331.0-0.0","1205.8999999761581","","","","55","","","","284","probe-207","","","","","1","[object Object]","42","1","1",""
"","do_trial","357","2179162","0.0-332.0-0.0","390.7999999821186","","","","50","0,0,0","6","blank","285","null","0.881150185031745","0.09535893267452288","0.16351983236228332","0","","","","","",""
"","do_recog","358","2181941","0.0-333.0-0.0","1260.5999999940395","","","","54","","","","286","probe-143","","","","","1","[object Object]","129","3","0",""
"","do_trial","359","2185958","0.0-334.0-0.0","399.7000000178814","","","","50","1,0,0","6","blank","287","null","0.8645023716371053","0.06725609374667281","0.3694143404587602","0","","","","","",""
"","do_recog","360","2188547","0.0-335.0-0.0","1069","","","","55","","","","288","probe-19","","","","","1","[object Object]","88","2","1",""
"","do_trial","361","2192494","0.0-336.0-0.0","326.80000001192093","","","","51","1,0,1","6","blank","289","null","1","0.153302100242935","0.44631449914624655","1","","","","","",""
"","do_trial","362","2197480","0.0-337.0-0.0","1359.5","","","","51","1,0,1","6","blank","290","null","0.7756007710755413","0.2724322225279597","0.5575105771506922","1","","","","","",""
"","do_recog","363","2200311","0.0-338.0-0.0","1312.800000011921","","","","55","","","","291","probe-227","","","","","1","[object Object]","206","5","1",""
"","do_trial","364","2204777","0.0-339.0-0.0","832.9000000059605","","","","50","1,1,1","6","blank","292","null","0.7732325951177126","0.3669782960809094","0.5945812722181937","1","","","","","",""
"","do_recog","365","2207425","0.0-340.0-0.0","1129.5999999940395","","","","55","","","","293","probe-72","","","","","1","[object Object]","127","3","1",""
"","do_trial","366","2211555","0.0-341.0-0.0","517.2000000178814","","","","51","1,1,1","6","blank","294","null","0.9485211765468559","0.2942277654345352","0.5153406287852085","1","","","","","",""
"","do_recog","367","2214422","0.0-342.0-0.0","1346.9000000059605","","","","55","","","","295","probe-189","","","","","1","[object Object]","160","4","1",""
"","do_trial","368","2218355","0.0-343.0-0.0","312.19999998807907","","","","51","1,0,1","6","blank","296","null","0.8817782461758654","0.34385914992330174","0.46808223920731823","1","","","","","",""
"","do_trial","369","2222942","0.0-344.0-0.0","970.6999999880791","","","","50","1,0,0","6","blank","297","null","0.7986543293696141","0.1398073224197413","0.4155279642248516","0","","","","","",""
"","do_trial","370","2227449","0.0-345.0-0.0","893.3000000119209","","","","49","1,0,1","6","blank","298","null","0.8545830242090783","0.2543720104690143","0.4092074130694453","1","","","","","",""
"","do_trial","371","2232083","0.0-346.0-0.0","1009.3999999761581","","","","50","1,0,0","6","blank","299","null","0.900024547246618","0.2969550771038361","0.2462412288412225","0","","","","","",""
"","do_recog","372","2234587","0.0-347.0-0.0","990.2999999821186","","","","56","","","","300","probe-96","","","","","1","[object Object]","205","5","1",""
"","do_trial","373","2238827","0.0-348.0-0.0","636.0999999940395","","","","51","1,0,0","6","blank","301","null","0.7791237620348929","0.22548486270427023","0.38399894946330704","0","","","","","",""
"","do_trial","374","2243656","0.0-349.0-0.0","1211.0999999940395","","","","51","1,0,0","6","blank","302","null","0.6829478701925804","0.2107414699962472","0.46789976246681364","0","","","","","",""
"","do_trial","375","2247565","0.0-350.0-0.0","300.40000000596046","","","","50","0,0,1","6","blank","303","null","0.6580311864999066","0.33420106735865623","0.3638652295814308","0","","","","","",""
"","do_recog","376","2250878","0.0-351.0-0.0","1790.199999988079","","","","54","","","","304","probe-208","","","","","1","[object Object]","165","4","0",""
"","do_trial","377","2255675","0.0-352.0-0.0","1179.699999988079","","","","50","1,1,1","6","blank","305","null","0.532799031229167","0.38077122489888854","0.46058283399650835","1","","","","","",""
"","do_recog","378","2258283","0.0-353.0-0.0","1086.6000000238419","","","","56","","","","306","probe-191","","","","","1","[object Object]","209","5","1",""
"","do_trial","379","2262334","0.0-354.0-0.0","436.7999999821186","","","","50","0,1,0","6","blank","307","null","0.5442549753999076","0.6392051782544431","0.46614920401247945","1","","","","","",""
"","do_recog","380","2265039","0.0-355.0-0.0","1185.2999999821186","","","","56","","","","308","probe-172","","","","","1","[object Object]","164","4","1",""
"","do_trial","381","2269139","0.0-356.0-0.0","487.2999999821186","","","","50","1,1,0","6","blank","309","null","0.457014365927377","0.7571550814863803","0.2953778059756718","1","","","","","",""
"","do_recog","382","2272085","0.0-357.0-0.0","1429.800000011921","","","","54","","","","310","probe-97","","","","","1","[object Object]","203","5","0",""
"","do_trial","383","2276442","0.0-358.0-0.0","746.6999999880791","","","","51","1,0,0","6","blank","311","null","0.43501330931797166","0.681389715819526","0.22199261395146724","0","","","","","",""
"","do_trial","384","2280806","0.0-359.0-0.0","741.0999999940395","","","","49","0,1,1","6","blank","312","null","0.33314715574402753","0.7025913430152794","0.17500617989270997","0","","","","","",""
"","do_trial","385","2285024","0.0-360.0-0.0","603.5999999940395","","","","50","0,1,1","6","blank","313","null","0.35523125441553705","0.7830080909941931","0.2537790940241126","1","","","","","",""
"","do_trial","386","2289214","0.0-361.0-0.0","577.5999999940395","","","","50","0,0,0","6","blank","314","null","0.3654359161525255","0.6649967655856144","0.11047386402061106","0","","","","","",""
"","do_trial","387","2293288","0.0-362.0-0.0","463.59999999403954","","","","51","1,1,0","6","blank","315","null","0.31837133503719117","0.8665099186381761","0.07136473392398231","0","","","","","",""
"","do_recog","388","2296374","0.0-363.0-0.0","1567.0999999940395","","","","55","","","","316","probe-254","","","","","0","[object Object]","null","null","0",""
"","do_trial","389","2300581","0.0-364.0-0.0","595.7000000178814","","","","49","0,1,0","6","blank","317","null","0.3300802824276646","0.8811555102978145","0.12608785217979954","0","","","","","",""
"","do_recog","390","2303283","0.0-365.0-0.0","1179.4000000059605","","","","56","","","","318","probe-54","","","","","1","[object Object]","81","2","1",""
"","do_trial","391","2307558","0.0-366.0-0.0","668.7000000178814","","","","50","0,0,0","6","blank","319","null","0.3273018963963312","0.7213497971218825","0.19077506004065747","0","","","","","",""
"","do_recog","392","2310452","0.0-367.0-0.0","1375.4000000059605","","","","55","","","","320","probe-229","","","","","1","[object Object]","43","1","1",""
"","do_trial","393","2314759","0.0-368.0-0.0","696.0999999940395","","","","51","0,1,0","6","blank","321","null","0.46950120084447805","0.7193897506995188","0.10470787837852381","0","","","","","",""
"","do_trial","394","2318846","0.0-369.0-0.0","474.7999999821186","","","","51","0,1,0","6","blank","322","null","0.3566772739680914","0.757784359199009","0.22143813875558904","0","","","","","",""
"","do_trial","395","2323009","0.0-370.0-0.0","553.8000000119209","","","","49","0,1,0","6","blank","323","null","0.32906526878695075","0.6016359175172005","0.16630767025837817","0","","","","","",""
"","do_trial","396","2327005","0.0-371.0-0.0","387.90000000596046","","","","49","0,1,0","6","blank","324","null","0.4411358285035641","0.7702174959349571","0.1171973680864698","0","","","","","",""
"","do_recog","397","2330428","0.0-372.0-0.0","1904.699999988079","","","","54","","","","325","probe-161","","","","","1","[object Object]","126","3","0",""
"","do_trial","398","2334542","0.0-373.0-0.0","499.80000001192093","","","","50","1,0,0","6","blank","326","null","0.4767363547842575","0.7258325966945464","0.10753352339821547","0","","","","","",""
"","do_recog","399","2337319","0.0-374.0-0.0","1256.9000000059605","","","","55","","","","327","probe-112","","","","","1","[object Object]","201","5","1",""
"","do_trial","400","2341387","0.0-375.0-0.0","459.5","","","","51","1,1,0","6","blank","328","null","0.48062096997765574","0.69139000930369","0.13597824763999775","0","","","","","",""
"","do_recog","401","2343938","0.0-376.0-0.0","1036.300000011921","","","","55","","","","329","probe-205","","","","","1","[object Object]","168","4","1",""
"","do_trial","402","2348021","0.0-377.0-0.0","474.30000001192093","","","","50","0,1,0","6","blank","330","null","0.37080930802909806","0.6609882671119075","0.06389344580706154","1","","","","","",""
"","do_recog","403","2350688","0.0-378.0-0.0","1152.0999999940395","","","","56","","","","331","probe-129","","","","","1","[object Object]","44","1","1",""
"","do_trial","404","2354684","0.0-379.0-0.0","383.09999999403954","","","","50","0,1,0","6","blank","332","null","0.274722079184095","0.7516307988873188","0.08620435590393712","1","","","","","",""
"","do_trial","405","2358991","0.0-380.0-0.0","694","","","","50","0,1,0","6","blank","333","null","0.3544518423212423","0.869930661252523","0.17198707730723004","1","","","","","",""
"","do_trial","406","2363014","0.0-381.0-0.0","413.2000000178814","","","","51","0,1,0","6","blank","334","null","0.47835722476440123","1","0.07505142867324864","0","","","","","",""
"","do_recog","407","2366156","0.0-382.0-0.0","1623.0999999940395","","","","55","","","","335","probe-87","","","","","1","[object Object]","83","2","1",""
"","do_trial","408","2370086","0.0-383.0-0.0","303.60000002384186","","","","50","0,1,0","6","blank","336","null","0.5188285739775182","0.812751453576981","0.23031033373507329","1","","","","","",""
"","do_recog","409","2372689","0.0-384.0-0.0","1086.800000011921","","","","55","","","","337","probe-89","","","","","1","[object Object]","123","3","1",""
"","do_trial","410","2376601","0.0-385.0-0.0","304.90000000596046","","","","49","0,1,1","6","blank","338","null","0.3936352533631452","0.8544785576990782","0.20128730232597428","0","","","","","",""
"","do_trial","411","2380594","0.0-386.0-0.0","383.19999998807907","","","","50","0,1,0","6","blank","339","null","0.27896401401408566","0.730551774262602","0.2464722909461257","1","","","","","",""
"","do_recog","412","2383956","0.0-387.0-0.0","1842.5","","","","54","","","","340","probe-194","","","","","1","[object Object]","162","4","0",""
"","do_trial","413","2387844","0.0-388.0-0.0","266.80000001192093","","","","51","1,0,0","6","blank","341","null","0.3257633442620139","0.7608210545135694","0.431856519543549","0","","","","","",""
"","do_recog","414","2391041","0.0-389.0-0.0","1679.5","","","","54","","","","342","probe-250","","","","","0","[object Object]","null","null","1",""
"","do_trial","415","2395043","0.0-390.0-0.0","386.7999999821186","","","","50","1,1,1","6","blank","343","null","0.22190752123314872","0.9439953531051584","0.2974816604777649","1","","","","","",""
"","do_trial","416","2399386","0.0-391.0-0.0","713.6999999880791","","","","50","0,0,0","6","blank","344","null","0.2694225056179591","0.8936111747741485","0.05967247403926232","0","","","","","",""
"","do_trial","417","2403484","0.0-392.0-0.0","488.09999999403954","","","","49","1,1,0","6","blank","345","null","0.2924103910977487","0.831191620250753","0.16069413398743418","1","","","","","",""
"","do_trial","418","2407999","0.0-393.0-0.0","901.4000000059605","","","","49","0,0,0","6","blank","346","null","0.39256559680353675","0.6054867229781403","0.126685368844899","0","","","","","",""
"","do_trial","419","2412051","0.0-394.0-0.0","435.59999999403954","","","","51","0,1,0","6","blank","347","null","0.38626848107277606","0.666983848048098","0.05546581520916099","0","","","","","",""
"","do_trial","420","2416227","0.0-395.0-0.0","563.4000000059605","","","","50","1,1,0","6","blank","348","null","0.5956318596993277","0.6744263016754922","0.09797539901409559","1","","","","","",""
"","do_recog","421","2418967","0.0-396.0-0.0","1222.5999999940395","","","","56","","","","349","probe-103","","","","","1","[object Object]","45","1","1",""
"","do_trial","422","2423492","0.0-397.0-0.0","903.5","","","","50","1,0,0","6","blank","350","null","0.7295622760050504","0.574878344875369","0.08355942176460605","0","","","","","",""
"","do_trial","423","2428188","0.0-398.0-0.0","1084.5999999940395","","","","50","1,1,0","6","blank","351","null","0.8723795356312958","0.5642637009809028","0.13232854700778762","1","","","","","",""
"","do_trial","424","2432247","0.0-399.0-0.0","444.90000000596046","","","","51","1,1,0","6","blank","352","null","0.8860958877440035","0.41150923893609587","0.33499329065003586","0","","","","","",""
"","do_recog","425","2435105","0.0-400.0-0.0","1337.699999988079","","","","56","","","","353","probe-61","","","","","1","[object Object]","204","5","1",""
"","do_trial","426","2439840","0.0-401.0-0.0","1124.5","","","","51","1,1,0","6","blank","354","null","0.7591250951193045","0.31119064909051125","0.25735022657716833","0","","","","","",""
"","do_recog","427","2442739","0.0-402.0-0.0","1377.7999999821186","","","","56","","","","355","probe-50","","","","","1","[object Object]","120","3","1",""
"","do_trial","428","2447396","0.0-403.0-0.0","1041.5","","","","49","0,0,0","6","blank","356","null","0.8561354730540552","0.34330385422258297","0.12990811334115665","0","","","","","",""
"","do_trial","429","2451683","0.0-404.0-0.0","672.5999999940395","","","","51","1,1,0","6","blank","357","null","0.8804307725961511","0.2714413772604046","0.208657033985843","0","","","","","",""
"","do_recog","430","2455320","0.0-405.0-0.0","2122.7000000178814","","","","54","","","","358","probe-82","","","","","1","[object Object]","84","2","0",""
"","do_trial","431","2460148","0.0-406.0-0.0","1208.0999999940395","","","","51","1,0,0","6","blank","359","null","0.8513570146396279","0.31830946777278557","0.21463811820451426","0","","","","","",""
"","do_trial","432","2464929","0.0-407.0-0.0","1156","","","","50","1,1,0","6","blank","360","null","0.7731713196003003","0.3234067637700431","0.26657975620321084","1","","","","","",""
"","do_trial","433","2469193","0.0-408.0-0.0","638.2000000178814","","","","51","1,0,0","6","blank","361","null","0.7978446340997831","0.4064263974468711","0.08467633640187462","0","","","","","",""
"","do_trial","434","2473865","0.0-409.0-0.0","1036.7999999821186","","","","49","1,0,0","6","blank","362","null","0.7521972456829041","0.39125989320356164","0.091655077697284","1","","","","","",""
"","do_recog","435","2476681","0.0-410.0-0.0","1286.4000000059605","","","","55","","","","363","probe-80","","","","","1","[object Object]","169","4","1",""
"","do_trial","436","2480712","0.0-411.0-0.0","424.2000000178814","","","","50","0,0,1","6","blank","364","null","0.6217635456550983","0.3474328575937476","0.11907598417466174","0","","","","","",""
"","do_recog","437","2483544","0.0-412.0-0.0","1310.6000000238419","","","","55","","","","365","probe-07","","","","","1","[object Object]","121","3","1",""
"","do_trial","438","2487388","0.0-413.0-0.0","226.59999999403954","","","","50","1,0,0","6","blank","366","null","0.695243319476535","0.3064315809020119","0.06601637185344941","0","","","","","",""
"","do_trial","439","2491700","0.0-414.0-0.0","693.5999999940395","","","","50","1,0,1","6","blank","367","null","0.7845126534605987","0.40456175317489057","0.1029413463584883","0","","","","","",""
"","do_trial","440","2495657","0.0-415.0-0.0","343.69999998807907","","","","51","1,0,0","6","blank","368","null","0.7575516396114813","0.41215567868464803","0.09415834863675418","0","","","","","",""
"","do_trial","441","2499642","0.0-416.0-0.0","368.2999999821186","","","","49","1,0,0","6","blank","369","null","0.8469474852631746","0.28002861642774185","0.13492259065829967","1","","","","","",""
"","do_trial","442","2503706","0.0-417.0-0.0","447.7000000178814","","","","49","1,0,0","6","blank","370","null","0.7260940200680528","0.36237523961979695","0.07836794583914658","1","","","","","",""
"","do_trial","443","2507672","0.0-418.0-0.0","350.69999998807907","","","","49","1,1,0","6","blank","371","null","0.8355216665915319","0.39339169115885747","0.09146270998713125","1","","","","","",""
"","do_trial","444","2511769","0.0-419.0-0.0","485.09999999403954","","","","49","1,1,0","6","blank","372","null","0.9064557169226756","0.5182580436832281","0.10444465627290679","1","","","","","",""
"","do_recog","445","2515122","0.0-420.0-0.0","1831.800000011921","","","","55","","","","373","probe-186","","","","","1","[object Object]","85","2","1",""
"","do_trial","446","2519322","0.0-421.0-0.0","573.7000000178814","","","","50","0,0,1","6","blank","374","null","0.8599474495933898","0.47493148377059613","0.07728341777398266","0","","","","","",""
"","do_recog","447","2523270","0.0-422.0-0.0","2428.699999988079","","","","54","","","","375","probe-70","","","","","1","[object Object]","207","5","0",""
"","do_trial","448","2527202","0.0-423.0-0.0","320.09999999403954","","","","49","1,0,0","6","blank","376","null","1","0.4183278884141261","0.13394838226558858","1","","","","","",""
"","do_trial","449","2531247","0.0-424.0-0.0","430.59999999403954","","","","50","0,1,0","6","blank","377","null","0.8055496231684004","0.3993682455404599","0.20809639285269488","1","","","","","",""
"","do_trial","450","2536434","0.0-425.0-0.0","1567.3999999761581","","","","51","1,0,0","6","blank","378","null","0.7849173657341914","0.4367999090238728","0.271857140474056","0","","","","","",""
"","do_trial","451","2540713","0.0-426.0-0.0","660.2000000178814","","","","49","1,0,1","6","blank","379","null","0.6193348066489328","0.4678258704897204","0.19613972009417777","1","","","","","",""
"","do_trial","452","2545486","0.0-427.0-0.0","1163.5","","","","50","1,1,0","6","blank","380","null","0.7655111017454529","0.4286337932137229","0.2576978375891558","1","","","","","",""
"","do_trial","453","2549680","0.0-428.0-0.0","567.3999999761581","","","","50","1,0,0","6","blank","381","null","0.7587796111883571","0.3699388959646472","0.1662418123618653","0","","","","","",""
"","do_recog","454","2552737","0.0-429.0-0.0","1540.300000011921","","","","56","","","","382","probe-211","","","","","1","[object Object]","86","2","1",""
"","do_trial","455","2557545","0.0-430.0-0.0","1170.9000000059605","","","","49","1,0,0","6","blank","383","null","0.8507875884494986","0.46697880282996723","0.052373890851928645","1","","","","","",""
"","do_recog","456","2560162","0.0-431.0-0.0","1098.800000011921","","","","56","","","","384","probe-159","","","","","1","[object Object]","208","5","1",""
"","do_trial","457","2564968","0.0-432.0-0.0","1183.2000000178814","","","","50","1,0,0","6","blank","385","null","0.8539930962146975","0.41671874358158034","0.08883490051351849","0","","","","","",""
"","do_recog","458","2567963","0.0-433.0-0.0","1477.5","","","","56","","","","386","probe-121","","","","","1","[object Object]","124","3","1",""
"","do_trial","459","2572575","0.0-434.0-0.0","976","","","","50","1,0,0","6","blank","387","null","0.8789567343204877","0.30409766398535437","0.11245705469794459","0","","","","","",""
"","do_trial","460","2577184","0.0-435.0-0.0","990.5999999940395","","","","51","1,0,0","6","blank","388","null","0.8600266991603851","0.23955382637753211","0.17995591066329714","0","","","","","",""
"","do_trial","461","2581281","0.0-436.0-0.0","480.40000000596046","","","","51","0,1,0","6","blank","389","null","0.6813655619408229","0.4086057251407312","0.19726993521779862","0","","","","","",""
"","do_trial","462","2585945","0.0-437.0-0.0","1050.699999988079","","","","49","0,1,0","6","blank","390","null","0.6287930030700498","0.4870349652659455","0.3649732793187816","0","","","","","",""
"","do_trial","463","2590981","0.0-438.0-0.0","1412.5999999940395","","","","50","1,1,1","6","blank","391","null","0.5392038800389775","0.701439560205647","0.334978530311288","1","","","","","",""
"","do_trial","464","2595806","0.0-439.0-0.0","1202.5999999940395","","","","50","0,0,0","6","blank","392","null","0.4985288576053175","0.7276195775136536","0.14034282844759152","0","","","","","",""
"","do_recog","465","2598692","0.0-440.0-0.0","1365.8999999761581","","","","56","","","","393","probe-131","","","","","1","[object Object]","46","1","1",""
"","do_trial","466","2603678","0.0-441.0-0.0","1376.0999999940395","","","","49","0,1,1","6","blank","394","null","0.4341963554613464","0.6961371924612152","0.15375268711203832","0","","","","","",""
"","do_recog","467","2607453","0.0-442.0-0.0","2259.5","","","","55","","","","395","probe-243","","","","","0","[object Object]","null","null","0",""
"","do_trial","468","2612811","0.0-443.0-0.0","1745","","","","49","0,1,0","6","blank","396","null","0.29478074399281484","0.8252030687587926","0.099860035470669","0","","","","","",""
"","do_recog","469","2615602","0.0-444.0-0.0","1275","","","","56","","","","397","probe-152","","","","","1","[object Object]","87","2","1",""
"","do_trial","470","2620535","0.0-445.0-0.0","1318.5","","","","51","0,1,0","6","blank","398","null","0.28314844698737396","0.8543334587065334","0.19904106755856987","0","","","","","",""
"","do_trial","471","2625261","0.0-446.0-0.0","1100.0999999940395","","","","51","0,1,0","6","blank","399","null","0.34678630414713013","0.9261368515942466","0.2891098429274917","0","","","","","",""
"","do_recog","472","2628720","0.0-447.0-0.0","1943.800000011921","","","","56","","","","400","probe-71","","","","","1","[object Object]","167","4","1",""
"","do_trial","473","2633916","0.0-448.0-0.0","1576.4000000059605","","","","50","0,1,1","6","blank","401","null","0.27872559900424304","0.8592733135464325","0.45428583734587763","1","","","","","",""
"","do_trial","474","2639407","0.0-449.0-0.0","1871.4000000059605","","","","49","1,1,0","6","blank","402","null","0.3442273764835993","0.7718462170235822","0.36643291117846843","1","","","","","",""
"","do_trial","475","2644679","0.0-450.0-0.0","1644.0999999940395","","","","49","0,1,0","6","blank","403","null","0.16624584757491206","0.72339162704862","0.09538421137396626","0","","","","","",""
"","do_recog","476","2648009","0.0-451.0-0.0","1811.5999999940395","","","","55","","","","404","probe-151","","","","","1","[object Object]","82","2","1",""
"","do_trial","477","2653015","0.0-452.0-0.0","1393.699999988079","","","","50","0,1,0","6","blank","405","null","0.35004817162434315","0.6428349945864641","0.10324390623888911","1","","","","","",""
"","do_recog","478","2656288","0.0-453.0-0.0","1756.7000000178814","","","","55","","","","406","probe-241","","","","","0","[object Object]","null","null","0",""
"","do_trial","479","2661525","0.0-454.0-0.0","1628","","","","50","1,1,0","6","blank","407","null","0.2944090356330009","0.808950965307746","0.12159064614243648","1","","","","","",""
"","do_recog","480","2664869","0.0-455.0-0.0","1815.5999999940395","","","","54","","","","408","probe-252","","","","","0","[object Object]","null","null","1",""
