"success","trial_type","trial_index","time_elapsed","internal_node_id","interactions","blur_events","focus_events","fullscreenenter_events","fullscreenexit_events"
"true","fullscreen","0","2430","0.0-0.0","""event"",""trial"",""time""
""fullscreenenter"",""0"",""1488""
","
","
","""event"",""trial"",""time""
""fullscreenenter"",""0"",""1488""
","
"
"","pavlovia","1","2432","0.0-1.0","""event"",""trial"",""time""
""fullscreenenter"",""0"",""1488""
""fullscreenexit"",""2"",""20325""
""blur"",""2"",""26329""
""focus"",""2"",""26372""
","""event"",""trial"",""time""
""blur"",""2"",""26329""
","""event"",""trial"",""time""
""focus"",""2"",""26372""
","""event"",""trial"",""time""
""fullscreenenter"",""0"",""1488""
","""event"",""trial"",""time""
""fullscreenexit"",""2"",""20325""
"
