"success","trial_type","trial_index","time_elapsed","internal_node_id","interactions","blur_events","focus_events","fullscreenenter_events","fullscreenexit_events","rt","stimulus","key_press","subject_id","participant_id","age","gender","prompt","response","choice_outcomes","context_n","context_img_id","trial_n","probe_img_id","pR_red","pR_white","pR_black","outcome","contextArray_ind","validImageProbes","invalidImageProbes","pRew_Red","pRew_White","pRew_Black","availableForMemProbe","choice_blocks"
"true","fullscreen","0","1783","0.0-0.0","""event"",""trial"",""time""
""fullscreenenter"",""0"",""820""
","
","
","""event"",""trial"",""time""
""fullscreenenter"",""0"",""820""
","
","","","","","","","","","","","","","","","","","","","","","","","","","",""
"","pavlovia","1","1786","0.0-1.0","""event"",""trial"",""time""
""fullscreenenter"",""0"",""820""
","
","
","""event"",""trial"",""time""
""fullscreenenter"",""0"",""820""
","
","","","","","","","","","","","","","","","","","","","","","","","","","",""
"","instruc1","2","46867","0.0-2.0","""event"",""trial"",""time""
""fullscreenenter"",""0"",""820""
","
","
","""event"",""trial"",""time""
""fullscreenenter"",""0"",""820""
","
","null","run_exp/static/audio/clip_1_welcome.m4a","null","0","0","0","female","<div class='center'><p>Welcome! This is the first part of the study. It will last ~30 minutes. In part 1 and part 2 of the study, you are the head captain of a pirate ship traveling around the world to different islands. You will play a few different games throughout these two parts. Here is an overview of them:</p><br><p>Part 1 (today)</p><p>1. Instructions, practice game, and quiz</p><p>2. Pick a pirate game on 6 different islands</p><br><p>Part 2 (tomorrow)</p><p>3. Pick a pirate game and memory game</p><p>4. Where did you see this ship? </p></div>","","","","","","","","","","","","","","","","","",""
"","html-keyboard-response","3","49388","0.0-3.0","""event"",""trial"",""time""
""fullscreenenter"",""0"",""820""
","
","
","""event"",""trial"",""time""
""fullscreenenter"",""0"",""820""
","
","2520.530000096187","<div class='center'><p>Welcome! This is the first part of the study. It will last ~30 minutes. In part 1 and part 2 of the study, you are the head captain of a pirate ship traveling around the world to different islands. You will play a few different games throughout these two parts. Here is an overview of them:</p><br><p>Part 1 (today)</p><p>1. Instructions, practice game, and quiz</p><p>2. Pick a pirate game on 6 different islands</p><br><p>Part 2 (tomorrow)</p><p>3. Pick a pirate game and memory game</p><p>4. Where did you see this ship? </p><p><b>[Press the space bar to continue]</b></p></div>","32","","","","","","","","","","","","","","","","","","","","","","",""
"","instruc2","4","54693","0.0-4.0","""event"",""trial"",""time""
""fullscreenenter"",""0"",""820""
","
","
","""event"",""trial"",""time""
""fullscreenenter"",""0"",""820""
","
","null","run_exp/static/audio/clip_2_different_places.m4a","null","","","","","<div class='center'><p>Today, you’ll visit these 6 islands on your journey. You'll be able to see these islands from your ship.</p><p><img src='run_exp/static/images/contexts/all_contexts.png' height='500'></p></div>","","","","","","","","","","","","","","","","","",""
"","html-keyboard-response","5","57014","0.0-5.0","""event"",""trial"",""time""
""fullscreenenter"",""0"",""820""
","
","
","""event"",""trial"",""time""
""fullscreenenter"",""0"",""820""
","
","2319.9150001164526","<div class='center'><p>Today, you’ll visit these 6 islands on your journey. You'll be able to see these islands from your ship.</p><p><img src='run_exp/static/images/contexts/all_contexts.png' height='500'></p><p><b>[Press the space bar to continue]</b></p></div>","32","","","","","","","","","","","","","","","","","","","","","","",""
"","instruc3","6","66721","0.0-6.0","""event"",""trial"",""time""
""fullscreenenter"",""0"",""820""
","
","
","""event"",""trial"",""time""
""fullscreenenter"",""0"",""820""
","
","null","run_exp/static/audio/clip_3_goal_of_game_1.m4a","null","","","","","<div class='center'><p> The pirates on your ship will rob other ships as they leave the island.</p> These ships have just sold their goods to the islanders, so they will be filled with lots and lots of gold.</p><p><img src='run_exp/static/images/tutorial/ship_center.png' height='400'></p></div>","","","","","","","","","","","","","","","","","",""
"","html-keyboard-response","7","68127","0.0-7.0","""event"",""trial"",""time""
""fullscreenenter"",""0"",""820""
","
","
","""event"",""trial"",""time""
""fullscreenenter"",""0"",""820""
","
","1404.0250000543892","<div class='center'><p> The pirates on your ship will rob other ships as they leave the island.</p> These ships have just sold their goods to the islanders, so they will be filled with lots and lots of gold.</p><p><img src='run_exp/static/images/tutorial/ship_center.png' height='400'></p><p><b>[Press the space bar to continue]</b></p></div>","32","","","","","","","","","","","","","","","","","","","","","","",""
"","instruc4","8","96118","0.0-8.0","""event"",""trial"",""time""
""fullscreenenter"",""0"",""820""
","
","
","""event"",""trial"",""time""
""fullscreenenter"",""0"",""820""
","
","null","run_exp/static/audio/clip_4_goal_of_game_2.m4a","null","","","","","<div class='center'><p>As the head captain, you do not have to rob any ships yourself. Another pirate will be doing the robbing for you. First, you will choose a pirate to rob the next ship.</p><p><img src='run_exp/static/images/tutorial/pirates_all_crop.png' height='200'></p><p>Then, you'll see if the pirate successfully robbed the ship of their gold. If they were successful, then you'll get a stack of gold coins like this:</p><p><img src='run_exp/static/images/tutorial/reward.png' height='150'></p><p> If they were <b>not</b> successful, then you'll get no gold coins, and you'll see a big red x like this: </p><p><img src='run_exp/static/images/tutorial/reward_no.png' height='150'></p><p> How much bonus money you make is based on how many gold coins you collect.</p><div>","","","","","","","","","","","","","","","","","",""
"","html-keyboard-response","9","98205","0.0-9.0","""event"",""trial"",""time""
""fullscreenenter"",""0"",""820""
","
","
","""event"",""trial"",""time""
""fullscreenenter"",""0"",""820""
","
","2085.81000007689","<div class='center'><p>As the head captain, you do not have to rob any ships yourself. Another pirate will be doing the robbing for you. First, you will choose a pirate to rob the next ship.</p><p><img src='run_exp/static/images/tutorial/pirates_all_crop.png' height='200'></p><p>Then, you'll see if the pirate successfully robbed the ship of their gold. If they were successful, then you'll get a stack of gold coins like this:</p><p><img src='run_exp/static/images/tutorial/reward.png' height='150'></p><p> If they were <b>not</b> successful, then you'll get no gold coins, and you'll see a big red x like this: </p><p><img src='run_exp/static/images/tutorial/reward_no.png' height='150'></p><p> How much bonus money you make is based on how many gold coins you collect.</p<p><b>[Press the space bar to continue]</b></p></div>","32","","","","","","","","","","","","","","","","","","","","","","",""
"","instruc5","10","111012","0.0-10.0","""event"",""trial"",""time""
""fullscreenenter"",""0"",""820""
","
","
","""event"",""trial"",""time""
""fullscreenenter"",""0"",""820""
","
","12805.38500007242","run_exp/static/audio/clip_5_probabilistic.m4a","49","","","","","<div class='center'><p>Even the most skilled pirate can not rob EVERY ship.</p><p> Some ships will have very strong protections against pirate attacks.</p><p> Blue beard, here, is very, very good at robbing ships, but he won't be successful every time he tries to rob one.</p><p> You can press the <b>‘1’</b> key on the keyboard to choose him.</p><p> Try choosing him 10 times to see how often he succeeds at robbing a ship. </p><p><img src='run_exp/static/images/tutorial/blue.png' height='500'></p></div>","","","","","","","","","","","","","","","","","",""
"","html-keyboard-response","11","112515","0.0-11.0","""event"",""trial"",""time""
""fullscreenenter"",""0"",""820""
","
","
","""event"",""trial"",""time""
""fullscreenenter"",""0"",""820""
","
","null","<div class='center'><p><img src='run_exp/static/images/tutorial/blue_win.png' height='500'></p></div>","null","","","","","","","","","","","","","","","","","","","","","","",""
"","html-keyboard-response","12","114541","0.0-12.0","""event"",""trial"",""time""
""fullscreenenter"",""0"",""820""
","
","
","""event"",""trial"",""time""
""fullscreenenter"",""0"",""820""
","
","2025.2800001762807","<div class='center'><img src='run_exp/static/images/tutorial/blue.png' height='500'></p></div>","49","","","","","","","","","","","","","","","","","","","","","","",""
"","html-keyboard-response","13","116043","0.0-13.0","""event"",""trial"",""time""
""fullscreenenter"",""0"",""820""
","
","
","""event"",""trial"",""time""
""fullscreenenter"",""0"",""820""
","
","null","<div class='center'><p><img src='run_exp/static/images/tutorial/blue_win.png' height='500'></p></div>","null","","","","","","","","","","","","","","","","","","","","","","",""
"","html-keyboard-response","14","117386","0.0-14.0","""event"",""trial"",""time""
""fullscreenenter"",""0"",""820""
","
","
","""event"",""trial"",""time""
""fullscreenenter"",""0"",""820""
","
","1341.6200000792742","<div class='center'><img src='run_exp/static/images/tutorial/blue.png' height='500'></p></div>","49","","","","","","","","","","","","","","","","","","","","","","",""
"","html-keyboard-response","15","118888","0.0-15.0","""event"",""trial"",""time""
""fullscreenenter"",""0"",""820""
","
","
","""event"",""trial"",""time""
""fullscreenenter"",""0"",""820""
","
","null","<div class='center'><p><img src='run_exp/static/images/tutorial/blue_win.png' height='500'></p></div>","null","","","","","","","","","","","","","","","","","","","","","","",""
"","html-keyboard-response","16","119214","0.0-16.0","""event"",""trial"",""time""
""fullscreenenter"",""0"",""820""
","
","
","""event"",""trial"",""time""
""fullscreenenter"",""0"",""820""
","
","325.08999994024634","<div class='center'><img src='run_exp/static/images/tutorial/blue.png' height='500'></p></div>","49","","","","","","","","","","","","","","","","","","","","","","",""
"","html-keyboard-response","17","120718","0.0-17.0","""event"",""trial"",""time""
""fullscreenenter"",""0"",""820""
","
","
","""event"",""trial"",""time""
""fullscreenenter"",""0"",""820""
","
","null","<div class='center'><p><img src='run_exp/static/images/tutorial/blue_no_win.png' height='500'></p></div>","null","","","","","","","","","","","","","","","","","","","","","","",""
"","html-keyboard-response","18","121038","0.0-18.0","""event"",""trial"",""time""
""fullscreenenter"",""0"",""820""
","
","
","""event"",""trial"",""time""
""fullscreenenter"",""0"",""820""
","
","319.96500003151596","<div class='center'><img src='run_exp/static/images/tutorial/blue.png' height='500'></p></div>","49","","","","","","","","","","","","","","","","","","","","","","",""
"","html-keyboard-response","19","122540","0.0-19.0","""event"",""trial"",""time""
""fullscreenenter"",""0"",""820""
","
","
","""event"",""trial"",""time""
""fullscreenenter"",""0"",""820""
","
","null","<div class='center'><p><img src='run_exp/static/images/tutorial/blue_win.png' height='500'></p></div>","null","","","","","","","","","","","","","","","","","","","","","","",""
"","html-keyboard-response","20","122586","0.0-20.0","""event"",""trial"",""time""
""fullscreenenter"",""0"",""820""
","
","
","""event"",""trial"",""time""
""fullscreenenter"",""0"",""820""
","
","45.209999894723296","<div class='center'><img src='run_exp/static/images/tutorial/blue.png' height='500'></p></div>","49","","","","","","","","","","","","","","","","","","","","","","",""
"","html-keyboard-response","21","124092","0.0-21.0","""event"",""trial"",""time""
""fullscreenenter"",""0"",""820""
","
","
","""event"",""trial"",""time""
""fullscreenenter"",""0"",""820""
","
","null","<div class='center'><p><img src='run_exp/static/images/tutorial/blue_win.png' height='500'></p></div>","null","","","","","","","","","","","","","","","","","","","","","","",""
"","html-keyboard-response","22","124403","0.0-22.0","""event"",""trial"",""time""
""fullscreenenter"",""0"",""820""
","
","
","""event"",""trial"",""time""
""fullscreenenter"",""0"",""820""
","
","309.5100000500679","<div class='center'><img src='run_exp/static/images/tutorial/blue.png' height='500'></p></div>","49","","","","","","","","","","","","","","","","","","","","","","",""
"","html-keyboard-response","23","125907","0.0-23.0","""event"",""trial"",""time""
""fullscreenenter"",""0"",""820""
","
","
","""event"",""trial"",""time""
""fullscreenenter"",""0"",""820""
","
","null","<div class='center'><p><img src='run_exp/static/images/tutorial/blue_win.png' height='500'></p></div>","null","","","","","","","","","","","","","","","","","","","","","","",""
"","html-keyboard-response","24","126156","0.0-24.0","""event"",""trial"",""time""
""fullscreenenter"",""0"",""820""
","
","
","""event"",""trial"",""time""
""fullscreenenter"",""0"",""820""
","
","248.11499984934926","<div class='center'><img src='run_exp/static/images/tutorial/blue.png' height='500'></p></div>","49","","","","","","","","","","","","","","","","","","","","","","",""
"","html-keyboard-response","25","127660","0.0-25.0","""event"",""trial"",""time""
""fullscreenenter"",""0"",""820""
","
","
","""event"",""trial"",""time""
""fullscreenenter"",""0"",""820""
","
","null","<div class='center'><p><img src='run_exp/static/images/tutorial/blue_no_win.png' height='500'></p></div>","null","","","","","","","","","","","","","","","","","","","","","","",""
"","html-keyboard-response","26","127663","0.0-26.0","""event"",""trial"",""time""
""fullscreenenter"",""0"",""820""
","
","
","""event"",""trial"",""time""
""fullscreenenter"",""0"",""820""
","
","1.0549998842179775","<div class='center'><img src='run_exp/static/images/tutorial/blue.png' height='500'></p></div>","49","","","","","","","","","","","","","","","","","","","","","","",""
"","html-keyboard-response","27","129169","0.0-27.0","""event"",""trial"",""time""
""fullscreenenter"",""0"",""820""
","
","
","""event"",""trial"",""time""
""fullscreenenter"",""0"",""820""
","
","null","<div class='center'><p><img src='run_exp/static/images/tutorial/blue_win.png' height='500'></p></div>","null","","","","","","","","","","","","","","","","","","","","","","",""
"","html-keyboard-response","28","129189","0.0-28.0","""event"",""trial"",""time""
""fullscreenenter"",""0"",""820""
","
","
","""event"",""trial"",""time""
""fullscreenenter"",""0"",""820""
","
","18.350000027567148","<div class='center'><img src='run_exp/static/images/tutorial/blue.png' height='500'></p></div>","49","","","","","","","","","","","","","","","","","","","","","","",""
"","html-keyboard-response","29","130690","0.0-29.0","""event"",""trial"",""time""
""fullscreenenter"",""0"",""820""
","
","
","""event"",""trial"",""time""
""fullscreenenter"",""0"",""820""
","
","null","<div class='center'><p><img src='run_exp/static/images/tutorial/blue_win.png' height='500'></p></div>","null","","","","","","","","","","","","","","","","","","","","","","",""
"","instruc6","30","136063","0.0-30.0","""event"",""trial"",""time""
""fullscreenenter"",""0"",""820""
","
","
","""event"",""trial"",""time""
""fullscreenenter"",""0"",""820""
","
","null","run_exp/static/audio/clip_6_blue_beard_outcome.m4a","null","","","","","<div class='center'><p> See, he succeeded in robbing the ships most of the time but not every time. </p></div>","","","","","","","","","","","","","","","","","",""
"","html-keyboard-response","31","146261","0.0-31.0","""event"",""trial"",""time""
""fullscreenenter"",""0"",""820""
","
","
","""event"",""trial"",""time""
""fullscreenenter"",""0"",""820""
","
","10197.354999836534","<div class='center'><p> See, he succeeded in robbing the ships most of the time but not every time. </p><p><b>[Press the space bar to continue]</b></p></div>","32","","","","","","","","","","","","","","","","","","","","","","",""
"","audio-keyboard-response","32","151101","0.0-32.0","""event"",""trial"",""time""
""fullscreenenter"",""0"",""820""
","
","
","""event"",""trial"",""time""
""fullscreenenter"",""0"",""820""
","
","4838.705000001937","run_exp/static/audio/clip_7_pick_pirate.m4a","49","","","","","","","","","","","","","","","","","","","","","","",""
"","audio-keyboard-response","33","151972","0.0-33.0-0.0","""event"",""trial"",""time""
""fullscreenenter"",""0"",""820""
","
","
","""event"",""trial"",""time""
""fullscreenenter"",""0"",""820""
","
","870.0549998320639","run_exp/static/audio/clip_8_chosen_pirate_win.m4a","32","","","","","","","","","","","","","","","","","","","","","","",""
"","audio-keyboard-response","34","152656","0.0-33.0-1.0","""event"",""trial"",""time""
""fullscreenenter"",""0"",""820""
","
","
","""event"",""trial"",""time""
""fullscreenenter"",""0"",""820""
","
","682.9049999359995","run_exp/static/audio/clip_9_pick_a_pirate_again.m4a","49","","","","","","","","","","","","","","","","","","","","","","",""
"","audio-keyboard-response","35","154135","0.0-34.0-0.0","""event"",""trial"",""time""
""fullscreenenter"",""0"",""820""
","
","
","""event"",""trial"",""time""
""fullscreenenter"",""0"",""820""
","
","1477.889999980107","run_exp/static/audio/clip_10_chosen_pirate_loss.m4a","32","","","","","","","","","","","","","","","","","","","","","","",""
"","instruc9","36","159645","0.0-35.0-0.0","""event"",""trial"",""time""
""fullscreenenter"",""0"",""820""
","
","
","""event"",""trial"",""time""
""fullscreenenter"",""0"",""820""
","
","null","run_exp/static/audio/clip_11_time_out.m4a","null","","","","","<div class='center'><p>If you don’t make your choice fast enough, you’ll have to wait a few seconds before you can make another one. </p><p><img src='run_exp/static/images/miscellaneous/hurry_up.png' height='500'></p></div>","","","","","","","","","","","","","","","","","",""
"","html-keyboard-response","37","160642","0.0-35.0-1.0","""event"",""trial"",""time""
""fullscreenenter"",""0"",""820""
""fullscreenexit"",""38"",""187307""
""blur"",""38"",""189019""
","""event"",""trial"",""time""
""blur"",""38"",""189019""
","
","""event"",""trial"",""time""
""fullscreenenter"",""0"",""820""
","""event"",""trial"",""time""
""fullscreenexit"",""38"",""187307""
","996.3899999856949","<div class='center'><p>If you don’t make your choice fast enough, you’ll have to wait a few seconds before you can make another one. </p><p><img src='run_exp/static/images/miscellaneous/hurry_up.png' height='500'></p><p><b>[Press the space bar to continue]</b></p></div>","32","","","","","","","","","","","","","","","","","","","","","","",""
"","instruc10","38","199745","0.0-35.0-2.0","""event"",""trial"",""time""
""fullscreenenter"",""0"",""820""
""fullscreenexit"",""38"",""187307""
""blur"",""38"",""189019""
""focus"",""39"",""459127""
","""event"",""trial"",""time""
""blur"",""38"",""189019""
","""event"",""trial"",""time""
""focus"",""39"",""459127""
","""event"",""trial"",""time""
""fullscreenenter"",""0"",""820""
","""event"",""trial"",""time""
""fullscreenexit"",""38"",""187307""
","null","run_exp/static/audio/clip_12_probe.m4a","null","","","","","<div class='center'><p>Once you've chosen a pirate, you’ll be shown the ship they are robbing. You will never rob the same ship twice. Ships can be told apart from one another by the image on them. These are the goods that they sell. See, this ship has a travel mug on it. </p><p> You’ll have to remember which island you saw each ship on. You will win more gold coins and hence more bonus money if you remember correctly! To help you remember, you can imagine a story. For example, here, you could imagine a mug full of water in the desert. Or, as another example, if on the forest island, your pirate robbed a ship with an apple on it, you could imagine an apple falling from a tree in the forest. </p><p><img src='run_exp/static/images/tutorial/example_probe.png' height='500'></p></div>","","","","","","","","","","","","","","","","","",""
"","html-keyboard-response","39","460061","0.0-35.0-3.0","""event"",""trial"",""time""
""fullscreenenter"",""0"",""820""
""fullscreenexit"",""38"",""187307""
""blur"",""38"",""189019""
""focus"",""39"",""459127""
","""event"",""trial"",""time""
""blur"",""38"",""189019""
","""event"",""trial"",""time""
""focus"",""39"",""459127""
","""event"",""trial"",""time""
""fullscreenenter"",""0"",""820""
","""event"",""trial"",""time""
""fullscreenexit"",""38"",""187307""
","260313.3300000336","<div class='center'><p>Once you've chosen a pirate, you’ll be shown the ship they are robbing. You will never rob the same ship twice. Ships can be told apart from one another by the image on them. These are the goods that they sell. See, this ship has a travel mug on it. </p><p> You’ll have to remember which island you saw each ship on. You will win more gold coins and hence more bonus money if you remember correctly! To help you remember, you can imagine a story. For example, here, you could imagine a mug full of water in the desert. Or, as another example, if on the forest island, your pirate robbed a ship with an apple on it, you could imagine an apple falling from a tree in the forest. </p><p><img src='run_exp/static/images/tutorial/example_probe.png' height='500'></p><p><b>[Press the space bar to continue]</b></p></div>","32","","","","","","","","","","","","","","","","","","","","","","",""
"","instruc11","40","476440","0.0-35.0-4.0","""event"",""trial"",""time""
""fullscreenenter"",""0"",""820""
""fullscreenexit"",""38"",""187307""
""blur"",""38"",""189019""
""focus"",""39"",""459127""
","""event"",""trial"",""time""
""blur"",""38"",""189019""
","""event"",""trial"",""time""
""focus"",""39"",""459127""
","""event"",""trial"",""time""
""fullscreenenter"",""0"",""820""
","""event"",""trial"",""time""
""fullscreenexit"",""38"",""187307""
","null","run_exp/static/audio/clip_13_changepoint.m4a","null","","","","","<div class='center'><p>How successful a pirate is at robbing ships will depend on the island you’re on.</p><p> A pirate may have visited this island many times before and gained a lot of practice robbing ships there.</p><p>So, they’re more likely to be successful than a pirate who has never visited the island before.</p></div>","","","","","","","","","","","","","","","","","",""
"","html-keyboard-response","41","480288","0.0-35.0-5.0","""event"",""trial"",""time""
""fullscreenenter"",""0"",""820""
""fullscreenexit"",""38"",""187307""
""blur"",""38"",""189019""
""focus"",""39"",""459127""
","""event"",""trial"",""time""
""blur"",""38"",""189019""
","""event"",""trial"",""time""
""focus"",""39"",""459127""
","""event"",""trial"",""time""
""fullscreenenter"",""0"",""820""
","""event"",""trial"",""time""
""fullscreenexit"",""38"",""187307""
","3847.1150000113994","<div class='center'><p>How successful a pirate is at robbing ships will depend on the island you’re on.</p><p> A pirate may have visited this island many times before and gained a lot of practice robbing ships there.</p><p>So, they’re more likely to be successful than a pirate who has never visited the island before.</p><p><b>[Press the space bar to continue]</b></p></div>","32","","","","","","","","","","","","","","","","","","","","","","",""
"","instruc12","42","521394","0.0-35.0-6.0","""event"",""trial"",""time""
""fullscreenenter"",""0"",""820""
""fullscreenexit"",""38"",""187307""
""blur"",""38"",""189019""
""focus"",""39"",""459127""
","""event"",""trial"",""time""
""blur"",""38"",""189019""
","""event"",""trial"",""time""
""focus"",""39"",""459127""
","""event"",""trial"",""time""
""fullscreenenter"",""0"",""820""
","""event"",""trial"",""time""
""fullscreenexit"",""38"",""187307""
","null","run_exp/static/audio/clip_14_drift.m4a","null","","","","","<div class='center'><p>How successful a pirate is at robbing ships can also change over the time spent on the island. </p><p> Ships may hear from islanders about the pirates coming and will improve their protections against the attack. This may make it harder to rob them.</p><p> Ships may also become lazy and weaken the strength of their protections. This may make it easier to rob them.</p><br><p>Things are always changing on the high seas! So, try your best to pay attention!</p><p><img src='run_exp/static/images/tutorial/contingency.png' height='500'></p></div>","","","","","","","","","","","","","","","","","",""
"","html-keyboard-response","43","524809","0.0-35.0-7.0","""event"",""trial"",""time""
""fullscreenenter"",""0"",""820""
""fullscreenexit"",""38"",""187307""
""blur"",""38"",""189019""
""focus"",""39"",""459127""
","""event"",""trial"",""time""
""blur"",""38"",""189019""
","""event"",""trial"",""time""
""focus"",""39"",""459127""
","""event"",""trial"",""time""
""fullscreenenter"",""0"",""820""
","""event"",""trial"",""time""
""fullscreenexit"",""38"",""187307""
","3414.060000097379","<div class='center'><p>How successful a pirate is at robbing ships can also change over the time spent on the island. </p><p> Ships may hear from islanders about the pirates coming and will improve their protections against the attack. This may make it harder to rob them.</p><p> Ships may also become lazy and weaken the strength of their protections. This may make it easier to rob them.</p><br><p>Things are always changing on the high seas! So, try your best to pay attention!</p><p><img src='run_exp/static/images/tutorial/contingency.png' height='500'></p><p><b>[Press the space bar to continue]</b></p></div>","32","","","","","","","","","","","","","","","","","","","","","","",""
"","instruc13","44","560010","0.0-35.0-8.0","""event"",""trial"",""time""
""fullscreenenter"",""0"",""820""
""fullscreenexit"",""38"",""187307""
""blur"",""38"",""189019""
""focus"",""39"",""459127""
","""event"",""trial"",""time""
""blur"",""38"",""189019""
","""event"",""trial"",""time""
""focus"",""39"",""459127""
","""event"",""trial"",""time""
""fullscreenenter"",""0"",""820""
","""event"",""trial"",""time""
""fullscreenexit"",""38"",""187307""
","null","run_exp/static/audio/clip_15_summary.m4a","null","","","","","<div class='center'><p>Let's go over the instructions quickly again. You have two important things to do: </p><b><p> 1. Pick the pirate who is the best at robbing ships on the current island. </p></b><b><p> 2. Remember on which island a ship was robbed.</p> </b><p>The amount of bonus money you can win depends on both.</p><p><br><p>Let’s try a practice game. The game will start by showing you the pirates. First, pick a pirate using the <b> 1, 2, 3 </b> keys on your keyboard. When you are shown a ship, try to remember which island you’re on by making up a story.</p><p>This is just a practice game, so you’re not playing for money. </p><p> Good luck! This game will be very difficult but try your best!</p></div>","","","","","","","","","","","","","","","","","",""
"","html-keyboard-response","45","574556","0.0-35.0-9.0","""event"",""trial"",""time""
""fullscreenenter"",""0"",""820""
""fullscreenexit"",""38"",""187307""
""blur"",""38"",""189019""
""focus"",""39"",""459127""
","""event"",""trial"",""time""
""blur"",""38"",""189019""
","""event"",""trial"",""time""
""focus"",""39"",""459127""
","""event"",""trial"",""time""
""fullscreenenter"",""0"",""820""
","""event"",""trial"",""time""
""fullscreenexit"",""38"",""187307""
","14545.064999954775","<div class='center'><p>Let's go over the instructions quickly again. You have two important things to do: </p><b><p> 1. Pick the pirate who is the best at robbing ships on the current island. </p></b><b><p> 2. Remember on which island a ship was robbed.</p> </b><p>The amount of bonus money you can win depends on both.</p><p><br><p>Let’s try a practice game. The game will start by showing you the pirates. First, pick a pirate using the <b> 1, 2, 3 </b> keys on your keyboard. When you are shown a ship, try to remember which island you’re on by making up a story.</p><p>This is just a practice game, so you’re not playing for money. </p><p> Good luck! This game will be very difficult but try your best!</p><p><b>[Press the space bar to continue]</b></p></div>","32","","","","","","","","","","","","","","","","","","","","","","",""
"","do_welcome","46","578566","0.0-35.0-10.0","""event"",""trial"",""time""
""fullscreenenter"",""0"",""820""
""fullscreenexit"",""38"",""187307""
""blur"",""38"",""189019""
""focus"",""39"",""459127""
","""event"",""trial"",""time""
""blur"",""38"",""189019""
","""event"",""trial"",""time""
""focus"",""39"",""459127""
","""event"",""trial"",""time""
""fullscreenenter"",""0"",""820""
","""event"",""trial"",""time""
""fullscreenexit"",""38"",""187307""
","null","","","","","","","","null","","","","","","","","","","","","","","","","",""
"","do_trial","47","583499","0.0-35.0-11.0","""event"",""trial"",""time""
""fullscreenenter"",""0"",""820""
""fullscreenexit"",""38"",""187307""
""blur"",""38"",""189019""
""focus"",""39"",""459127""
","""event"",""trial"",""time""
""blur"",""38"",""189019""
","""event"",""trial"",""time""
""focus"",""39"",""459127""
","""event"",""trial"",""time""
""fullscreenenter"",""0"",""820""
","""event"",""trial"",""time""
""fullscreenexit"",""38"",""187307""
","425.14499998651445","","","","","","","","49","1,0,0","","","","","","","","","","","","","","","",""
"","html-keyboard-response","48","584504","0.0-36.0-0.0","""event"",""trial"",""time""
""fullscreenenter"",""0"",""820""
""fullscreenexit"",""38"",""187307""
""blur"",""38"",""189019""
""focus"",""39"",""459127""
","""event"",""trial"",""time""
""blur"",""38"",""189019""
","""event"",""trial"",""time""
""focus"",""39"",""459127""
","""event"",""trial"",""time""
""fullscreenenter"",""0"",""820""
","""event"",""trial"",""time""
""fullscreenexit"",""38"",""187307""
","null","<p></p>","null","","","","","","","","","","","","","","","","","","","","","","",""
"","do_trial","49","589277","0.0-36.0-1.0","""event"",""trial"",""time""
""fullscreenenter"",""0"",""820""
""fullscreenexit"",""38"",""187307""
""blur"",""38"",""189019""
""focus"",""39"",""459127""
","""event"",""trial"",""time""
""blur"",""38"",""189019""
","""event"",""trial"",""time""
""focus"",""39"",""459127""
","""event"",""trial"",""time""
""fullscreenenter"",""0"",""820""
","""event"",""trial"",""time""
""fullscreenexit"",""38"",""187307""
","264.54999996349216","","","","","","","","49","1,1,0","","","","","","","","","","","","","","","",""
"","html-keyboard-response","50","590280","0.0-37.0-0.0","""event"",""trial"",""time""
""fullscreenenter"",""0"",""820""
""fullscreenexit"",""38"",""187307""
""blur"",""38"",""189019""
""focus"",""39"",""459127""
","""event"",""trial"",""time""
""blur"",""38"",""189019""
","""event"",""trial"",""time""
""focus"",""39"",""459127""
","""event"",""trial"",""time""
""fullscreenenter"",""0"",""820""
","""event"",""trial"",""time""
""fullscreenexit"",""38"",""187307""
","null","<p></p>","null","","","","","","","","","","","","","","","","","","","","","","",""
"","do_trial","51","595175","0.0-37.0-1.0","""event"",""trial"",""time""
""fullscreenenter"",""0"",""820""
""fullscreenexit"",""38"",""187307""
""blur"",""38"",""189019""
""focus"",""39"",""459127""
","""event"",""trial"",""time""
""blur"",""38"",""189019""
","""event"",""trial"",""time""
""focus"",""39"",""459127""
","""event"",""trial"",""time""
""fullscreenenter"",""0"",""820""
","""event"",""trial"",""time""
""fullscreenexit"",""38"",""187307""
","383.5200001485646","","","","","","","","49","1,0,1","","","","","","","","","","","","","","","",""
"","html-keyboard-response","52","596178","0.0-38.0-0.0","""event"",""trial"",""time""
""fullscreenenter"",""0"",""820""
""fullscreenexit"",""38"",""187307""
""blur"",""38"",""189019""
""focus"",""39"",""459127""
","""event"",""trial"",""time""
""blur"",""38"",""189019""
","""event"",""trial"",""time""
""focus"",""39"",""459127""
","""event"",""trial"",""time""
""fullscreenenter"",""0"",""820""
","""event"",""trial"",""time""
""fullscreenexit"",""38"",""187307""
","null","<p></p>","null","","","","","","","","","","","","","","","","","","","","","","",""
"","do_trial","53","600966","0.0-38.0-1.0","""event"",""trial"",""time""
""fullscreenenter"",""0"",""820""
""fullscreenexit"",""38"",""187307""
""blur"",""38"",""189019""
""focus"",""39"",""459127""
","""event"",""trial"",""time""
""blur"",""38"",""189019""
","""event"",""trial"",""time""
""focus"",""39"",""459127""
","""event"",""trial"",""time""
""fullscreenenter"",""0"",""820""
","""event"",""trial"",""time""
""fullscreenexit"",""38"",""187307""
","276.13999997265637","","","","","","","","49","0,1,0","","","","","","","","","","","","","","","",""
"","html-keyboard-response","54","601968","0.0-39.0-0.0","""event"",""trial"",""time""
""fullscreenenter"",""0"",""820""
""fullscreenexit"",""38"",""187307""
""blur"",""38"",""189019""
""focus"",""39"",""459127""
","""event"",""trial"",""time""
""blur"",""38"",""189019""
","""event"",""trial"",""time""
""focus"",""39"",""459127""
","""event"",""trial"",""time""
""fullscreenenter"",""0"",""820""
","""event"",""trial"",""time""
""fullscreenexit"",""38"",""187307""
","null","<p></p>","null","","","","","","","","","","","","","","","","","","","","","","",""
"","do_trial","55","606710","0.0-39.0-1.0","""event"",""trial"",""time""
""fullscreenenter"",""0"",""820""
""fullscreenexit"",""38"",""187307""
""blur"",""38"",""189019""
""focus"",""39"",""459127""
","""event"",""trial"",""time""
""blur"",""38"",""189019""
","""event"",""trial"",""time""
""focus"",""39"",""459127""
","""event"",""trial"",""time""
""fullscreenenter"",""0"",""820""
","""event"",""trial"",""time""
""fullscreenexit"",""38"",""187307""
","233.5100001655519","","","","","","","","49","1,0,0","","","","","","","","","","","","","","","",""
"","do_bye","56","608216","0.0-40.0-0.0","""event"",""trial"",""time""
""fullscreenenter"",""0"",""820""
""fullscreenexit"",""38"",""187307""
""blur"",""38"",""189019""
""focus"",""39"",""459127""
","""event"",""trial"",""time""
""blur"",""38"",""189019""
","""event"",""trial"",""time""
""focus"",""39"",""459127""
","""event"",""trial"",""time""
""fullscreenenter"",""0"",""820""
","""event"",""trial"",""time""
""fullscreenexit"",""38"",""187307""
","null","","","","","","","","null","","","","","","","","","","","","","","","","",""
"","do_travel","57","617220","0.0-40.0-1.0","""event"",""trial"",""time""
""fullscreenenter"",""0"",""820""
""fullscreenexit"",""38"",""187307""
""blur"",""38"",""189019""
""focus"",""39"",""459127""
","""event"",""trial"",""time""
""blur"",""38"",""189019""
","""event"",""trial"",""time""
""focus"",""39"",""459127""
","""event"",""trial"",""time""
""fullscreenenter"",""0"",""820""
","""event"",""trial"",""time""
""fullscreenexit"",""38"",""187307""
","null","","","","","","","","null","","","","","","","","","","","","","","","","",""
"","do_welcome","58","621230","0.0-40.0-2.0","""event"",""trial"",""time""
""fullscreenenter"",""0"",""820""
""fullscreenexit"",""38"",""187307""
""blur"",""38"",""189019""
""focus"",""39"",""459127""
","""event"",""trial"",""time""
""blur"",""38"",""189019""
","""event"",""trial"",""time""
""focus"",""39"",""459127""
","""event"",""trial"",""time""
""fullscreenenter"",""0"",""820""
","""event"",""trial"",""time""
""fullscreenexit"",""38"",""187307""
","null","","","","","","","","null","","","","","","","","","","","","","","","","",""
"","do_trial","59","626766","0.0-40.0-3.0","""event"",""trial"",""time""
""fullscreenenter"",""0"",""820""
""fullscreenexit"",""38"",""187307""
""blur"",""38"",""189019""
""focus"",""39"",""459127""
","""event"",""trial"",""time""
""blur"",""38"",""189019""
","""event"",""trial"",""time""
""focus"",""39"",""459127""
","""event"",""trial"",""time""
""fullscreenenter"",""0"",""820""
","""event"",""trial"",""time""
""fullscreenexit"",""38"",""187307""
","1026.2400000356138","","","","","","","","49","1,0,0","","","","","","","","","","","","","","","",""
"","html-keyboard-response","60","627772","0.0-41.0-0.0","""event"",""trial"",""time""
""fullscreenenter"",""0"",""820""
""fullscreenexit"",""38"",""187307""
""blur"",""38"",""189019""
""focus"",""39"",""459127""
","""event"",""trial"",""time""
""blur"",""38"",""189019""
","""event"",""trial"",""time""
""focus"",""39"",""459127""
","""event"",""trial"",""time""
""fullscreenenter"",""0"",""820""
","""event"",""trial"",""time""
""fullscreenexit"",""38"",""187307""
","null","<p></p>","null","","","","","","","","","","","","","","","","","","","","","","",""
"","do_trial","61","632579","0.0-41.0-1.0","""event"",""trial"",""time""
""fullscreenenter"",""0"",""820""
""fullscreenexit"",""38"",""187307""
""blur"",""38"",""189019""
""focus"",""39"",""459127""
","""event"",""trial"",""time""
""blur"",""38"",""189019""
","""event"",""trial"",""time""
""focus"",""39"",""459127""
","""event"",""trial"",""time""
""fullscreenenter"",""0"",""820""
","""event"",""trial"",""time""
""fullscreenexit"",""38"",""187307""
","290.0900000240654","","","","","","","","49","1,0,1","","","","","","","","","","","","","","","",""
"","html-keyboard-response","62","633582","0.0-42.0-0.0","""event"",""trial"",""time""
""fullscreenenter"",""0"",""820""
""fullscreenexit"",""38"",""187307""
""blur"",""38"",""189019""
""focus"",""39"",""459127""
","""event"",""trial"",""time""
""blur"",""38"",""189019""
","""event"",""trial"",""time""
""focus"",""39"",""459127""
","""event"",""trial"",""time""
""fullscreenenter"",""0"",""820""
","""event"",""trial"",""time""
""fullscreenexit"",""38"",""187307""
","null","<p></p>","null","","","","","","","","","","","","","","","","","","","","","","",""
"","do_trial","63","638449","0.0-42.0-1.0","""event"",""trial"",""time""
""fullscreenenter"",""0"",""820""
""fullscreenexit"",""38"",""187307""
""blur"",""38"",""189019""
""focus"",""39"",""459127""
","""event"",""trial"",""time""
""blur"",""38"",""189019""
","""event"",""trial"",""time""
""focus"",""39"",""459127""
","""event"",""trial"",""time""
""fullscreenenter"",""0"",""820""
","""event"",""trial"",""time""
""fullscreenexit"",""38"",""187307""
","356.38000001199543","","","","","","","","49","1,1,0","","","","","","","","","","","","","","","",""
"","html-keyboard-response","64","639454","0.0-43.0-0.0","""event"",""trial"",""time""
""fullscreenenter"",""0"",""820""
""fullscreenexit"",""38"",""187307""
""blur"",""38"",""189019""
""focus"",""39"",""459127""
","""event"",""trial"",""time""
""blur"",""38"",""189019""
","""event"",""trial"",""time""
""focus"",""39"",""459127""
","""event"",""trial"",""time""
""fullscreenenter"",""0"",""820""
","""event"",""trial"",""time""
""fullscreenexit"",""38"",""187307""
","null","<p></p>","null","","","","","","","","","","","","","","","","","","","","","","",""
"","do_trial","65","644322","0.0-43.0-1.0","""event"",""trial"",""time""
""fullscreenenter"",""0"",""820""
""fullscreenexit"",""38"",""187307""
""blur"",""38"",""189019""
""focus"",""39"",""459127""
","""event"",""trial"",""time""
""blur"",""38"",""189019""
","""event"",""trial"",""time""
""focus"",""39"",""459127""
","""event"",""trial"",""time""
""fullscreenenter"",""0"",""820""
","""event"",""trial"",""time""
""fullscreenexit"",""38"",""187307""
","356.75999987870455","","","","","","","","49","0,0,1","","","","","","","","","","","","","","","",""
"","html-keyboard-response","66","645326","0.0-44.0-0.0","""event"",""trial"",""time""
""fullscreenenter"",""0"",""820""
""fullscreenexit"",""38"",""187307""
""blur"",""38"",""189019""
""focus"",""39"",""459127""
","""event"",""trial"",""time""
""blur"",""38"",""189019""
","""event"",""trial"",""time""
""focus"",""39"",""459127""
","""event"",""trial"",""time""
""fullscreenenter"",""0"",""820""
","""event"",""trial"",""time""
""fullscreenexit"",""38"",""187307""
","null","<p></p>","null","","","","","","","","","","","","","","","","","","","","","","",""
"","do_trial","67","650098","0.0-44.0-1.0","""event"",""trial"",""time""
""fullscreenenter"",""0"",""820""
""fullscreenexit"",""38"",""187307""
""blur"",""38"",""189019""
""focus"",""39"",""459127""
","""event"",""trial"",""time""
""blur"",""38"",""189019""
","""event"",""trial"",""time""
""focus"",""39"",""459127""
","""event"",""trial"",""time""
""fullscreenenter"",""0"",""820""
","""event"",""trial"",""time""
""fullscreenexit"",""38"",""187307""
","259.60999983362854","","","","","","","","49","1,0,1","","","","","","","","","","","","","","","",""
"","html-keyboard-response","68","651062","0.0-45.0-0.0","""event"",""trial"",""time""
""fullscreenenter"",""0"",""820""
""fullscreenexit"",""38"",""187307""
""blur"",""38"",""189019""
""focus"",""39"",""459127""
","""event"",""trial"",""time""
""blur"",""38"",""189019""
","""event"",""trial"",""time""
""focus"",""39"",""459127""
","""event"",""trial"",""time""
""fullscreenenter"",""0"",""820""
","""event"",""trial"",""time""
""fullscreenexit"",""38"",""187307""
","962.6749998424202","<div class='center'><p><img src='run_exp/static/images/tutorial/prac_best_pirate.png'  height='500'></p></div>","49","","","","","","","","","","","","","","","","","","","","","","",""
"","html-keyboard-response","69","651742","0.0-46.0-0.0","""event"",""trial"",""time""
""fullscreenenter"",""0"",""820""
""fullscreenexit"",""38"",""187307""
""blur"",""38"",""189019""
""focus"",""39"",""459127""
","""event"",""trial"",""time""
""blur"",""38"",""189019""
","""event"",""trial"",""time""
""focus"",""39"",""459127""
","""event"",""trial"",""time""
""fullscreenenter"",""0"",""820""
","""event"",""trial"",""time""
""fullscreenexit"",""38"",""187307""
","678.9700000081211","<div class='center'><p>That's correct! Red beard was the best.</p><p><b>[Press the space bar to continue]</b></p></div>","32","","","","","","","","","","","","","","","","","","","","","","",""
"","html-keyboard-response","70","652600","0.0-46.0-1.0","""event"",""trial"",""time""
""fullscreenenter"",""0"",""820""
""fullscreenexit"",""38"",""187307""
""blur"",""38"",""189019""
""focus"",""39"",""459127""
","""event"",""trial"",""time""
""blur"",""38"",""189019""
","""event"",""trial"",""time""
""focus"",""39"",""459127""
","""event"",""trial"",""time""
""fullscreenenter"",""0"",""820""
","""event"",""trial"",""time""
""fullscreenexit"",""38"",""187307""
","857.8049999196082","<div class='center'><p><img src='run_exp/static/images/tutorial/prac_source.png'  height='500'></p></div>","50","","","","","","","","","","","","","","","","","","","","","","",""
"","html-keyboard-response","71","653095","0.0-47.0-0.0","""event"",""trial"",""time""
""fullscreenenter"",""0"",""820""
""fullscreenexit"",""38"",""187307""
""blur"",""38"",""189019""
""focus"",""39"",""459127""
","""event"",""trial"",""time""
""blur"",""38"",""189019""
","""event"",""trial"",""time""
""focus"",""39"",""459127""
","""event"",""trial"",""time""
""fullscreenenter"",""0"",""820""
","""event"",""trial"",""time""
""fullscreenexit"",""38"",""187307""
","493.4000000357628","<div class='center'><p>That's correct! You saw this ship on the cavern island.</p><p><b>[Press the space bar to continue]</b></p></div>","32","","","","","","","","","","","","","","","","","","","","","","",""
"","quiz_beginning","72","664273","0.0-47.0-1.0","""event"",""trial"",""time""
""fullscreenenter"",""0"",""820""
""fullscreenexit"",""38"",""187307""
""blur"",""38"",""189019""
""focus"",""39"",""459127""
","""event"",""trial"",""time""
""blur"",""38"",""189019""
","""event"",""trial"",""time""
""focus"",""39"",""459127""
","""event"",""trial"",""time""
""fullscreenenter"",""0"",""820""
","""event"",""trial"",""time""
""fullscreenexit"",""38"",""187307""
","null","run_exp/static/audio/clip_16_quiz_intro.m4a","null","","","","","<div class='center'><p>Good job on the practice game! Now, you will be asked some true or false questions to make sure you really understand the rules of the game.</p><p> Press <b>'1'</b> on the keyboard for true and press <b>'2'</b> for false.</p></div>","","","","","","","","","","","","","","","","","",""
"","audio-keyboard-response","73","667054","0.0-47.0-2.0","""event"",""trial"",""time""
""fullscreenenter"",""0"",""820""
""fullscreenexit"",""38"",""187307""
""blur"",""38"",""189019""
""focus"",""39"",""459127""
","""event"",""trial"",""time""
""blur"",""38"",""189019""
","""event"",""trial"",""time""
""focus"",""39"",""459127""
","""event"",""trial"",""time""
""fullscreenenter"",""0"",""820""
","""event"",""trial"",""time""
""fullscreenexit"",""38"",""187307""
","2780.249999836087","run_exp/static/audio/clip_17_q1.m4a","49","","","","","","","","","","","","","","","","","","","","","","",""
"","correct","74","669475","0.0-48.0-0.0","""event"",""trial"",""time""
""fullscreenenter"",""0"",""820""
""fullscreenexit"",""38"",""187307""
""blur"",""38"",""189019""
""focus"",""39"",""459127""
","""event"",""trial"",""time""
""blur"",""38"",""189019""
","""event"",""trial"",""time""
""focus"",""39"",""459127""
","""event"",""trial"",""time""
""fullscreenenter"",""0"",""820""
","""event"",""trial"",""time""
""fullscreenexit"",""38"",""187307""
","null","run_exp/static/audio/clip_18_correct.m4a","null","","","","","<div class='center'><p>That's correct!</p></div>","","","","","","","","","","","","","","","","","",""
"","html-keyboard-response","75","670361","0.0-48.0-1.0","""event"",""trial"",""time""
""fullscreenenter"",""0"",""820""
""fullscreenexit"",""38"",""187307""
""blur"",""38"",""189019""
""focus"",""39"",""459127""
","""event"",""trial"",""time""
""blur"",""38"",""189019""
","""event"",""trial"",""time""
""focus"",""39"",""459127""
","""event"",""trial"",""time""
""fullscreenenter"",""0"",""820""
","""event"",""trial"",""time""
""fullscreenexit"",""38"",""187307""
","884.6950000151992","<div class='center'><p>That's correct!</p><p><b>[Press the space bar to continue]</b></p></div>","32","","","","","","","","","","","","","","","","","","","","","","",""
"","audio-keyboard-response","76","671314","0.0-48.0-2.0","""event"",""trial"",""time""
""fullscreenenter"",""0"",""820""
""fullscreenexit"",""38"",""187307""
""blur"",""38"",""189019""
""focus"",""39"",""459127""
","""event"",""trial"",""time""
""blur"",""38"",""189019""
","""event"",""trial"",""time""
""focus"",""39"",""459127""
","""event"",""trial"",""time""
""fullscreenenter"",""0"",""820""
","""event"",""trial"",""time""
""fullscreenexit"",""38"",""187307""
","953.1950000673532","run_exp/static/audio/clip_20_q2.m4a","50","","","","","","","","","","","","","","","","","","","","","","",""
"","correct","77","673723","0.0-49.0-0.0","""event"",""trial"",""time""
""fullscreenenter"",""0"",""820""
""fullscreenexit"",""38"",""187307""
""blur"",""38"",""189019""
""focus"",""39"",""459127""
","""event"",""trial"",""time""
""blur"",""38"",""189019""
","""event"",""trial"",""time""
""focus"",""39"",""459127""
","""event"",""trial"",""time""
""fullscreenenter"",""0"",""820""
","""event"",""trial"",""time""
""fullscreenexit"",""38"",""187307""
","null","run_exp/static/audio/clip_18_correct.m4a","null","","","","","<div class='center'><p>That's correct!</p></div>","","","","","","","","","","","","","","","","","",""
"","html-keyboard-response","78","676010","0.0-49.0-1.0","""event"",""trial"",""time""
""fullscreenenter"",""0"",""820""
""fullscreenexit"",""38"",""187307""
""blur"",""38"",""189019""
""focus"",""39"",""459127""
","""event"",""trial"",""time""
""blur"",""38"",""189019""
","""event"",""trial"",""time""
""focus"",""39"",""459127""
","""event"",""trial"",""time""
""fullscreenenter"",""0"",""820""
","""event"",""trial"",""time""
""fullscreenexit"",""38"",""187307""
","2286.1649999395013","<div class='center'><p>That's correct!</p><p><b>[Press the space bar to continue]</b></p></div>","32","","","","","","","","","","","","","","","","","","","","","","",""
"","audio-keyboard-response","79","678716","0.0-49.0-2.0","""event"",""trial"",""time""
""fullscreenenter"",""0"",""820""
""fullscreenexit"",""38"",""187307""
""blur"",""38"",""189019""
""focus"",""39"",""459127""
","""event"",""trial"",""time""
""blur"",""38"",""189019""
","""event"",""trial"",""time""
""focus"",""39"",""459127""
","""event"",""trial"",""time""
""fullscreenenter"",""0"",""820""
","""event"",""trial"",""time""
""fullscreenexit"",""38"",""187307""
","2704.935000045225","run_exp/static/audio/clip_22_q3.m4a","50","","","","","","","","","","","","","","","","","","","","","","",""
"","correct","80","681131","0.0-50.0-0.0","""event"",""trial"",""time""
""fullscreenenter"",""0"",""820""
""fullscreenexit"",""38"",""187307""
""blur"",""38"",""189019""
""focus"",""39"",""459127""
","""event"",""trial"",""time""
""blur"",""38"",""189019""
","""event"",""trial"",""time""
""focus"",""39"",""459127""
","""event"",""trial"",""time""
""fullscreenenter"",""0"",""820""
","""event"",""trial"",""time""
""fullscreenexit"",""38"",""187307""
","null","run_exp/static/audio/clip_18_correct.m4a","null","","","","","<div class='center'><p>That's correct!</p></div>","","","","","","","","","","","","","","","","","",""
"","html-keyboard-response","81","683189","0.0-50.0-1.0","""event"",""trial"",""time""
""fullscreenenter"",""0"",""820""
""fullscreenexit"",""38"",""187307""
""blur"",""38"",""189019""
""focus"",""39"",""459127""
","""event"",""trial"",""time""
""blur"",""38"",""189019""
","""event"",""trial"",""time""
""focus"",""39"",""459127""
","""event"",""trial"",""time""
""fullscreenenter"",""0"",""820""
","""event"",""trial"",""time""
""fullscreenexit"",""38"",""187307""
","2058.140000095591","<div class='center'><p>That's correct!</p><p><b>[Press the space bar to continue]</b></p></div>","32","","","","","","","","","","","","","","","","","","","","","","",""
"","audio-keyboard-response","82","683723","0.0-50.0-2.0","""event"",""trial"",""time""
""fullscreenenter"",""0"",""820""
""fullscreenexit"",""38"",""187307""
""blur"",""38"",""189019""
""focus"",""39"",""459127""
","""event"",""trial"",""time""
""blur"",""38"",""189019""
","""event"",""trial"",""time""
""focus"",""39"",""459127""
","""event"",""trial"",""time""
""fullscreenenter"",""0"",""820""
","""event"",""trial"",""time""
""fullscreenexit"",""38"",""187307""
","533.0100001301616","run_exp/static/audio/clip_24_q4.m4a","49","","","","","","","","","","","","","","","","","","","","","","",""
"","correct","83","686192","0.0-51.0-0.0","""event"",""trial"",""time""
""fullscreenenter"",""0"",""820""
""fullscreenexit"",""38"",""187307""
""blur"",""38"",""189019""
""focus"",""39"",""459127""
","""event"",""trial"",""time""
""blur"",""38"",""189019""
","""event"",""trial"",""time""
""focus"",""39"",""459127""
","""event"",""trial"",""time""
""fullscreenenter"",""0"",""820""
","""event"",""trial"",""time""
""fullscreenexit"",""38"",""187307""
","null","run_exp/static/audio/clip_18_correct.m4a","null","","","","","<div class='center'><p>That's correct!</p></div>","","","","","","","","","","","","","","","","","",""
"","html-keyboard-response","84","692077","0.0-51.0-1.0","""event"",""trial"",""time""
""fullscreenenter"",""0"",""820""
""fullscreenexit"",""38"",""187307""
""blur"",""38"",""189019""
""focus"",""39"",""459127""
","""event"",""trial"",""time""
""blur"",""38"",""189019""
","""event"",""trial"",""time""
""focus"",""39"",""459127""
","""event"",""trial"",""time""
""fullscreenenter"",""0"",""820""
","""event"",""trial"",""time""
""fullscreenexit"",""38"",""187307""
","5884.489999851212","<div class='center'><p>That's correct!</p><p><b>[Press the space bar to continue]</b></p></div>","32","","","","","","","","","","","","","","","","","","","","","","",""
"","q_all_corr","85","700567","0.0-52.0-0.0","""event"",""trial"",""time""
""fullscreenenter"",""0"",""820""
""fullscreenexit"",""38"",""187307""
""blur"",""38"",""189019""
""focus"",""39"",""459127""
","""event"",""trial"",""time""
""blur"",""38"",""189019""
","""event"",""trial"",""time""
""focus"",""39"",""459127""
","""event"",""trial"",""time""
""fullscreenenter"",""0"",""820""
","""event"",""trial"",""time""
""fullscreenexit"",""38"",""187307""
","null","run_exp/static/audio/clip_27_quiz_all_correct.m4a","null","","","","","<div class='center'><p>Good job! You’re now ready to move on to the real game! Remember this game will be difficult but don't get discouraged and try your best!</p></div>","","","","","","","","","","","","","","","","","",""
"","html-keyboard-response","86","722760","0.0-52.0-1.0","""event"",""trial"",""time""
""fullscreenenter"",""0"",""820""
""fullscreenexit"",""38"",""187307""
""blur"",""38"",""189019""
""focus"",""39"",""459127""
","""event"",""trial"",""time""
""blur"",""38"",""189019""
","""event"",""trial"",""time""
""focus"",""39"",""459127""
","""event"",""trial"",""time""
""fullscreenenter"",""0"",""820""
","""event"",""trial"",""time""
""fullscreenexit"",""38"",""187307""
","22192.190000088885","<div class='center'><p>Good job! You’re now ready to move on to the real game! Remember this game will be difficult but don't get discouraged and try your best!</p><p><b>[Press the space bar to continue]</b></p></div>","32","","","","","","","","","","","","","","","","","","","","","","",""
"","do_welcome","87","726766","0.0-53.0-0.0","""event"",""trial"",""time""
""fullscreenenter"",""0"",""820""
""fullscreenexit"",""38"",""187307""
""blur"",""38"",""189019""
""focus"",""39"",""459127""
","""event"",""trial"",""time""
""blur"",""38"",""189019""
","""event"",""trial"",""time""
""focus"",""39"",""459127""
","""event"",""trial"",""time""
""fullscreenenter"",""0"",""820""
","""event"",""trial"",""time""
""fullscreenexit"",""38"",""187307""
","null","","","","","","","","null","","","","","","","","","","","","","","","","",""
"","do_trial","88","731900","0.0-54.0-0.0","""event"",""trial"",""time""
""fullscreenenter"",""0"",""820""
""fullscreenexit"",""38"",""187307""
""blur"",""38"",""189019""
""focus"",""39"",""459127""
","""event"",""trial"",""time""
""blur"",""38"",""189019""
","""event"",""trial"",""time""
""focus"",""39"",""459127""
","""event"",""trial"",""time""
""fullscreenenter"",""0"",""820""
","""event"",""trial"",""time""
""fullscreenexit"",""38"",""187307""
","587.9649999551475","","","","","","","","49","1,0,0","0","highway","0","probe-69","0.6","0.3","0.1","1","","","","","","","",""
"","html-keyboard-response","89","732905","0.0-54.0-1.0","""event"",""trial"",""time""
""fullscreenenter"",""0"",""820""
""fullscreenexit"",""38"",""187307""
""blur"",""38"",""189019""
""focus"",""39"",""459127""
","""event"",""trial"",""time""
""blur"",""38"",""189019""
","""event"",""trial"",""time""
""focus"",""39"",""459127""
","""event"",""trial"",""time""
""fullscreenenter"",""0"",""820""
","""event"",""trial"",""time""
""fullscreenexit"",""38"",""187307""
","null","<p></p>","null","","","","","","","","","","","","","","","","","","","","","","",""
"","do_trial","90","737744","0.0-55.0-0.0","""event"",""trial"",""time""
""fullscreenenter"",""0"",""820""
""fullscreenexit"",""38"",""187307""
""blur"",""38"",""189019""
""focus"",""39"",""459127""
","""event"",""trial"",""time""
""blur"",""38"",""189019""
","""event"",""trial"",""time""
""focus"",""39"",""459127""
","""event"",""trial"",""time""
""fullscreenenter"",""0"",""820""
","""event"",""trial"",""time""
""fullscreenexit"",""38"",""187307""
","288.4400000330061","","","","","","","","49","1,0,0","0","highway","1","probe-17","0.4874478990995319","0.18853230803132617","0.05481429863850729","1","","","","","","","",""
"","html-keyboard-response","91","738745","0.0-55.0-1.0","""event"",""trial"",""time""
""fullscreenenter"",""0"",""820""
""fullscreenexit"",""38"",""187307""
""blur"",""38"",""189019""
""focus"",""39"",""459127""
","""event"",""trial"",""time""
""blur"",""38"",""189019""
","""event"",""trial"",""time""
""focus"",""39"",""459127""
","""event"",""trial"",""time""
""fullscreenenter"",""0"",""820""
","""event"",""trial"",""time""
""fullscreenexit"",""38"",""187307""
","null","<p></p>","null","","","","","","","","","","","","","","","","","","","","","","",""
"","do_trial","92","744000","0.0-56.0-0.0","""event"",""trial"",""time""
""fullscreenenter"",""0"",""820""
""fullscreenexit"",""38"",""187307""
""blur"",""38"",""189019""
""focus"",""39"",""459127""
","""event"",""trial"",""time""
""blur"",""38"",""189019""
","""event"",""trial"",""time""
""focus"",""39"",""459127""
","""event"",""trial"",""time""
""fullscreenenter"",""0"",""820""
","""event"",""trial"",""time""
""fullscreenexit"",""38"",""187307""
","707.979999948293","","","","","","","","49","1,0,0","0","highway","2","probe-175","0.7152608668268522","0.28826482214877114","0.11425923017078797","1","","","","","","","",""
"","html-keyboard-response","93","745005","0.0-56.0-1.0","""event"",""trial"",""time""
""fullscreenenter"",""0"",""820""
""fullscreenexit"",""38"",""187307""
""blur"",""38"",""189019""
""focus"",""39"",""459127""
","""event"",""trial"",""time""
""blur"",""38"",""189019""
","""event"",""trial"",""time""
""focus"",""39"",""459127""
","""event"",""trial"",""time""
""fullscreenenter"",""0"",""820""
","""event"",""trial"",""time""
""fullscreenexit"",""38"",""187307""
","null","<p></p>","null","","","","","","","","","","","","","","","","","","","","","","",""
"","do_trial","94","749828","0.0-57.0-0.0","""event"",""trial"",""time""
""fullscreenenter"",""0"",""820""
""fullscreenexit"",""38"",""187307""
""blur"",""38"",""189019""
""focus"",""39"",""459127""
","""event"",""trial"",""time""
""blur"",""38"",""189019""
","""event"",""trial"",""time""
""focus"",""39"",""459127""
","""event"",""trial"",""time""
""fullscreenenter"",""0"",""820""
","""event"",""trial"",""time""
""fullscreenexit"",""38"",""187307""
","271.6049998998642","","","","","","","","49","1,0,1","0","highway","3","probe-121","0.6581969521930328","0.31026137159880196","0.11350074792173276","1","","","","","","","",""
"","html-keyboard-response","95","750832","0.0-57.0-1.0","""event"",""trial"",""time""
""fullscreenenter"",""0"",""820""
""fullscreenexit"",""38"",""187307""
""blur"",""38"",""189019""
""focus"",""39"",""459127""
","""event"",""trial"",""time""
""blur"",""38"",""189019""
","""event"",""trial"",""time""
""focus"",""39"",""459127""
","""event"",""trial"",""time""
""fullscreenenter"",""0"",""820""
","""event"",""trial"",""time""
""fullscreenexit"",""38"",""187307""
","null","<p></p>","null","","","","","","","","","","","","","","","","","","","","","","",""
"","do_trial","96","755781","0.0-58.0-0.0","""event"",""trial"",""time""
""fullscreenenter"",""0"",""820""
""fullscreenexit"",""38"",""187307""
""blur"",""38"",""189019""
""focus"",""39"",""459127""
","""event"",""trial"",""time""
""blur"",""38"",""189019""
","""event"",""trial"",""time""
""focus"",""39"",""459127""
","""event"",""trial"",""time""
""fullscreenenter"",""0"",""820""
","""event"",""trial"",""time""
""fullscreenexit"",""38"",""187307""
","403.6450001876801","","","","","","","","49","1,0,1","0","highway","4","probe-23","0.5697091369870442","0.2699523610924123","0.1777329824990202","1","","","","","","","",""
"","html-keyboard-response","97","756784","0.0-58.0-1.0","""event"",""trial"",""time""
""fullscreenenter"",""0"",""820""
""fullscreenexit"",""38"",""187307""
""blur"",""38"",""189019""
""focus"",""39"",""459127""
","""event"",""trial"",""time""
""blur"",""38"",""189019""
","""event"",""trial"",""time""
""focus"",""39"",""459127""
","""event"",""trial"",""time""
""fullscreenenter"",""0"",""820""
","""event"",""trial"",""time""
""fullscreenexit"",""38"",""187307""
","null","<p></p>","null","","","","","","","","","","","","","","","","","","","","","","",""
"","do_trial","98","763144","0.0-59.0-0.0","""event"",""trial"",""time""
""fullscreenenter"",""0"",""820""
""fullscreenexit"",""38"",""187307""
""blur"",""38"",""189019""
""focus"",""39"",""459127""
","""event"",""trial"",""time""
""blur"",""38"",""189019""
","""event"",""trial"",""time""
""focus"",""39"",""459127""
","""event"",""trial"",""time""
""fullscreenenter"",""0"",""820""
","""event"",""trial"",""time""
""fullscreenexit"",""38"",""187307""
","1812.6550000160933","","","","","","","","49","0,0,0","0","highway","5","probe-186","0.6703229181785746","0.1881216567002175","0.06257934174747141","0","","","","","","","",""
"","html-keyboard-response","99","764148","0.0-59.0-1.0","""event"",""trial"",""time""
""fullscreenenter"",""0"",""820""
""fullscreenexit"",""38"",""187307""
""blur"",""38"",""189019""
""focus"",""39"",""459127""
","""event"",""trial"",""time""
""blur"",""38"",""189019""
","""event"",""trial"",""time""
""focus"",""39"",""459127""
","""event"",""trial"",""time""
""fullscreenenter"",""0"",""820""
","""event"",""trial"",""time""
""fullscreenexit"",""38"",""187307""
","null","<p></p>","null","","","","","","","","","","","","","","","","","","","","","","",""
"","do_trial","100","768721","0.0-60.0-0.0","""event"",""trial"",""time""
""fullscreenenter"",""0"",""820""
""fullscreenexit"",""38"",""187307""
""blur"",""38"",""189019""
""focus"",""39"",""459127""
","""event"",""trial"",""time""
""blur"",""38"",""189019""
","""event"",""trial"",""time""
""focus"",""39"",""459127""
","""event"",""trial"",""time""
""fullscreenenter"",""0"",""820""
","""event"",""trial"",""time""
""fullscreenexit"",""38"",""187307""
","24.779999861493707","","","","","","","","49","1,1,0","0","highway","6","probe-206","0.6706210009837217","0.2668767104489329","0.14662972635107743","1","","","","","","","",""
"","html-keyboard-response","101","769723","0.0-60.0-1.0","""event"",""trial"",""time""
""fullscreenenter"",""0"",""820""
""fullscreenexit"",""38"",""187307""
""blur"",""38"",""189019""
""focus"",""39"",""459127""
","""event"",""trial"",""time""
""blur"",""38"",""189019""
","""event"",""trial"",""time""
""focus"",""39"",""459127""
","""event"",""trial"",""time""
""fullscreenenter"",""0"",""820""
","""event"",""trial"",""time""
""fullscreenexit"",""38"",""187307""
","null","<p></p>","null","","","","","","","","","","","","","","","","","","","","","","",""
"","do_trial","102","774581","0.0-61.0-0.0","""event"",""trial"",""time""
""fullscreenenter"",""0"",""820""
""fullscreenexit"",""38"",""187307""
""blur"",""38"",""189019""
""focus"",""39"",""459127""
","""event"",""trial"",""time""
""blur"",""38"",""189019""
","""event"",""trial"",""time""
""focus"",""39"",""459127""
","""event"",""trial"",""time""
""fullscreenenter"",""0"",""820""
","""event"",""trial"",""time""
""fullscreenexit"",""38"",""187307""
","312.0649999473244","","","","","","","","49","1,1,0","0","highway","7","probe-223","0.6164174751217851","0.14621454402548914","0.14262151731467834","1","","","","","","","",""
"","html-keyboard-response","103","775586","0.0-61.0-1.0","""event"",""trial"",""time""
""fullscreenenter"",""0"",""820""
""fullscreenexit"",""38"",""187307""
""blur"",""38"",""189019""
""focus"",""39"",""459127""
","""event"",""trial"",""time""
""blur"",""38"",""189019""
","""event"",""trial"",""time""
""focus"",""39"",""459127""
","""event"",""trial"",""time""
""fullscreenenter"",""0"",""820""
","""event"",""trial"",""time""
""fullscreenexit"",""38"",""187307""
","null","<p></p>","null","","","","","","","","","","","","","","","","","","","","","","",""
"","do_trial","104","781382","0.0-62.0-0.0","""event"",""trial"",""time""
""fullscreenenter"",""0"",""820""
""fullscreenexit"",""38"",""187307""
""blur"",""38"",""189019""
""focus"",""39"",""459127""
","""event"",""trial"",""time""
""blur"",""38"",""189019""
","""event"",""trial"",""time""
""focus"",""39"",""459127""
","""event"",""trial"",""time""
""fullscreenenter"",""0"",""820""
","""event"",""trial"",""time""
""fullscreenexit"",""38"",""187307""
","1245.3000000678003","","","","","","","","49","1,0,1","0","highway","8","probe-185","0.47552252706135956","0.10524408706470915","0.170397193824512","1","","","","","","","",""
"","html-keyboard-response","105","782387","0.0-62.0-1.0","""event"",""trial"",""time""
""fullscreenenter"",""0"",""820""
""fullscreenexit"",""38"",""187307""
""blur"",""38"",""189019""
""focus"",""39"",""459127""
","""event"",""trial"",""time""
""blur"",""38"",""189019""
","""event"",""trial"",""time""
""focus"",""39"",""459127""
","""event"",""trial"",""time""
""fullscreenenter"",""0"",""820""
","""event"",""trial"",""time""
""fullscreenexit"",""38"",""187307""
","null","<p></p>","null","","","","","","","","","","","","","","","","","","","","","","",""
"","do_trial","106","787225","0.0-63.0-0.0","""event"",""trial"",""time""
""fullscreenenter"",""0"",""820""
""fullscreenexit"",""38"",""187307""
""blur"",""38"",""189019""
""focus"",""39"",""459127""
","""event"",""trial"",""time""
""blur"",""38"",""189019""
","""event"",""trial"",""time""
""focus"",""39"",""459127""
","""event"",""trial"",""time""
""fullscreenenter"",""0"",""820""
","""event"",""trial"",""time""
""fullscreenexit"",""38"",""187307""
","287.9700001794845","","","","","","","","49","0,0,0","0","highway","9","probe-105","0.6094260790701354","0.16292881167530632","0.4467701163570107","0","","","","","","","",""
"","html-keyboard-response","107","788231","0.0-63.0-1.0","""event"",""trial"",""time""
""fullscreenenter"",""0"",""820""
""fullscreenexit"",""38"",""187307""
""blur"",""38"",""189019""
""focus"",""39"",""459127""
","""event"",""trial"",""time""
""blur"",""38"",""189019""
","""event"",""trial"",""time""
""focus"",""39"",""459127""
","""event"",""trial"",""time""
""fullscreenenter"",""0"",""820""
","""event"",""trial"",""time""
""fullscreenexit"",""38"",""187307""
","null","<p></p>","null","","","","","","","","","","","","","","","","","","","","","","",""
"","do_trial","108","793123","0.0-64.0-0.0","""event"",""trial"",""time""
""fullscreenenter"",""0"",""820""
""fullscreenexit"",""38"",""187307""
""blur"",""38"",""189019""
""focus"",""39"",""459127""
","""event"",""trial"",""time""
""blur"",""38"",""189019""
","""event"",""trial"",""time""
""focus"",""39"",""459127""
","""event"",""trial"",""time""
""fullscreenenter"",""0"",""820""
","""event"",""trial"",""time""
""fullscreenexit"",""38"",""187307""
","335.91500017791986","","","","","","","","49","1,0,0","0","highway","10","probe-204","0.5635366253125454","0.23194075743628273","0.19721724649346123","1","","","","","","","",""
"","html-keyboard-response","109","794127","0.0-64.0-1.0","""event"",""trial"",""time""
""fullscreenenter"",""0"",""820""
""fullscreenexit"",""38"",""187307""
""blur"",""38"",""189019""
""focus"",""39"",""459127""
","""event"",""trial"",""time""
""blur"",""38"",""189019""
","""event"",""trial"",""time""
""focus"",""39"",""459127""
","""event"",""trial"",""time""
""fullscreenenter"",""0"",""820""
","""event"",""trial"",""time""
""fullscreenexit"",""38"",""187307""
","null","<p></p>","null","","","","","","","","","","","","","","","","","","","","","","",""
"","do_trial","110","799094","0.0-65.0-0.0","""event"",""trial"",""time""
""fullscreenenter"",""0"",""820""
""fullscreenexit"",""38"",""187307""
""blur"",""38"",""189019""
""focus"",""39"",""459127""
","""event"",""trial"",""time""
""blur"",""38"",""189019""
","""event"",""trial"",""time""
""focus"",""39"",""459127""
","""event"",""trial"",""time""
""fullscreenenter"",""0"",""820""
","""event"",""trial"",""time""
""fullscreenexit"",""38"",""187307""
","420.44500005431473","","","","","","","","49","0,0,0","0","highway","11","probe-29","0.5869899748352208","0.3045059652005648","0.06639518195254601","0","","","","","","","",""
"","html-keyboard-response","111","800097","0.0-65.0-1.0","""event"",""trial"",""time""
""fullscreenenter"",""0"",""820""
""fullscreenexit"",""38"",""187307""
""blur"",""38"",""189019""
""focus"",""39"",""459127""
","""event"",""trial"",""time""
""blur"",""38"",""189019""
","""event"",""trial"",""time""
""focus"",""39"",""459127""
","""event"",""trial"",""time""
""fullscreenenter"",""0"",""820""
","""event"",""trial"",""time""
""fullscreenexit"",""38"",""187307""
","null","<p></p>","null","","","","","","","","","","","","","","","","","","","","","","",""
"","do_trial","112","805036","0.0-66.0-0.0","""event"",""trial"",""time""
""fullscreenenter"",""0"",""820""
""fullscreenexit"",""38"",""187307""
""blur"",""38"",""189019""
""focus"",""39"",""459127""
","""event"",""trial"",""time""
""blur"",""38"",""189019""
","""event"",""trial"",""time""
""focus"",""39"",""459127""
","""event"",""trial"",""time""
""fullscreenenter"",""0"",""820""
","""event"",""trial"",""time""
""fullscreenexit"",""38"",""187307""
","388.55000003241","","","","","","","","49","0,0,0","0","highway","12","probe-123","0.5093173957078834","0.2290375523112121","0.08346690943355674","0","","","","","","","",""
"","html-keyboard-response","113","806041","0.0-66.0-1.0","""event"",""trial"",""time""
""fullscreenenter"",""0"",""820""
""fullscreenexit"",""38"",""187307""
""blur"",""38"",""189019""
""focus"",""39"",""459127""
","""event"",""trial"",""time""
""blur"",""38"",""189019""
","""event"",""trial"",""time""
""focus"",""39"",""459127""
","""event"",""trial"",""time""
""fullscreenenter"",""0"",""820""
","""event"",""trial"",""time""
""fullscreenexit"",""38"",""187307""
","null","<p></p>","null","","","","","","","","","","","","","","","","","","","","","","",""
"","do_trial","114","810906","0.0-67.0-0.0","""event"",""trial"",""time""
""fullscreenenter"",""0"",""820""
""fullscreenexit"",""38"",""187307""
""blur"",""38"",""189019""
""focus"",""39"",""459127""
","""event"",""trial"",""time""
""blur"",""38"",""189019""
","""event"",""trial"",""time""
""focus"",""39"",""459127""
","""event"",""trial"",""time""
""fullscreenenter"",""0"",""820""
","""event"",""trial"",""time""
""fullscreenexit"",""38"",""187307""
","319.5199999026954","","","","","","","","49","0,0,1","0","highway","13","probe-135","0.481075242383633","0.2068630495807949","0.1128501372709959","0","","","","","","","",""
"","html-keyboard-response","115","811909","0.0-67.0-1.0","""event"",""trial"",""time""
""fullscreenenter"",""0"",""820""
""fullscreenexit"",""38"",""187307""
""blur"",""38"",""189019""
""focus"",""39"",""459127""
","""event"",""trial"",""time""
""blur"",""38"",""189019""
","""event"",""trial"",""time""
""focus"",""39"",""459127""
","""event"",""trial"",""time""
""fullscreenenter"",""0"",""820""
","""event"",""trial"",""time""
""fullscreenexit"",""38"",""187307""
","null","<p></p>","null","","","","","","","","","","","","","","","","","","","","","","",""
"","do_trial","116","816775","0.0-68.0-0.0","""event"",""trial"",""time""
""fullscreenenter"",""0"",""820""
""fullscreenexit"",""38"",""187307""
""blur"",""38"",""189019""
""focus"",""39"",""459127""
","""event"",""trial"",""time""
""blur"",""38"",""189019""
","""event"",""trial"",""time""
""focus"",""39"",""459127""
","""event"",""trial"",""time""
""fullscreenenter"",""0"",""820""
","""event"",""trial"",""time""
""fullscreenexit"",""38"",""187307""
","319.1150000784546","","","","","","","","49","1,0,0","0","highway","14","probe-14","0.47248697241300286","0.29229850944494723","0.08742296561019257","1","","","","","","","",""
"","html-keyboard-response","117","817779","0.0-68.0-1.0","""event"",""trial"",""time""
""fullscreenenter"",""0"",""820""
""fullscreenexit"",""38"",""187307""
""blur"",""38"",""189019""
""focus"",""39"",""459127""
","""event"",""trial"",""time""
""blur"",""38"",""189019""
","""event"",""trial"",""time""
""focus"",""39"",""459127""
","""event"",""trial"",""time""
""fullscreenenter"",""0"",""820""
","""event"",""trial"",""time""
""fullscreenexit"",""38"",""187307""
","null","<p></p>","null","","","","","","","","","","","","","","","","","","","","","","",""
"","do_trial","118","822638","0.0-69.0-0.0","""event"",""trial"",""time""
""fullscreenenter"",""0"",""820""
""fullscreenexit"",""38"",""187307""
""blur"",""38"",""189019""
""focus"",""39"",""459127""
","""event"",""trial"",""time""
""blur"",""38"",""189019""
","""event"",""trial"",""time""
""focus"",""39"",""459127""
","""event"",""trial"",""time""
""fullscreenenter"",""0"",""820""
","""event"",""trial"",""time""
""fullscreenexit"",""38"",""187307""
","310.32500020228326","","","","","","","","49","0,0,0","0","highway","15","probe-129","0.49939571484943457","0.4139578268159638","0.19441664548735077","0","","","","","","","",""
"","html-keyboard-response","119","823642","0.0-69.0-1.0","""event"",""trial"",""time""
""fullscreenenter"",""0"",""820""
""fullscreenexit"",""38"",""187307""
""blur"",""38"",""189019""
""focus"",""39"",""459127""
","""event"",""trial"",""time""
""blur"",""38"",""189019""
","""event"",""trial"",""time""
""focus"",""39"",""459127""
","""event"",""trial"",""time""
""fullscreenenter"",""0"",""820""
","""event"",""trial"",""time""
""fullscreenexit"",""38"",""187307""
","null","<p></p>","null","","","","","","","","","","","","","","","","","","","","","","",""
"","do_trial","120","828573","0.0-70.0-0.0","""event"",""trial"",""time""
""fullscreenenter"",""0"",""820""
""fullscreenexit"",""38"",""187307""
""blur"",""38"",""189019""
""focus"",""39"",""459127""
","""event"",""trial"",""time""
""blur"",""38"",""189019""
","""event"",""trial"",""time""
""focus"",""39"",""459127""
","""event"",""trial"",""time""
""fullscreenenter"",""0"",""820""
","""event"",""trial"",""time""
""fullscreenexit"",""38"",""187307""
","382.74000003002584","","","","","","","","49","1,0,0","0","highway","16","probe-54","0.46296020838976637","0.2789680281756421","0.27069316971544144","1","","","","","","","",""
"","html-keyboard-response","121","829577","0.0-70.0-1.0","""event"",""trial"",""time""
""fullscreenenter"",""0"",""820""
""fullscreenexit"",""38"",""187307""
""blur"",""38"",""189019""
""focus"",""39"",""459127""
","""event"",""trial"",""time""
""blur"",""38"",""189019""
","""event"",""trial"",""time""
""focus"",""39"",""459127""
","""event"",""trial"",""time""
""fullscreenenter"",""0"",""820""
","""event"",""trial"",""time""
""fullscreenexit"",""38"",""187307""
","null","<p></p>","null","","","","","","","","","","","","","","","","","","","","","","",""
"","do_trial","122","834609","0.0-71.0-0.0","""event"",""trial"",""time""
""fullscreenenter"",""0"",""820""
""fullscreenexit"",""38"",""187307""
""blur"",""38"",""189019""
""focus"",""39"",""459127""
","""event"",""trial"",""time""
""blur"",""38"",""189019""
","""event"",""trial"",""time""
""focus"",""39"",""459127""
","""event"",""trial"",""time""
""fullscreenenter"",""0"",""820""
","""event"",""trial"",""time""
""fullscreenexit"",""38"",""187307""
","486.585000064224","","","","","","","","49","1,0,0","0","highway","17","probe-59","0.4467782121101708","0.11703150424343402","0.42102630816757464","1","","","","","","","",""
"","html-keyboard-response","123","835613","0.0-71.0-1.0","""event"",""trial"",""time""
""fullscreenenter"",""0"",""820""
""fullscreenexit"",""38"",""187307""
""blur"",""38"",""189019""
""focus"",""39"",""459127""
","""event"",""trial"",""time""
""blur"",""38"",""189019""
","""event"",""trial"",""time""
""focus"",""39"",""459127""
","""event"",""trial"",""time""
""fullscreenenter"",""0"",""820""
","""event"",""trial"",""time""
""fullscreenexit"",""38"",""187307""
","null","<p></p>","null","","","","","","","","","","","","","","","","","","","","","","",""
"","do_trial","124","840704","0.0-72.0-0.0","""event"",""trial"",""time""
""fullscreenenter"",""0"",""820""
""fullscreenexit"",""38"",""187307""
""blur"",""38"",""189019""
""focus"",""39"",""459127""
","""event"",""trial"",""time""
""blur"",""38"",""189019""
","""event"",""trial"",""time""
""focus"",""39"",""459127""
","""event"",""trial"",""time""
""fullscreenenter"",""0"",""820""
","""event"",""trial"",""time""
""fullscreenexit"",""38"",""187307""
","542.8500000853091","","","","","","","","49","1,0,0","0","highway","18","probe-154","0.5297223924319333","0.369148700484193","0.24793156746154346","1","","","","","","","",""
"","html-keyboard-response","125","841710","0.0-72.0-1.0","""event"",""trial"",""time""
""fullscreenenter"",""0"",""820""
""fullscreenexit"",""38"",""187307""
""blur"",""38"",""189019""
""focus"",""39"",""459127""
","""event"",""trial"",""time""
""blur"",""38"",""189019""
","""event"",""trial"",""time""
""focus"",""39"",""459127""
","""event"",""trial"",""time""
""fullscreenenter"",""0"",""820""
","""event"",""trial"",""time""
""fullscreenexit"",""38"",""187307""
","null","<p></p>","null","","","","","","","","","","","","","","","","","","","","","","",""
"","do_trial","126","847109","0.0-73.0-0.0","""event"",""trial"",""time""
""fullscreenenter"",""0"",""820""
""fullscreenexit"",""38"",""187307""
""blur"",""38"",""189019""
""focus"",""39"",""459127""
","""event"",""trial"",""time""
""blur"",""38"",""189019""
","""event"",""trial"",""time""
""focus"",""39"",""459127""
","""event"",""trial"",""time""
""fullscreenenter"",""0"",""820""
","""event"",""trial"",""time""
""fullscreenexit"",""38"",""187307""
","855.9999999124557","","","","","","","","49","1,1,0","0","highway","19","probe-207","0.5635591717404493","0.35031813071624274","0.21573852598535637","1","","","","","","","",""
"","html-keyboard-response","127","848110","0.0-73.0-1.0","""event"",""trial"",""time""
""fullscreenenter"",""0"",""820""
""fullscreenexit"",""38"",""187307""
""blur"",""38"",""189019""
""focus"",""39"",""459127""
","""event"",""trial"",""time""
""blur"",""38"",""189019""
","""event"",""trial"",""time""
""focus"",""39"",""459127""
","""event"",""trial"",""time""
""fullscreenenter"",""0"",""820""
","""event"",""trial"",""time""
""fullscreenexit"",""38"",""187307""
","null","<p></p>","null","","","","","","","","","","","","","","","","","","","","","","",""
"","do_trial","128","852896","0.0-74.0-0.0","""event"",""trial"",""time""
""fullscreenenter"",""0"",""820""
""fullscreenexit"",""38"",""187307""
""blur"",""38"",""189019""
""focus"",""39"",""459127""
","""event"",""trial"",""time""
""blur"",""38"",""189019""
","""event"",""trial"",""time""
""focus"",""39"",""459127""
","""event"",""trial"",""time""
""fullscreenenter"",""0"",""820""
","""event"",""trial"",""time""
""fullscreenexit"",""38"",""187307""
","233.2949999254197","","","","","","","","49","1,1,0","0","highway","20","probe-04","0.5679851500857097","0.3061913359139244","0.0949175211011706","1","","","","","","","",""
"","html-keyboard-response","129","853900","0.0-74.0-1.0","""event"",""trial"",""time""
""fullscreenenter"",""0"",""820""
""fullscreenexit"",""38"",""187307""
""blur"",""38"",""189019""
""focus"",""39"",""459127""
","""event"",""trial"",""time""
""blur"",""38"",""189019""
","""event"",""trial"",""time""
""focus"",""39"",""459127""
","""event"",""trial"",""time""
""fullscreenenter"",""0"",""820""
","""event"",""trial"",""time""
""fullscreenexit"",""38"",""187307""
","null","<p></p>","null","","","","","","","","","","","","","","","","","","","","","","",""
"","do_trial","130","858774","0.0-75.0-0.0","""event"",""trial"",""time""
""fullscreenenter"",""0"",""820""
""fullscreenexit"",""38"",""187307""
""blur"",""38"",""189019""
""focus"",""39"",""459127""
","""event"",""trial"",""time""
""blur"",""38"",""189019""
","""event"",""trial"",""time""
""focus"",""39"",""459127""
","""event"",""trial"",""time""
""fullscreenenter"",""0"",""820""
","""event"",""trial"",""time""
""fullscreenexit"",""38"",""187307""
","326.9100000616163","","","","","","","","49","0,0,0","0","highway","21","probe-192","0.5786347624429101","0.23065755297694104","0.1303752731602885","0","","","","","","","",""
"","html-keyboard-response","131","859776","0.0-75.0-1.0","""event"",""trial"",""time""
""fullscreenenter"",""0"",""820""
""fullscreenexit"",""38"",""187307""
""blur"",""38"",""189019""
""focus"",""39"",""459127""
","""event"",""trial"",""time""
""blur"",""38"",""189019""
","""event"",""trial"",""time""
""focus"",""39"",""459127""
","""event"",""trial"",""time""
""fullscreenenter"",""0"",""820""
","""event"",""trial"",""time""
""fullscreenexit"",""38"",""187307""
","null","<p></p>","null","","","","","","","","","","","","","","","","","","","","","","",""
"","do_trial","132","864582","0.0-76.0-0.0","""event"",""trial"",""time""
""fullscreenenter"",""0"",""820""
""fullscreenexit"",""38"",""187307""
""blur"",""38"",""189019""
""focus"",""39"",""459127""
","""event"",""trial"",""time""
""blur"",""38"",""189019""
","""event"",""trial"",""time""
""focus"",""39"",""459127""
","""event"",""trial"",""time""
""fullscreenenter"",""0"",""820""
","""event"",""trial"",""time""
""fullscreenexit"",""38"",""187307""
","259.07999998889863","","","","","","","","49","1,0,0","0","highway","22","probe-106","0.5503977576778468","0.30650262665685446","0.05862343223665938","1","","","","","","","",""
"","html-keyboard-response","133","865584","0.0-76.0-1.0","""event"",""trial"",""time""
""fullscreenenter"",""0"",""820""
""fullscreenexit"",""38"",""187307""
""blur"",""38"",""189019""
""focus"",""39"",""459127""
","""event"",""trial"",""time""
""blur"",""38"",""189019""
","""event"",""trial"",""time""
""focus"",""39"",""459127""
","""event"",""trial"",""time""
""fullscreenenter"",""0"",""820""
","""event"",""trial"",""time""
""fullscreenexit"",""38"",""187307""
","null","<p></p>","null","","","","","","","","","","","","","","","","","","","","","","",""
"","do_trial","134","870450","0.0-77.0-0.0","""event"",""trial"",""time""
""fullscreenenter"",""0"",""820""
""fullscreenexit"",""38"",""187307""
""blur"",""38"",""189019""
""focus"",""39"",""459127""
","""event"",""trial"",""time""
""blur"",""38"",""189019""
","""event"",""trial"",""time""
""focus"",""39"",""459127""
","""event"",""trial"",""time""
""fullscreenenter"",""0"",""820""
","""event"",""trial"",""time""
""fullscreenexit"",""38"",""187307""
","316.3499999791384","","","","","","","","49","1,1,0","0","highway","23","probe-139","0.5523657767169903","0.245589671182107","0.0625035742760158","1","","","","","","","",""
"","html-keyboard-response","135","871455","0.0-77.0-1.0","""event"",""trial"",""time""
""fullscreenenter"",""0"",""820""
""fullscreenexit"",""38"",""187307""
""blur"",""38"",""189019""
""focus"",""39"",""459127""
","""event"",""trial"",""time""
""blur"",""38"",""189019""
","""event"",""trial"",""time""
""focus"",""39"",""459127""
","""event"",""trial"",""time""
""fullscreenenter"",""0"",""820""
","""event"",""trial"",""time""
""fullscreenexit"",""38"",""187307""
","null","<p></p>","null","","","","","","","","","","","","","","","","","","","","","","",""
"","do_trial","136","877155","0.0-78.0-0.0","""event"",""trial"",""time""
""fullscreenenter"",""0"",""820""
""fullscreenexit"",""38"",""187307""
""blur"",""38"",""189019""
""focus"",""39"",""459127""
","""event"",""trial"",""time""
""blur"",""38"",""189019""
","""event"",""trial"",""time""
""focus"",""39"",""459127""
","""event"",""trial"",""time""
""fullscreenenter"",""0"",""820""
","""event"",""trial"",""time""
""fullscreenexit"",""38"",""187307""
","1155.269999988377","","","","","","","","49","1,0,1","0","highway","24","probe-50","0.544770808998164","0.27600946154336375","0.21136782331772153","1","","","","","","","",""
"","html-keyboard-response","137","878162","0.0-78.0-1.0","""event"",""trial"",""time""
""fullscreenenter"",""0"",""820""
""fullscreenexit"",""38"",""187307""
""blur"",""38"",""189019""
""focus"",""39"",""459127""
","""event"",""trial"",""time""
""blur"",""38"",""189019""
","""event"",""trial"",""time""
""focus"",""39"",""459127""
","""event"",""trial"",""time""
""fullscreenenter"",""0"",""820""
","""event"",""trial"",""time""
""fullscreenexit"",""38"",""187307""
","null","<p></p>","null","","","","","","","","","","","","","","","","","","","","","","",""
"","do_trial","138","883750","0.0-79.0-0.0","""event"",""trial"",""time""
""fullscreenenter"",""0"",""820""
""fullscreenexit"",""38"",""187307""
""blur"",""38"",""189019""
""focus"",""39"",""459127""
","""event"",""trial"",""time""
""blur"",""38"",""189019""
","""event"",""trial"",""time""
""focus"",""39"",""459127""
","""event"",""trial"",""time""
""fullscreenenter"",""0"",""820""
","""event"",""trial"",""time""
""fullscreenexit"",""38"",""187307""
","1043.7700001057237","","","","","","","","49","1,1,0","0","highway","25","probe-11","0.6925323473879675","0.288910882507128","0.2686631498714705","1","","","","","","","",""
"","html-keyboard-response","139","884753","0.0-79.0-1.0","""event"",""trial"",""time""
""fullscreenenter"",""0"",""820""
""fullscreenexit"",""38"",""187307""
""blur"",""38"",""189019""
""focus"",""39"",""459127""
","""event"",""trial"",""time""
""blur"",""38"",""189019""
","""event"",""trial"",""time""
""focus"",""39"",""459127""
","""event"",""trial"",""time""
""fullscreenenter"",""0"",""820""
","""event"",""trial"",""time""
""fullscreenexit"",""38"",""187307""
","null","<p></p>","null","","","","","","","","","","","","","","","","","","","","","","",""
"","do_trial","140","889986","0.0-80.0-0.0","""event"",""trial"",""time""
""fullscreenenter"",""0"",""820""
""fullscreenexit"",""38"",""187307""
""blur"",""38"",""189019""
""focus"",""39"",""459127""
","""event"",""trial"",""time""
""blur"",""38"",""189019""
","""event"",""trial"",""time""
""focus"",""39"",""459127""
","""event"",""trial"",""time""
""fullscreenenter"",""0"",""820""
","""event"",""trial"",""time""
""fullscreenexit"",""38"",""187307""
","691.4099999703467","","","","","","","","49","0,0,1","0","highway","26","probe-158","0.6533671699139016","0.2664810907150282","0.2020784905310897","0","","","","","","","",""
"","html-keyboard-response","141","890991","0.0-80.0-1.0","""event"",""trial"",""time""
""fullscreenenter"",""0"",""820""
""fullscreenexit"",""38"",""187307""
""blur"",""38"",""189019""
""focus"",""39"",""459127""
","""event"",""trial"",""time""
""blur"",""38"",""189019""
","""event"",""trial"",""time""
""focus"",""39"",""459127""
","""event"",""trial"",""time""
""fullscreenenter"",""0"",""820""
","""event"",""trial"",""time""
""fullscreenexit"",""38"",""187307""
","null","<p></p>","null","","","","","","","","","","","","","","","","","","","","","","",""
"","do_trial","142","895821","0.0-81.0-0.0","""event"",""trial"",""time""
""fullscreenenter"",""0"",""820""
""fullscreenexit"",""38"",""187307""
""blur"",""38"",""189019""
""focus"",""39"",""459127""
","""event"",""trial"",""time""
""blur"",""38"",""189019""
","""event"",""trial"",""time""
""focus"",""39"",""459127""
","""event"",""trial"",""time""
""fullscreenenter"",""0"",""820""
","""event"",""trial"",""time""
""fullscreenexit"",""38"",""187307""
","286.29499999806285","","","","","","","","49","0,1,0","0","highway","27","probe-205","0.5913144767351731","0.2026720665764926","0.1349946778252748","0","","","","","","","",""
"","html-keyboard-response","143","896823","0.0-81.0-1.0","""event"",""trial"",""time""
""fullscreenenter"",""0"",""820""
""fullscreenexit"",""38"",""187307""
""blur"",""38"",""189019""
""focus"",""39"",""459127""
","""event"",""trial"",""time""
""blur"",""38"",""189019""
","""event"",""trial"",""time""
""focus"",""39"",""459127""
","""event"",""trial"",""time""
""fullscreenenter"",""0"",""820""
","""event"",""trial"",""time""
""fullscreenexit"",""38"",""187307""
","null","<p></p>","null","","","","","","","","","","","","","","","","","","","","","","",""
"","do_trial","144","901811","0.0-82.0-0.0","""event"",""trial"",""time""
""fullscreenenter"",""0"",""820""
""fullscreenexit"",""38"",""187307""
""blur"",""38"",""189019""
""focus"",""39"",""459127""
","""event"",""trial"",""time""
""blur"",""38"",""189019""
","""event"",""trial"",""time""
""focus"",""39"",""459127""
","""event"",""trial"",""time""
""fullscreenenter"",""0"",""820""
","""event"",""trial"",""time""
""fullscreenexit"",""38"",""187307""
","443.3500000741333","","","","","","","","49","1,1,0","0","highway","28","probe-63","0.6127941130481505","0.35716042864056446","0.10714844258911549","1","","","","","","","",""
"","html-keyboard-response","145","902816","0.0-82.0-1.0","""event"",""trial"",""time""
""fullscreenenter"",""0"",""820""
""fullscreenexit"",""38"",""187307""
""blur"",""38"",""189019""
""focus"",""39"",""459127""
","""event"",""trial"",""time""
""blur"",""38"",""189019""
","""event"",""trial"",""time""
""focus"",""39"",""459127""
","""event"",""trial"",""time""
""fullscreenenter"",""0"",""820""
","""event"",""trial"",""time""
""fullscreenexit"",""38"",""187307""
","null","<p></p>","null","","","","","","","","","","","","","","","","","","","","","","",""
"","do_trial","146","909393","0.0-83.0-0.0","""event"",""trial"",""time""
""fullscreenenter"",""0"",""820""
""fullscreenexit"",""38"",""187307""
""blur"",""38"",""189019""
""focus"",""39"",""459127""
","""event"",""trial"",""time""
""blur"",""38"",""189019""
","""event"",""trial"",""time""
""focus"",""39"",""459127""
","""event"",""trial"",""time""
""fullscreenenter"",""0"",""820""
","""event"",""trial"",""time""
""fullscreenexit"",""38"",""187307""
","2031.6800000146031","","","","","","","","49","1,0,0","0","highway","29","probe-145","0.5492523573601112","0.20148055317148847","0.11866457567073696","1","","","","","","","",""
"","html-keyboard-response","147","910398","0.0-83.0-1.0","""event"",""trial"",""time""
""fullscreenenter"",""0"",""820""
""fullscreenexit"",""38"",""187307""
""blur"",""38"",""189019""
""focus"",""39"",""459127""
","""event"",""trial"",""time""
""blur"",""38"",""189019""
","""event"",""trial"",""time""
""focus"",""39"",""459127""
","""event"",""trial"",""time""
""fullscreenenter"",""0"",""820""
","""event"",""trial"",""time""
""fullscreenexit"",""38"",""187307""
","null","<p></p>","null","","","","","","","","","","","","","","","","","","","","","","",""
"","do_bye","148","911902","0.0-84.0-0.0","""event"",""trial"",""time""
""fullscreenenter"",""0"",""820""
""fullscreenexit"",""38"",""187307""
""blur"",""38"",""189019""
""focus"",""39"",""459127""
","""event"",""trial"",""time""
""blur"",""38"",""189019""
","""event"",""trial"",""time""
""focus"",""39"",""459127""
","""event"",""trial"",""time""
""fullscreenenter"",""0"",""820""
","""event"",""trial"",""time""
""fullscreenexit"",""38"",""187307""
","null","","","","","","","","null","","","","","","","","","","","","","","","","",""
"","break","149","913837","0.0-84.0-1.0","""event"",""trial"",""time""
""fullscreenenter"",""0"",""820""
""fullscreenexit"",""38"",""187307""
""blur"",""38"",""189019""
""focus"",""39"",""459127""
","""event"",""trial"",""time""
""blur"",""38"",""189019""
","""event"",""trial"",""time""
""focus"",""39"",""459127""
","""event"",""trial"",""time""
""fullscreenenter"",""0"",""820""
","""event"",""trial"",""time""
""fullscreenexit"",""38"",""187307""
","1933.1350000575185","<div class='center'><p>Time to take a quick break! You have 2 minutes to rest, but you can move on sooner if you'd like.</p><p> Press the <b>space bar</b> to continue.</p></div>","32","","","","","","","","","","","","","","","","","","","","","","",""
"","do_travel","150","922839","0.0-85.0-0.0","""event"",""trial"",""time""
""fullscreenenter"",""0"",""820""
""fullscreenexit"",""38"",""187307""
""blur"",""38"",""189019""
""focus"",""39"",""459127""
","""event"",""trial"",""time""
""blur"",""38"",""189019""
","""event"",""trial"",""time""
""focus"",""39"",""459127""
","""event"",""trial"",""time""
""fullscreenenter"",""0"",""820""
","""event"",""trial"",""time""
""fullscreenexit"",""38"",""187307""
","null","","","","","","","","null","","","","","","","","","","","","","","","","",""
"","do_welcome","151","926847","0.0-85.0-1.0","""event"",""trial"",""time""
""fullscreenenter"",""0"",""820""
""fullscreenexit"",""38"",""187307""
""blur"",""38"",""189019""
""focus"",""39"",""459127""
","""event"",""trial"",""time""
""blur"",""38"",""189019""
","""event"",""trial"",""time""
""focus"",""39"",""459127""
","""event"",""trial"",""time""
""fullscreenenter"",""0"",""820""
","""event"",""trial"",""time""
""fullscreenexit"",""38"",""187307""
","null","","","","","","","","null","","","","","","","","","","","","","","","","",""
"","do_trial","152","932420","0.0-86.0-0.0","""event"",""trial"",""time""
""fullscreenenter"",""0"",""820""
""fullscreenexit"",""38"",""187307""
""blur"",""38"",""189019""
""focus"",""39"",""459127""
","""event"",""trial"",""time""
""blur"",""38"",""189019""
","""event"",""trial"",""time""
""focus"",""39"",""459127""
","""event"",""trial"",""time""
""fullscreenenter"",""0"",""820""
","""event"",""trial"",""time""
""fullscreenexit"",""38"",""187307""
","1026.490000076592","","","","","","","","49","1,0,0","1","coast","30","probe-118","1","0.06556704211441496","0.09570779892241166","1","","","","","","","",""
"","html-keyboard-response","153","933424","0.0-86.0-1.0","""event"",""trial"",""time""
""fullscreenenter"",""0"",""820""
""fullscreenexit"",""38"",""187307""
""blur"",""38"",""189019""
""focus"",""39"",""459127""
","""event"",""trial"",""time""
""blur"",""38"",""189019""
","""event"",""trial"",""time""
""focus"",""39"",""459127""
","""event"",""trial"",""time""
""fullscreenenter"",""0"",""820""
","""event"",""trial"",""time""
""fullscreenexit"",""38"",""187307""
","null","<p></p>","null","","","","","","","","","","","","","","","","","","","","","","",""
"","do_trial","154","938170","0.0-87.0-0.0","""event"",""trial"",""time""
""fullscreenenter"",""0"",""820""
""fullscreenexit"",""38"",""187307""
""blur"",""38"",""189019""
""focus"",""39"",""459127""
","""event"",""trial"",""time""
""blur"",""38"",""189019""
","""event"",""trial"",""time""
""focus"",""39"",""459127""
","""event"",""trial"",""time""
""fullscreenenter"",""0"",""820""
","""event"",""trial"",""time""
""fullscreenexit"",""38"",""187307""
","199.98499983921647","","","","","","","","49","1,0,0","1","coast","31","probe-61","1","0.23298323012791947","0.10616395570450618","1","","","","","","","",""
"","html-keyboard-response","155","939171","0.0-87.0-1.0","""event"",""trial"",""time""
""fullscreenenter"",""0"",""820""
""fullscreenexit"",""38"",""187307""
""blur"",""38"",""189019""
""focus"",""39"",""459127""
","""event"",""trial"",""time""
""blur"",""38"",""189019""
","""event"",""trial"",""time""
""focus"",""39"",""459127""
","""event"",""trial"",""time""
""fullscreenenter"",""0"",""820""
","""event"",""trial"",""time""
""fullscreenexit"",""38"",""187307""
","null","<p></p>","null","","","","","","","","","","","","","","","","","","","","","","",""
"","do_trial","156","943979","0.0-88.0-0.0","""event"",""trial"",""time""
""fullscreenenter"",""0"",""820""
""fullscreenexit"",""38"",""187307""
""blur"",""38"",""189019""
""focus"",""39"",""459127""
","""event"",""trial"",""time""
""blur"",""38"",""189019""
","""event"",""trial"",""time""
""focus"",""39"",""459127""
","""event"",""trial"",""time""
""fullscreenenter"",""0"",""820""
","""event"",""trial"",""time""
""fullscreenexit"",""38"",""187307""
","265.3950001113117","","","","","","","","49","1,0,0","1","coast","32","probe-194","1","0.2063143003440482","0.06629933016756753","1","","","","","","","",""
"","html-keyboard-response","157","944982","0.0-88.0-1.0","""event"",""trial"",""time""
""fullscreenenter"",""0"",""820""
""fullscreenexit"",""38"",""187307""
""blur"",""38"",""189019""
""focus"",""39"",""459127""
","""event"",""trial"",""time""
""blur"",""38"",""189019""
","""event"",""trial"",""time""
""focus"",""39"",""459127""
","""event"",""trial"",""time""
""fullscreenenter"",""0"",""820""
","""event"",""trial"",""time""
""fullscreenexit"",""38"",""187307""
","null","<p></p>","null","","","","","","","","","","","","","","","","","","","","","","",""
"","do_trial","158","949797","0.0-89.0-0.0","""event"",""trial"",""time""
""fullscreenenter"",""0"",""820""
""fullscreenexit"",""38"",""187307""
""blur"",""38"",""189019""
""focus"",""39"",""459127""
","""event"",""trial"",""time""
""blur"",""38"",""189019""
","""event"",""trial"",""time""
""focus"",""39"",""459127""
","""event"",""trial"",""time""
""fullscreenenter"",""0"",""820""
","""event"",""trial"",""time""
""fullscreenexit"",""38"",""187307""
","269.2350000143051","","","","","","","","49","0,0,0","1","coast","33","probe-88","0.8655500068488006","0.22271764747226683","0.1615561421595168","0","","","","","","","",""
"","html-keyboard-response","159","950799","0.0-89.0-1.0","""event"",""trial"",""time""
""fullscreenenter"",""0"",""820""
""fullscreenexit"",""38"",""187307""
""blur"",""38"",""189019""
""focus"",""39"",""459127""
","""event"",""trial"",""time""
""blur"",""38"",""189019""
","""event"",""trial"",""time""
""focus"",""39"",""459127""
","""event"",""trial"",""time""
""fullscreenenter"",""0"",""820""
","""event"",""trial"",""time""
""fullscreenexit"",""38"",""187307""
","null","<p></p>","null","","","","","","","","","","","","","","","","","","","","","","",""
"","do_trial","160","955645","0.0-90.0-0.0","""event"",""trial"",""time""
""fullscreenenter"",""0"",""820""
""fullscreenexit"",""38"",""187307""
""blur"",""38"",""189019""
""focus"",""39"",""459127""
","""event"",""trial"",""time""
""blur"",""38"",""189019""
","""event"",""trial"",""time""
""focus"",""39"",""459127""
","""event"",""trial"",""time""
""fullscreenenter"",""0"",""820""
","""event"",""trial"",""time""
""fullscreenexit"",""38"",""187307""
","299.7249998152256","","","","","","","","49","1,0,0","1","coast","34","probe-188","0.8459810031179139","0.23954904171257344","0.274019916980527","1","","","","","","","",""
"","html-keyboard-response","161","956649","0.0-90.0-1.0","""event"",""trial"",""time""
""fullscreenenter"",""0"",""820""
""fullscreenexit"",""38"",""187307""
""blur"",""38"",""189019""
""focus"",""39"",""459127""
","""event"",""trial"",""time""
""blur"",""38"",""189019""
","""event"",""trial"",""time""
