"success","trial_type","trial_index","time_elapsed","internal_node_id","interactions","blur_events","focus_events","fullscreenenter_events","fullscreenexit_events","rt","stimulus","key_press","subject_id","participant_id","age","gender","prompt","response","choice_outcomes","context_n","context_img_id","trial_n","probe_img_id","pR_red","pR_white","pR_black","outcome","contextArray_ind","validImageProbes","invalidImageProbes","pRew_Red","pRew_White","pRew_Black","availableForMemProbe","choice_blocks"
"true","fullscreen","0","3532","0.0-0.0","""event"",""trial"",""time""
""fullscreenenter"",""0"",""2614""
","
","
","""event"",""trial"",""time""
""fullscreenenter"",""0"",""2614""
","
","","","","","","","","","","","","","","","","","","","","","","","","","",""
"","pavlovia","1","3535","0.0-1.0","""event"",""trial"",""time""
""fullscreenenter"",""0"",""2614""
","
","
","""event"",""trial"",""time""
""fullscreenenter"",""0"",""2614""
","
","","","","","","","","","","","","","","","","","","","","","","","","","",""
"","instruc1","2","48879","0.0-2.0","""event"",""trial"",""time""
""fullscreenenter"",""0"",""2614""
","
","
","""event"",""trial"",""time""
""fullscreenenter"",""0"",""2614""
","
","null","run_exp/static/audio/clip_1_welcome.m4a","null","255","774","12","Female","<div class='center'><p>Welcome! This is the first part of the study. It will last ~30 minutes. In part 1 and part 2 of the study, you are the head captain of a pirate ship traveling around the world to different islands. You will play a few different games throughout these two parts. Here is an overview of them:</p><br><p>Part 1 (today)</p><p>1. Instructions, practice game, and quiz</p><p>2. Pick a pirate game on 6 different islands</p><br><p>Part 2 (tomorrow)</p><p>3. Pick a pirate game and memory game</p><p>4. Where did you see this ship? </p></div>","","","","","","","","","","","","","","","","","",""
"","html-keyboard-response","3","50698","0.0-3.0","""event"",""trial"",""time""
""fullscreenenter"",""0"",""2614""
","
","
","""event"",""trial"",""time""
""fullscreenenter"",""0"",""2614""
","
","1817.8999999985099","<div class='center'><p>Welcome! This is the first part of the study. It will last ~30 minutes. In part 1 and part 2 of the study, you are the head captain of a pirate ship traveling around the world to different islands. You will play a few different games throughout these two parts. Here is an overview of them:</p><br><p>Part 1 (today)</p><p>1. Instructions, practice game, and quiz</p><p>2. Pick a pirate game on 6 different islands</p><br><p>Part 2 (tomorrow)</p><p>3. Pick a pirate game and memory game</p><p>4. Where did you see this ship? </p><p><b>[Press the space bar to continue]</b></p></div>","32","","","","","","","","","","","","","","","","","","","","","","",""
"","instruc2","4","56007","0.0-4.0","""event"",""trial"",""time""
""fullscreenenter"",""0"",""2614""
","
","
","""event"",""trial"",""time""
""fullscreenenter"",""0"",""2614""
","
","null","run_exp/static/audio/clip_2_different_places.m4a","null","","","","","<div class='center'><p>Today, you’ll visit these 6 islands on your journey. You'll be able to see these islands from your ship.</p><p><img src='run_exp/static/images/contexts/all_contexts.png' height='500'></p></div>","","","","","","","","","","","","","","","","","",""
"","html-keyboard-response","5","57821","0.0-5.0","""event"",""trial"",""time""
""fullscreenenter"",""0"",""2614""
","
","
","""event"",""trial"",""time""
""fullscreenenter"",""0"",""2614""
","
","1813.8999999985099","<div class='center'><p>Today, you’ll visit these 6 islands on your journey. You'll be able to see these islands from your ship.</p><p><img src='run_exp/static/images/contexts/all_contexts.png' height='500'></p><p><b>[Press the space bar to continue]</b></p></div>","32","","","","","","","","","","","","","","","","","","","","","","",""
"","instruc3","6","67524","0.0-6.0","""event"",""trial"",""time""
""fullscreenenter"",""0"",""2614""
","
","
","""event"",""trial"",""time""
""fullscreenenter"",""0"",""2614""
","
","null","run_exp/static/audio/clip_3_goal_of_game_1.m4a","null","","","","","<div class='center'><p> The pirates on your ship will rob other ships as they leave the island.</p> These ships have just sold their goods to the islanders, so they will be filled with lots and lots of gold.</p><p><img src='run_exp/static/images/tutorial/ship_center.png' height='400'></p></div>","","","","","","","","","","","","","","","","","",""
"","html-keyboard-response","7","69060","0.0-7.0","""event"",""trial"",""time""
""fullscreenenter"",""0"",""2614""
","
","
","""event"",""trial"",""time""
""fullscreenenter"",""0"",""2614""
","
","1529.3999999985099","<div class='center'><p> The pirates on your ship will rob other ships as they leave the island.</p> These ships have just sold their goods to the islanders, so they will be filled with lots and lots of gold.</p><p><img src='run_exp/static/images/tutorial/ship_center.png' height='400'></p><p><b>[Press the space bar to continue]</b></p></div>","32","","","","","","","","","","","","","","","","","","","","","","",""
"","instruc4","8","97059","0.0-8.0","""event"",""trial"",""time""
""fullscreenenter"",""0"",""2614""
","
","
","""event"",""trial"",""time""
""fullscreenenter"",""0"",""2614""
","
","null","run_exp/static/audio/clip_4_goal_of_game_2.m4a","null","","","","","<div class='center'><p>As the head captain, you do not have to rob any ships yourself. Another pirate will be doing the robbing for you. First, you will choose a pirate to rob the next ship.</p><p><img src='run_exp/static/images/tutorial/pirates_all_crop.png' height='200'></p><p>Then, you'll see if the pirate successfully robbed the ship of their gold. If they were successful, then you'll get a stack of gold coins like this:</p><p><img src='run_exp/static/images/tutorial/reward.png' height='150'></p><p> If they were <b>not</b> successful, then you'll get no gold coins, and you'll see a big red x like this: </p><p><img src='run_exp/static/images/tutorial/reward_no.png' height='150'></p><p> How much bonus money you make is based on how many gold coins you collect.</p><div>","","","","","","","","","","","","","","","","","",""
"","html-keyboard-response","9","97850","0.0-9.0","""event"",""trial"",""time""
""fullscreenenter"",""0"",""2614""
","
","
","""event"",""trial"",""time""
""fullscreenenter"",""0"",""2614""
","
","789.6000000014901","<div class='center'><p>As the head captain, you do not have to rob any ships yourself. Another pirate will be doing the robbing for you. First, you will choose a pirate to rob the next ship.</p><p><img src='run_exp/static/images/tutorial/pirates_all_crop.png' height='200'></p><p>Then, you'll see if the pirate successfully robbed the ship of their gold. If they were successful, then you'll get a stack of gold coins like this:</p><p><img src='run_exp/static/images/tutorial/reward.png' height='150'></p><p> If they were <b>not</b> successful, then you'll get no gold coins, and you'll see a big red x like this: </p><p><img src='run_exp/static/images/tutorial/reward_no.png' height='150'></p><p> How much bonus money you make is based on how many gold coins you collect.</p<p><b>[Press the space bar to continue]</b></p></div>","32","","","","","","","","","","","","","","","","","","","","","","",""
"","instruc5","10","120610","0.0-10.0","""event"",""trial"",""time""
""fullscreenenter"",""0"",""2614""
","
","
","""event"",""trial"",""time""
""fullscreenenter"",""0"",""2614""
","
","22759.10000000149","run_exp/static/audio/clip_5_probabilistic.m4a","49","","","","","<div class='center'><p>Even the most skilled pirate can not rob EVERY ship.</p><p> Some ships will have very strong protections against pirate attacks.</p><p> Blue beard, here, is very, very good at robbing ships, but he won't be successful every time he tries to rob one.</p><p> You can press the <b>‘1’</b> key on the keyboard to choose him.</p><p> Try choosing him 10 times to see how often he succeeds at robbing a ship. </p><p><img src='run_exp/static/images/tutorial/blue.png' height='500'></p></div>","","","","","","","","","","","","","","","","","",""
"","html-keyboard-response","11","122113","0.0-11.0","""event"",""trial"",""time""
""fullscreenenter"",""0"",""2614""
","
","
","""event"",""trial"",""time""
""fullscreenenter"",""0"",""2614""
","
","null","<div class='center'><p><img src='run_exp/static/images/tutorial/blue_win.png' height='500'></p></div>","null","","","","","","","","","","","","","","","","","","","","","","",""
"","html-keyboard-response","12","122938","0.0-12.0","""event"",""trial"",""time""
""fullscreenenter"",""0"",""2614""
","
","
","""event"",""trial"",""time""
""fullscreenenter"",""0"",""2614""
","
","824.0999999977648","<div class='center'><img src='run_exp/static/images/tutorial/blue.png' height='500'></p></div>","49","","","","","","","","","","","","","","","","","","","","","","",""
"","html-keyboard-response","13","124439","0.0-13.0","""event"",""trial"",""time""
""fullscreenenter"",""0"",""2614""
","
","
","""event"",""trial"",""time""
""fullscreenenter"",""0"",""2614""
","
","null","<div class='center'><p><img src='run_exp/static/images/tutorial/blue_win.png' height='500'></p></div>","null","","","","","","","","","","","","","","","","","","","","","","",""
"","html-keyboard-response","14","124941","0.0-14.0","""event"",""trial"",""time""
""fullscreenenter"",""0"",""2614""
","
","
","""event"",""trial"",""time""
""fullscreenenter"",""0"",""2614""
","
","501.5","<div class='center'><img src='run_exp/static/images/tutorial/blue.png' height='500'></p></div>","49","","","","","","","","","","","","","","","","","","","","","","",""
"","html-keyboard-response","15","126447","0.0-15.0","""event"",""trial"",""time""
""fullscreenenter"",""0"",""2614""
","
","
","""event"",""trial"",""time""
""fullscreenenter"",""0"",""2614""
","
","null","<div class='center'><p><img src='run_exp/static/images/tutorial/blue_win.png' height='500'></p></div>","null","","","","","","","","","","","","","","","","","","","","","","",""
"","html-keyboard-response","16","126549","0.0-16.0","""event"",""trial"",""time""
""fullscreenenter"",""0"",""2614""
","
","
","""event"",""trial"",""time""
""fullscreenenter"",""0"",""2614""
","
","102.19999999925494","<div class='center'><img src='run_exp/static/images/tutorial/blue.png' height='500'></p></div>","49","","","","","","","","","","","","","","","","","","","","","","",""
"","html-keyboard-response","17","128055","0.0-17.0","""event"",""trial"",""time""
""fullscreenenter"",""0"",""2614""
","
","
","""event"",""trial"",""time""
""fullscreenenter"",""0"",""2614""
","
","null","<div class='center'><p><img src='run_exp/static/images/tutorial/blue_no_win.png' height='500'></p></div>","null","","","","","","","","","","","","","","","","","","","","","","",""
"","html-keyboard-response","18","128417","0.0-18.0","""event"",""trial"",""time""
""fullscreenenter"",""0"",""2614""
","
","
","""event"",""trial"",""time""
""fullscreenenter"",""0"",""2614""
","
","361.3999999985099","<div class='center'><img src='run_exp/static/images/tutorial/blue.png' height='500'></p></div>","49","","","","","","","","","","","","","","","","","","","","","","",""
"","html-keyboard-response","19","129923","0.0-19.0","""event"",""trial"",""time""
""fullscreenenter"",""0"",""2614""
","
","
","""event"",""trial"",""time""
""fullscreenenter"",""0"",""2614""
","
","null","<div class='center'><p><img src='run_exp/static/images/tutorial/blue_win.png' height='500'></p></div>","null","","","","","","","","","","","","","","","","","","","","","","",""
"","html-keyboard-response","20","130318","0.0-20.0","""event"",""trial"",""time""
""fullscreenenter"",""0"",""2614""
","
","
","""event"",""trial"",""time""
""fullscreenenter"",""0"",""2614""
","
","395","<div class='center'><img src='run_exp/static/images/tutorial/blue.png' height='500'></p></div>","49","","","","","","","","","","","","","","","","","","","","","","",""
"","html-keyboard-response","21","131824","0.0-21.0","""event"",""trial"",""time""
""fullscreenenter"",""0"",""2614""
","
","
","""event"",""trial"",""time""
""fullscreenenter"",""0"",""2614""
","
","null","<div class='center'><p><img src='run_exp/static/images/tutorial/blue_win.png' height='500'></p></div>","null","","","","","","","","","","","","","","","","","","","","","","",""
"","html-keyboard-response","22","132153","0.0-22.0","""event"",""trial"",""time""
""fullscreenenter"",""0"",""2614""
","
","
","""event"",""trial"",""time""
""fullscreenenter"",""0"",""2614""
","
","328.30000000074506","<div class='center'><img src='run_exp/static/images/tutorial/blue.png' height='500'></p></div>","49","","","","","","","","","","","","","","","","","","","","","","",""
"","html-keyboard-response","23","133657","0.0-23.0","""event"",""trial"",""time""
""fullscreenenter"",""0"",""2614""
","
","
","""event"",""trial"",""time""
""fullscreenenter"",""0"",""2614""
","
","null","<div class='center'><p><img src='run_exp/static/images/tutorial/blue_win.png' height='500'></p></div>","null","","","","","","","","","","","","","","","","","","","","","","",""
"","html-keyboard-response","24","134155","0.0-24.0","""event"",""trial"",""time""
""fullscreenenter"",""0"",""2614""
","
","
","""event"",""trial"",""time""
""fullscreenenter"",""0"",""2614""
","
","498","<div class='center'><img src='run_exp/static/images/tutorial/blue.png' height='500'></p></div>","49","","","","","","","","","","","","","","","","","","","","","","",""
"","html-keyboard-response","25","135657","0.0-25.0","""event"",""trial"",""time""
""fullscreenenter"",""0"",""2614""
","
","
","""event"",""trial"",""time""
""fullscreenenter"",""0"",""2614""
","
","null","<div class='center'><p><img src='run_exp/static/images/tutorial/blue_no_win.png' height='500'></p></div>","null","","","","","","","","","","","","","","","","","","","","","","",""
"","html-keyboard-response","26","135854","0.0-26.0","""event"",""trial"",""time""
""fullscreenenter"",""0"",""2614""
","
","
","""event"",""trial"",""time""
""fullscreenenter"",""0"",""2614""
","
","196.89999999850988","<div class='center'><img src='run_exp/static/images/tutorial/blue.png' height='500'></p></div>","49","","","","","","","","","","","","","","","","","","","","","","",""
"","html-keyboard-response","27","137359","0.0-27.0","""event"",""trial"",""time""
""fullscreenenter"",""0"",""2614""
","
","
","""event"",""trial"",""time""
""fullscreenenter"",""0"",""2614""
","
","null","<div class='center'><p><img src='run_exp/static/images/tutorial/blue_win.png' height='500'></p></div>","null","","","","","","","","","","","","","","","","","","","","","","",""
"","html-keyboard-response","28","137699","0.0-28.0","""event"",""trial"",""time""
""fullscreenenter"",""0"",""2614""
","
","
","""event"",""trial"",""time""
""fullscreenenter"",""0"",""2614""
","
","339","<div class='center'><img src='run_exp/static/images/tutorial/blue.png' height='500'></p></div>","49","","","","","","","","","","","","","","","","","","","","","","",""
"","html-keyboard-response","29","139205","0.0-29.0","""event"",""trial"",""time""
""fullscreenenter"",""0"",""2614""
","
","
","""event"",""trial"",""time""
""fullscreenenter"",""0"",""2614""
","
","null","<div class='center'><p><img src='run_exp/static/images/tutorial/blue_win.png' height='500'></p></div>","null","","","","","","","","","","","","","","","","","","","","","","",""
"","instruc6","30","144612","0.0-30.0","""event"",""trial"",""time""
""fullscreenenter"",""0"",""2614""
","
","
","""event"",""trial"",""time""
""fullscreenenter"",""0"",""2614""
","
","null","run_exp/static/audio/clip_6_blue_beard_outcome.m4a","null","","","","","<div class='center'><p> See, he succeeded in robbing the ships most of the time but not every time. </p></div>","","","","","","","","","","","","","","","","","",""
"","html-keyboard-response","31","146992","0.0-31.0","""event"",""trial"",""time""
""fullscreenenter"",""0"",""2614""
","
","
","""event"",""trial"",""time""
""fullscreenenter"",""0"",""2614""
","
","2379.300000000745","<div class='center'><p> See, he succeeded in robbing the ships most of the time but not every time. </p><p><b>[Press the space bar to continue]</b></p></div>","32","","","","","","","","","","","","","","","","","","","","","","",""
"","audio-keyboard-response","32","163069","0.0-32.0","""event"",""trial"",""time""
""fullscreenenter"",""0"",""2614""
","
","
","""event"",""trial"",""time""
""fullscreenenter"",""0"",""2614""
","
","16076.099999997765","run_exp/static/audio/clip_7_pick_pirate.m4a","50","","","","","","","","","","","","","","","","","","","","","","",""
"","audio-keyboard-response","33","167985","0.0-33.0-0.0","""event"",""trial"",""time""
""fullscreenenter"",""0"",""2614""
","
","
","""event"",""trial"",""time""
""fullscreenenter"",""0"",""2614""
","
","4914.400000002235","run_exp/static/audio/clip_8_chosen_pirate_win.m4a","32","","","","","","","","","","","","","","","","","","","","","","",""
"","audio-keyboard-response","34","172901","0.0-33.0-1.0","""event"",""trial"",""time""
""fullscreenenter"",""0"",""2614""
","
","
","""event"",""trial"",""time""
""fullscreenenter"",""0"",""2614""
","
","4915.400000002235","run_exp/static/audio/clip_9_pick_a_pirate_again.m4a","51","","","","","","","","","","","","","","","","","","","","","","",""
"","audio-keyboard-response","35","179922","0.0-34.0-0.0","""event"",""trial"",""time""
""fullscreenenter"",""0"",""2614""
","
","
","""event"",""trial"",""time""
""fullscreenenter"",""0"",""2614""
","
","7019.699999999255","run_exp/static/audio/clip_10_chosen_pirate_loss.m4a","32","","","","","","","","","","","","","","","","","","","","","","",""
"","instruc9","36","185432","0.0-35.0-0.0","""event"",""trial"",""time""
""fullscreenenter"",""0"",""2614""
","
","
","""event"",""trial"",""time""
""fullscreenenter"",""0"",""2614""
","
","null","run_exp/static/audio/clip_11_time_out.m4a","null","","","","","<div class='center'><p>If you don’t make your choice fast enough, you’ll have to wait a few seconds before you can make another one. </p><p><img src='run_exp/static/images/miscellaneous/hurry_up.png' height='500'></p></div>","","","","","","","","","","","","","","","","","",""
"","html-keyboard-response","37","186774","0.0-35.0-1.0","""event"",""trial"",""time""
""fullscreenenter"",""0"",""2614""
","
","
","""event"",""trial"",""time""
""fullscreenenter"",""0"",""2614""
","
","1340.6000000014901","<div class='center'><p>If you don’t make your choice fast enough, you’ll have to wait a few seconds before you can make another one. </p><p><img src='run_exp/static/images/miscellaneous/hurry_up.png' height='500'></p><p><b>[Press the space bar to continue]</b></p></div>","32","","","","","","","","","","","","","","","","","","","","","","",""
"","instruc10","38","225881","0.0-35.0-2.0","""event"",""trial"",""time""
""fullscreenenter"",""0"",""2614""
","
","
","""event"",""trial"",""time""
""fullscreenenter"",""0"",""2614""
","
","null","run_exp/static/audio/clip_12_probe.m4a","null","","","","","<div class='center'><p>Once you've chosen a pirate, you’ll be shown the ship they are robbing. You will never rob the same ship twice. Ships can be told apart from one another by the image on them. These are the goods that they sell. See, this ship has a travel mug on it. </p><p> You’ll have to remember which island you saw each ship on. You will win more gold coins and hence more bonus money if you remember correctly! To help you remember, you can imagine a story. For example, here, you could imagine a mug full of water in the desert. Or, as another example, if on the forest island, your pirate robbed a ship with an apple on it, you could imagine an apple falling from a tree in the forest. </p><p><img src='run_exp/static/images/tutorial/example_probe.png' height='500'></p></div>","","","","","","","","","","","","","","","","","",""
"","html-keyboard-response","39","227624","0.0-35.0-3.0","""event"",""trial"",""time""
""fullscreenenter"",""0"",""2614""
","
","
","""event"",""trial"",""time""
""fullscreenenter"",""0"",""2614""
","
","1742.0999999977648","<div class='center'><p>Once you've chosen a pirate, you’ll be shown the ship they are robbing. You will never rob the same ship twice. Ships can be told apart from one another by the image on them. These are the goods that they sell. See, this ship has a travel mug on it. </p><p> You’ll have to remember which island you saw each ship on. You will win more gold coins and hence more bonus money if you remember correctly! To help you remember, you can imagine a story. For example, here, you could imagine a mug full of water in the desert. Or, as another example, if on the forest island, your pirate robbed a ship with an apple on it, you could imagine an apple falling from a tree in the forest. </p><p><img src='run_exp/static/images/tutorial/example_probe.png' height='500'></p><p><b>[Press the space bar to continue]</b></p></div>","32","","","","","","","","","","","","","","","","","","","","","","",""
"","instruc11","40","244039","0.0-35.0-4.0","""event"",""trial"",""time""
""fullscreenenter"",""0"",""2614""
","
","
","""event"",""trial"",""time""
""fullscreenenter"",""0"",""2614""
","
","null","run_exp/static/audio/clip_13_changepoint.m4a","null","","","","","<div class='center'><p>How successful a pirate is at robbing ships will depend on the island you’re on.</p><p> A pirate may have visited this island many times before and gained a lot of practice robbing ships there.</p><p>So, they’re more likely to be successful than a pirate who has never visited the island before.</p></div>","","","","","","","","","","","","","","","","","",""
"","html-keyboard-response","41","244365","0.0-35.0-5.0","""event"",""trial"",""time""
""fullscreenenter"",""0"",""2614""
","
","
","""event"",""trial"",""time""
""fullscreenenter"",""0"",""2614""
","
","325.69999999925494","<div class='center'><p>How successful a pirate is at robbing ships will depend on the island you’re on.</p><p> A pirate may have visited this island many times before and gained a lot of practice robbing ships there.</p><p>So, they’re more likely to be successful than a pirate who has never visited the island before.</p><p><b>[Press the space bar to continue]</b></p></div>","32","","","","","","","","","","","","","","","","","","","","","","",""
"","instruc12","42","285463","0.0-35.0-6.0","""event"",""trial"",""time""
""fullscreenenter"",""0"",""2614""
","
","
","""event"",""trial"",""time""
""fullscreenenter"",""0"",""2614""
","
","null","run_exp/static/audio/clip_14_drift.m4a","null","","","","","<div class='center'><p>How successful a pirate is at robbing ships can also change over the time spent on the island. </p><p> Ships may hear from islanders about the pirates coming and will improve their protections against the attack. This may make it harder to rob them.</p><p> Ships may also become lazy and weaken the strength of their protections. This may make it easier to rob them.</p><br><p>Things are always changing on the high seas! So, try your best to pay attention!</p><p><img src='run_exp/static/images/tutorial/contingency.png' height='500'></p></div>","","","","","","","","","","","","","","","","","",""
"","html-keyboard-response","43","288073","0.0-35.0-7.0","""event"",""trial"",""time""
""fullscreenenter"",""0"",""2614""
","
","
","""event"",""trial"",""time""
""fullscreenenter"",""0"",""2614""
","
","2609.099999997765","<div class='center'><p>How successful a pirate is at robbing ships can also change over the time spent on the island. </p><p> Ships may hear from islanders about the pirates coming and will improve their protections against the attack. This may make it harder to rob them.</p><p> Ships may also become lazy and weaken the strength of their protections. This may make it easier to rob them.</p><br><p>Things are always changing on the high seas! So, try your best to pay attention!</p><p><img src='run_exp/static/images/tutorial/contingency.png' height='500'></p><p><b>[Press the space bar to continue]</b></p></div>","32","","","","","","","","","","","","","","","","","","","","","","",""
"","instruc13","44","323264","0.0-35.0-8.0","""event"",""trial"",""time""
""fullscreenenter"",""0"",""2614""
","
","
","""event"",""trial"",""time""
""fullscreenenter"",""0"",""2614""
","
","null","run_exp/static/audio/clip_15_summary.m4a","null","","","","","<div class='center'><p>Let's go over the instructions quickly again. You have two important things to do: </p><b><p> 1. Pick the pirate who is the best at robbing ships on the current island. </p></b><b><p> 2. Remember on which island a ship was robbed.</p> </b><p>The amount of bonus money you can win depends on both.</p><p><br><p>Let’s try a practice game. The game will start by showing you the pirates. First, pick a pirate using the <b> 1, 2, 3 </b> keys on your keyboard. When you are shown a ship, try to remember which island you’re on by making up a story.</p><p>This is just a practice game, so you’re not playing for money. </p><p> Good luck! This game will be very difficult but try your best!</p></div>","","","","","","","","","","","","","","","","","",""
"","html-keyboard-response","45","325898","0.0-35.0-9.0","""event"",""trial"",""time""
""fullscreenenter"",""0"",""2614""
","
","
","""event"",""trial"",""time""
""fullscreenenter"",""0"",""2614""
","
","2632.7999999970198","<div class='center'><p>Let's go over the instructions quickly again. You have two important things to do: </p><b><p> 1. Pick the pirate who is the best at robbing ships on the current island. </p></b><b><p> 2. Remember on which island a ship was robbed.</p> </b><p>The amount of bonus money you can win depends on both.</p><p><br><p>Let’s try a practice game. The game will start by showing you the pirates. First, pick a pirate using the <b> 1, 2, 3 </b> keys on your keyboard. When you are shown a ship, try to remember which island you’re on by making up a story.</p><p>This is just a practice game, so you’re not playing for money. </p><p> Good luck! This game will be very difficult but try your best!</p><p><b>[Press the space bar to continue]</b></p></div>","32","","","","","","","","","","","","","","","","","","","","","","",""
"","do_welcome","46","329969","0.0-35.0-10.0","""event"",""trial"",""time""
""fullscreenenter"",""0"",""2614""
","
","
","""event"",""trial"",""time""
""fullscreenenter"",""0"",""2614""
","
","null","","","","","","","","null","","","","","","","","","","","","","","","","",""
"","do_trial","47","336227","0.0-35.0-11.0","""event"",""trial"",""time""
""fullscreenenter"",""0"",""2614""
","
","
","""event"",""trial"",""time""
""fullscreenenter"",""0"",""2614""
","
","1752.5","","","","","","","","49","1,0,0","","","","","","","","","","","","","","","",""
"","html-keyboard-response","48","337230","0.0-36.0-0.0","""event"",""trial"",""time""
""fullscreenenter"",""0"",""2614""
","
","
","""event"",""trial"",""time""
""fullscreenenter"",""0"",""2614""
","
","null","<p></p>","null","","","","","","","","","","","","","","","","","","","","","","",""
"","do_trial","49","342615","0.0-36.0-1.0","""event"",""trial"",""time""
""fullscreenenter"",""0"",""2614""
","
","
","""event"",""trial"",""time""
""fullscreenenter"",""0"",""2614""
","
","882.4000000022352","","","","","","","","50","1,1,0","","","","","","","","","","","","","","","",""
"","html-keyboard-response","50","343620","0.0-37.0-0.0","""event"",""trial"",""time""
""fullscreenenter"",""0"",""2614""
","
","
","""event"",""trial"",""time""
""fullscreenenter"",""0"",""2614""
","
","null","<p></p>","null","","","","","","","","","","","","","","","","","","","","","","",""
"","do_trial","51","348201","0.0-37.0-1.0","""event"",""trial"",""time""
""fullscreenenter"",""0"",""2614""
","
","
","""event"",""trial"",""time""
""fullscreenenter"",""0"",""2614""
","
","72.70000000298023","","","","","","","","51","1,0,1","","","","","","","","","","","","","","","",""
"","html-keyboard-response","52","349204","0.0-38.0-0.0","""event"",""trial"",""time""
""fullscreenenter"",""0"",""2614""
","
","
","""event"",""trial"",""time""
""fullscreenenter"",""0"",""2614""
","
","null","<p></p>","null","","","","","","","","","","","","","","","","","","","","","","",""
"","do_trial","53","354813","0.0-38.0-1.0","""event"",""trial"",""time""
""fullscreenenter"",""0"",""2614""
","
","
","""event"",""trial"",""time""
""fullscreenenter"",""0"",""2614""
","
","1103.8999999985099","","","","","","","","50","0,1,0","","","","","","","","","","","","","","","",""
"","html-keyboard-response","54","355816","0.0-39.0-0.0","""event"",""trial"",""time""
""fullscreenenter"",""0"",""2614""
","
","
","""event"",""trial"",""time""
""fullscreenenter"",""0"",""2614""
","
","null","<p></p>","null","","","","","","","","","","","","","","","","","","","","","","",""
"","do_trial","55","361213","0.0-39.0-1.0","""event"",""trial"",""time""
""fullscreenenter"",""0"",""2614""
","
","
","""event"",""trial"",""time""
""fullscreenenter"",""0"",""2614""
","
","892.5","","","","","","","","49","1,0,0","","","","","","","","","","","","","","","",""
"","do_bye","56","362716","0.0-40.0-0.0","""event"",""trial"",""time""
""fullscreenenter"",""0"",""2614""
","
","
","""event"",""trial"",""time""
""fullscreenenter"",""0"",""2614""
","
","null","","","","","","","","null","","","","","","","","","","","","","","","","",""
"","do_travel","57","371722","0.0-40.0-1.0","""event"",""trial"",""time""
""fullscreenenter"",""0"",""2614""
","
","
","""event"",""trial"",""time""
""fullscreenenter"",""0"",""2614""
","
","null","","","","","","","","null","","","","","","","","","","","","","","","","",""
"","do_welcome","58","375725","0.0-40.0-2.0","""event"",""trial"",""time""
""fullscreenenter"",""0"",""2614""
","
","
","""event"",""trial"",""time""
""fullscreenenter"",""0"",""2614""
","
","null","","","","","","","","null","","","","","","","","","","","","","","","","",""
"","do_trial","59","382211","0.0-40.0-3.0","""event"",""trial"",""time""
""fullscreenenter"",""0"",""2614""
","
","
","""event"",""trial"",""time""
""fullscreenenter"",""0"",""2614""
","
","1977.199999999255","","","","","","","","49","1,0,0","","","","","","","","","","","","","","","",""
"","html-keyboard-response","60","383213","0.0-41.0-0.0","""event"",""trial"",""time""
""fullscreenenter"",""0"",""2614""
","
","
","""event"",""trial"",""time""
""fullscreenenter"",""0"",""2614""
","
","null","<p></p>","null","","","","","","","","","","","","","","","","","","","","","","",""
"","do_trial","61","389388","0.0-41.0-1.0","""event"",""trial"",""time""
""fullscreenenter"",""0"",""2614""
","
","
","""event"",""trial"",""time""
""fullscreenenter"",""0"",""2614""
","
","1667.6000000014901","","","","","","","","51","1,0,1","","","","","","","","","","","","","","","",""
"","html-keyboard-response","62","390393","0.0-42.0-0.0","""event"",""trial"",""time""
""fullscreenenter"",""0"",""2614""
","
","
","""event"",""trial"",""time""
""fullscreenenter"",""0"",""2614""
","
","null","<p></p>","null","","","","","","","","","","","","","","","","","","","","","","",""
"","do_trial","63","395223","0.0-42.0-1.0","""event"",""trial"",""time""
""fullscreenenter"",""0"",""2614""
","
","
","""event"",""trial"",""time""
""fullscreenenter"",""0"",""2614""
","
","326.4000000022352","","","","","","","","50","1,1,0","","","","","","","","","","","","","","","",""
"","html-keyboard-response","64","396226","0.0-43.0-0.0","""event"",""trial"",""time""
""fullscreenenter"",""0"",""2614""
","
","
","""event"",""trial"",""time""
""fullscreenenter"",""0"",""2614""
","
","null","<p></p>","null","","","","","","","","","","","","","","","","","","","","","","",""
"","do_trial","65","400770","0.0-43.0-1.0","""event"",""trial"",""time""
""fullscreenenter"",""0"",""2614""
","
","
","""event"",""trial"",""time""
""fullscreenenter"",""0"",""2614""
","
","40.19999999925494","","","","","","","","49","0,0,1","","","","","","","","","","","","","","","",""
"","html-keyboard-response","66","401773","0.0-44.0-0.0","""event"",""trial"",""time""
""fullscreenenter"",""0"",""2614""
","
","
","""event"",""trial"",""time""
""fullscreenenter"",""0"",""2614""
","
","null","<p></p>","null","","","","","","","","","","","","","","","","","","","","","","",""
"","do_trial","67","407250","0.0-44.0-1.0","""event"",""trial"",""time""
""fullscreenenter"",""0"",""2614""
","
","
","""event"",""trial"",""time""
""fullscreenenter"",""0"",""2614""
","
","972.7999999970198","","","","","","","","50","1,0,1","","","","","","","","","","","","","","","",""
"","html-keyboard-response","68","412368","0.0-45.0-0.0","""event"",""trial"",""time""
""fullscreenenter"",""0"",""2614""
","
","
","""event"",""trial"",""time""
""fullscreenenter"",""0"",""2614""
","
","5116.89999999851","<div class='center'><p><img src='run_exp/static/images/tutorial/prac_best_pirate.png'  height='500'></p></div>","49","","","","","","","","","","","","","","","","","","","","","","",""
"","html-keyboard-response","69","417263","0.0-46.0-0.0","""event"",""trial"",""time""
""fullscreenenter"",""0"",""2614""
","
","
","""event"",""trial"",""time""
""fullscreenenter"",""0"",""2614""
","
","4893.900000002235","<div class='center'><p>That's correct! Red beard was the best.</p><p><b>[Press the space bar to continue]</b></p></div>","32","","","","","","","","","","","","","","","","","","","","","","",""
"","html-keyboard-response","70","423338","0.0-46.0-1.0","""event"",""trial"",""time""
""fullscreenenter"",""0"",""2614""
","
","
","""event"",""trial"",""time""
""fullscreenenter"",""0"",""2614""
","
","6074.300000000745","<div class='center'><p><img src='run_exp/static/images/tutorial/prac_source.png'  height='500'></p></div>","50","","","","","","","","","","","","","","","","","","","","","","",""
"","html-keyboard-response","71","429345","0.0-47.0-0.0","""event"",""trial"",""time""
""fullscreenenter"",""0"",""2614""
","
","
","""event"",""trial"",""time""
""fullscreenenter"",""0"",""2614""
","
","6006.800000000745","<div class='center'><p>That's correct! You saw this ship on the cavern island.</p><p><b>[Press the space bar to continue]</b></p></div>","32","","","","","","","","","","","","","","","","","","","","","","",""
"","quiz_beginning","72","440738","0.0-47.0-1.0","""event"",""trial"",""time""
""fullscreenenter"",""0"",""2614""
","
","
","""event"",""trial"",""time""
""fullscreenenter"",""0"",""2614""
","
","null","run_exp/static/audio/clip_16_quiz_intro.m4a","null","","","","","<div class='center'><p>Good job on the practice game! Now, you will be asked some true or false questions to make sure you really understand the rules of the game.</p><p> Press <b>'1'</b> on the keyboard for true and press <b>'2'</b> for false.</p></div>","","","","","","","","","","","","","","","","","",""
"","audio-keyboard-response","73","456976","0.0-47.0-2.0","""event"",""trial"",""time""
""fullscreenenter"",""0"",""2614""
","
","
","""event"",""trial"",""time""
""fullscreenenter"",""0"",""2614""
","
","16236.800000000745","run_exp/static/audio/clip_17_q1.m4a","49","","","","","","","","","","","","","","","","","","","","","","",""
"","correct","74","459379","0.0-48.0-0.0","""event"",""trial"",""time""
""fullscreenenter"",""0"",""2614""
","
","
","""event"",""trial"",""time""
""fullscreenenter"",""0"",""2614""
","
","null","run_exp/static/audio/clip_18_correct.m4a","null","","","","","<div class='center'><p>That's correct!</p></div>","","","","","","","","","","","","","","","","","",""
"","html-keyboard-response","75","462601","0.0-48.0-1.0","""event"",""trial"",""time""
""fullscreenenter"",""0"",""2614""
","
","
","""event"",""trial"",""time""
""fullscreenenter"",""0"",""2614""
","
","3222.199999999255","<div class='center'><p>That's correct!</p><p><b>[Press the space bar to continue]</b></p></div>","32","","","","","","","","","","","","","","","","","","","","","","",""
"","audio-keyboard-response","76","471096","0.0-48.0-2.0","""event"",""trial"",""time""
""fullscreenenter"",""0"",""2614""
","
","
","""event"",""trial"",""time""
""fullscreenenter"",""0"",""2614""
","
","8494.199999999255","run_exp/static/audio/clip_20_q2.m4a","50","","","","","","","","","","","","","","","","","","","","","","",""
"","correct","77","473496","0.0-49.0-0.0","""event"",""trial"",""time""
""fullscreenenter"",""0"",""2614""
","
","
","""event"",""trial"",""time""
""fullscreenenter"",""0"",""2614""
","
","null","run_exp/static/audio/clip_18_correct.m4a","null","","","","","<div class='center'><p>That's correct!</p></div>","","","","","","","","","","","","","","","","","",""
"","html-keyboard-response","78","475517","0.0-49.0-1.0","""event"",""trial"",""time""
""fullscreenenter"",""0"",""2614""
","
","
","""event"",""trial"",""time""
""fullscreenenter"",""0"",""2614""
","
","2020.5999999977648","<div class='center'><p>That's correct!</p><p><b>[Press the space bar to continue]</b></p></div>","32","","","","","","","","","","","","","","","","","","","","","","",""
"","audio-keyboard-response","79","484529","0.0-49.0-2.0","""event"",""trial"",""time""
""fullscreenenter"",""0"",""2614""
","
","
","""event"",""trial"",""time""
""fullscreenenter"",""0"",""2614""
","
","9011.39999999851","run_exp/static/audio/clip_22_q3.m4a","49","","","","","","","","","","","","","","","","","","","","","","",""
"","q3_err","80","491027","0.0-50.0-0.0","""event"",""trial"",""time""
""fullscreenenter"",""0"",""2614""
","
","
","""event"",""trial"",""time""
""fullscreenenter"",""0"",""2614""
","
","null","run_exp/static/audio/clip_23_wrong_q3.m4a","null","","","","","<div class='center'><p>That’s incorrect. How good a pirate is at robbing ships will change from island to island!</p></div>","","","","","","","","","","","","","","","","","",""
"","html-keyboard-response","81","493034","0.0-50.0-1.0","""event"",""trial"",""time""
""fullscreenenter"",""0"",""2614""
","
","
","""event"",""trial"",""time""
""fullscreenenter"",""0"",""2614""
","
","2006.5","<div class='center'><p>That’s incorrect. How good a pirate is at robbing ships will change from island to island!</p><p><b>[Press the space bar to continue]</b></p></div>","32","","","","","","","","","","","","","","","","","","","","","","",""
"","audio-keyboard-response","82","498851","0.0-50.0-2.0","""event"",""trial"",""time""
""fullscreenenter"",""0"",""2614""
","
","
","""event"",""trial"",""time""
""fullscreenenter"",""0"",""2614""
","
","5816.599999997765","run_exp/static/audio/clip_24_q4.m4a","49","","","","","","","","","","","","","","","","","","","","","","",""
"","correct","83","501267","0.0-51.0-0.0","""event"",""trial"",""time""
""fullscreenenter"",""0"",""2614""
","
","
","""event"",""trial"",""time""
""fullscreenenter"",""0"",""2614""
","
","null","run_exp/static/audio/clip_18_correct.m4a","null","","","","","<div class='center'><p>That's correct!</p></div>","","","","","","","","","","","","","","","","","",""
"","html-keyboard-response","84","503295","0.0-51.0-1.0","""event"",""trial"",""time""
""fullscreenenter"",""0"",""2614""
","
","
","""event"",""trial"",""time""
""fullscreenenter"",""0"",""2614""
","
","2027.300000000745","<div class='center'><p>That's correct!</p><p><b>[Press the space bar to continue]</b></p></div>","32","","","","","","","","","","","","","","","","","","","","","","",""
"","q_all_err","85","509487","0.0-52.0-0.0","""event"",""trial"",""time""
""fullscreenenter"",""0"",""2614""
","
","
","""event"",""trial"",""time""
""fullscreenenter"",""0"",""2614""
","
","null","run_exp/static/audio/clip_26_quiz_redo.m4a","null","","","","","<div class='center'><p>Oops, you missed some questions. Now that you’ve heard the correct answers. Try the quiz again! </p></div>","","","","","","","","","","","","","","","","","",""
"","html-keyboard-response","86","512238","0.0-52.0-1.0","""event"",""trial"",""time""
""fullscreenenter"",""0"",""2614""
","
","
","""event"",""trial"",""time""
""fullscreenenter"",""0"",""2614""
","
","2751.2999999970198","<div class='center'><p>Oops, you missed some questions. Now that you’ve heard the correct answers. Try the quiz again! </p><p><b>[Press the space bar to continue]</b></p></div>","32","","","","","","","","","","","","","","","","","","","","","","",""
"","audio-keyboard-response","87","516019","0.0-52.0-2.0","""event"",""trial"",""time""
""fullscreenenter"",""0"",""2614""
","
","
","""event"",""trial"",""time""
""fullscreenenter"",""0"",""2614""
","
","3779.800000000745","run_exp/static/audio/clip_17_q1.m4a","49","","","","","","","","","","","","","","","","","","","","","","",""
"","correct","88","518426","0.0-53.0-0.0","""event"",""trial"",""time""
""fullscreenenter"",""0"",""2614""
","
","
","""event"",""trial"",""time""
""fullscreenenter"",""0"",""2614""
","
","null","run_exp/static/audio/clip_18_correct.m4a","null","","","","","<div class='center'><p>That's correct!</p></div>","","","","","","","","","","","","","","","","","",""
"","html-keyboard-response","89","520136","0.0-53.0-1.0","""event"",""trial"",""time""
""fullscreenenter"",""0"",""2614""
","
","
","""event"",""trial"",""time""
""fullscreenenter"",""0"",""2614""
","
","1709.699999999255","<div class='center'><p>That's correct!</p><p><b>[Press the space bar to continue]</b></p></div>","32","","","","","","","","","","","","","","","","","","","","","","",""
"","audio-keyboard-response","90","528485","0.0-53.0-2.0","""event"",""trial"",""time""
""fullscreenenter"",""0"",""2614""
","
","
","""event"",""trial"",""time""
""fullscreenenter"",""0"",""2614""
","
","8348.10000000149","run_exp/static/audio/clip_20_q2.m4a","50","","","","","","","","","","","","","","","","","","","","","","",""
"","correct","91","530895","0.0-54.0-0.0","""event"",""trial"",""time""
""fullscreenenter"",""0"",""2614""
","
","
","""event"",""trial"",""time""
""fullscreenenter"",""0"",""2614""
","
","null","run_exp/static/audio/clip_18_correct.m4a","null","","","","","<div class='center'><p>That's correct!</p></div>","","","","","","","","","","","","","","","","","",""
"","html-keyboard-response","92","532568","0.0-54.0-1.0","""event"",""trial"",""time""
""fullscreenenter"",""0"",""2614""
","
","
","""event"",""trial"",""time""
""fullscreenenter"",""0"",""2614""
","
","1672.699999999255","<div class='center'><p>That's correct!</p><p><b>[Press the space bar to continue]</b></p></div>","32","","","","","","","","","","","","","","","","","","","","","","",""
"","audio-keyboard-response","93","541490","0.0-54.0-2.0","""event"",""trial"",""time""
""fullscreenenter"",""0"",""2614""
","
","
","""event"",""trial"",""time""
""fullscreenenter"",""0"",""2614""
","
","8921.5","run_exp/static/audio/clip_22_q3.m4a","50","","","","","","","","","","","","","","","","","","","","","","",""
"","correct","94","543898","0.0-55.0-0.0","""event"",""trial"",""time""
""fullscreenenter"",""0"",""2614""
","
","
","""event"",""trial"",""time""
""fullscreenenter"",""0"",""2614""
","
","null","run_exp/static/audio/clip_18_correct.m4a","null","","","","","<div class='center'><p>That's correct!</p></div>","","","","","","","","","","","","","","","","","",""
"","html-keyboard-response","95","546046","0.0-55.0-1.0","""event"",""trial"",""time""
""fullscreenenter"",""0"",""2614""
","
","
","""event"",""trial"",""time""
""fullscreenenter"",""0"",""2614""
","
","2148","<div class='center'><p>That's correct!</p><p><b>[Press the space bar to continue]</b></p></div>","32","","","","","","","","","","","","","","","","","","","","","","",""
"","audio-keyboard-response","96","550996","0.0-55.0-2.0","""event"",""trial"",""time""
""fullscreenenter"",""0"",""2614""
","
","
","""event"",""trial"",""time""
""fullscreenenter"",""0"",""2614""
","
","4949.599999997765","run_exp/static/audio/clip_24_q4.m4a","49","","","","","","","","","","","","","","","","","","","","","","",""
"","correct","97","553418","0.0-56.0-0.0","""event"",""trial"",""time""
""fullscreenenter"",""0"",""2614""
","
","
","""event"",""trial"",""time""
""fullscreenenter"",""0"",""2614""
","
","null","run_exp/static/audio/clip_18_correct.m4a","null","","","","","<div class='center'><p>That's correct!</p></div>","","","","","","","","","","","","","","","","","",""
"","html-keyboard-response","98","554878","0.0-56.0-1.0","""event"",""trial"",""time""
""fullscreenenter"",""0"",""2614""
","
","
","""event"",""trial"",""time""
""fullscreenenter"",""0"",""2614""
","
","1459.300000000745","<div class='center'><p>That's correct!</p><p><b>[Press the space bar to continue]</b></p></div>","32","","","","","","","","","","","","","","","","","","","","","","",""
"","q_all_corr","99","563380","0.0-57.0-0.0","""event"",""trial"",""time""
""fullscreenenter"",""0"",""2614""
","
","
","""event"",""trial"",""time""
""fullscreenenter"",""0"",""2614""
","
","null","run_exp/static/audio/clip_27_quiz_all_correct.m4a","null","","","","","<div class='center'><p>Good job! You’re now ready to move on to the real game! Remember this game will be difficult but don't get discouraged and try your best!</p></div>","","","","","","","","","","","","","","","","","",""
"","html-keyboard-response","100","564452","0.0-57.0-1.0","""event"",""trial"",""time""
""fullscreenenter"",""0"",""2614""
","
","
","""event"",""trial"",""time""
""fullscreenenter"",""0"",""2614""
","
","1071.800000000745","<div class='center'><p>Good job! You’re now ready to move on to the real game! Remember this game will be difficult but don't get discouraged and try your best!</p><p><b>[Press the space bar to continue]</b></p></div>","32","","","","","","","","","","","","","","","","","","","","","","",""
"","do_welcome","101","568459","0.0-58.0-0.0","""event"",""trial"",""time""
""fullscreenenter"",""0"",""2614""
","
","
","""event"",""trial"",""time""
""fullscreenenter"",""0"",""2614""
","
","null","","","","","","","","null","","","","","","","","","","","","","","","","",""
"","do_trial","102","574685","0.0-59.0-0.0","""event"",""trial"",""time""
""fullscreenenter"",""0"",""2614""
","
","
","""event"",""trial"",""time""
""fullscreenenter"",""0"",""2614""
","
","1687.9000000022352","","","","","","","","49","0,0,0","0","mountain","0","probe-95","0.6","0.3","0.1","0","","","","","","","",""
"","html-keyboard-response","103","575688","0.0-59.0-1.0","""event"",""trial"",""time""
""fullscreenenter"",""0"",""2614""
","
","
","""event"",""trial"",""time""
""fullscreenenter"",""0"",""2614""
","
","null","<p></p>","null","","","","","","","","","","","","","","","","","","","","","","",""
"","do_trial","104","580905","0.0-60.0-0.0","""event"",""trial"",""time""
""fullscreenenter"",""0"",""2614""
","
","
","""event"",""trial"",""time""
""fullscreenenter"",""0"",""2614""
","
","678.5999999977648","","","","","","","","50","1,0,0","0","mountain","1","probe-11","0.6518378352990765","0.2968680154787941","0.10080394018735532","0","","","","","","","",""
"","html-keyboard-response","105","581908","0.0-60.0-1.0","""event"",""trial"",""time""
""fullscreenenter"",""0"",""2614""
","
","
","""event"",""trial"",""time""
""fullscreenenter"",""0"",""2614""
","
","null","<p></p>","null","","","","","","","","","","","","","","","","","","","","","","",""
"","do_trial","106","587066","0.0-61.0-0.0","""event"",""trial"",""time""
""fullscreenenter"",""0"",""2614""
","
","
","""event"",""trial"",""time""
""fullscreenenter"",""0"",""2614""
","
","625.3000000007451","","","","","","","","51","0,1,0","0","mountain","2","probe-29","0.4905320111620581","0.3990261638193213","0.14038098002718338","0","","","","","","","",""
"","html-keyboard-response","107","588069","0.0-61.0-1.0","""event"",""trial"",""time""
""fullscreenenter"",""0"",""2614""
","
","
","""event"",""trial"",""time""
""fullscreenenter"",""0"",""2614""
","
","null","<p></p>","null","","","","","","","","","","","","","","","","","","","","","","",""
"","do_trial","108","593495","0.0-62.0-0.0","""event"",""trial"",""time""
""fullscreenenter"",""0"",""2614""
","
","
","""event"",""trial"",""time""
""fullscreenenter"",""0"",""2614""
","
","888.4000000022352","","","","","","","","50","0,0,1","0","mountain","3","probe-196","0.5541615338321042","0.42371701101642134","0.10506996260827065","0","","","","","","","",""
"","html-keyboard-response","109","594495","0.0-62.0-1.0","""event"",""trial"",""time""
""fullscreenenter"",""0"",""2614""
","
","
","""event"",""trial"",""time""
""fullscreenenter"",""0"",""2614""
","
","null","<p></p>","null","","","","","","","","","","","","","","","","","","","","","","",""
"","do_trial","110","599278","0.0-63.0-0.0","""event"",""trial"",""time""
""fullscreenenter"",""0"",""2614""
","
","
","""event"",""trial"",""time""
""fullscreenenter"",""0"",""2614""
","
","245.20000000298023","","","","","","","","49","1,1,1","0","mountain","4","probe-188","0.6672105748872196","0.3445366180137034","0.05732599257918468","1","","","","","","","",""
"","html-keyboard-response","111","600281","0.0-63.0-1.0","""event"",""trial"",""time""
""fullscreenenter"",""0"",""2614""
","
","
","""event"",""trial"",""time""
""fullscreenenter"",""0"",""2614""
","
","null","<p></p>","null","","","","","","","","","","","","","","","","","","","","","","",""
"","do_trial","112","606046","0.0-64.0-0.0","""event"",""trial"",""time""
""fullscreenenter"",""0"",""2614""
","
","
","""event"",""trial"",""time""
""fullscreenenter"",""0"",""2614""
","
","1232.300000000745","","","","","","","","51","1,0,0","0","mountain","5","probe-187","0.5040500803932924","0.3023595637613728","0.11606259098669791","0","","","","","","","",""
"","html-keyboard-response","113","607049","0.0-64.0-1.0","""event"",""trial"",""time""
""fullscreenenter"",""0"",""2614""
","
","
","""event"",""trial"",""time""
""fullscreenenter"",""0"",""2614""
","
","null","<p></p>","null","","","","","","","","","","","","","","","","","","","","","","",""
"","do_trial","114","611810","0.0-65.0-0.0","""event"",""trial"",""time""
""fullscreenenter"",""0"",""2614""
","
","
","""event"",""trial"",""time""
""fullscreenenter"",""0"",""2614""
","
","224.30000000074506","","","","","","","","50","1,0,0","0","mountain","6","probe-98","0.6118499045753975","0.20604053496394442","0.06813811722712099","0","","","","","","","",""
"","html-keyboard-response","115","612812","0.0-65.0-1.0","""event"",""trial"",""time""
""fullscreenenter"",""0"",""2614""
","
","
","""event"",""trial"",""time""
""fullscreenenter"",""0"",""2614""
","
","null","<p></p>","null","","","","","","","","","","","","","","","","","","","","","","",""
"","do_trial","116","617930","0.0-66.0-0.0","""event"",""trial"",""time""
""fullscreenenter"",""0"",""2614""
","
","
","""event"",""trial"",""time""
""fullscreenenter"",""0"",""2614""
","
","580.9000000022352","","","","","","","","49","0,0,0","0","mountain","7","probe-143","0.49054735607461475","0.2749768424188057","0.07345981582097767","0","","","","","","","",""
"","html-keyboard-response","117","618933","0.0-66.0-1.0","""event"",""trial"",""time""
""fullscreenenter"",""0"",""2614""
","
","
","""event"",""trial"",""time""
""fullscreenenter"",""0"",""2614""
","
","null","<p></p>","null","","","","","","","","","","","","","","","","","","","","","","",""
"","do_trial","118","624276","0.0-67.0-0.0","""event"",""trial"",""time""
""fullscreenenter"",""0"",""2614""
","
","
","""event"",""trial"",""time""
""fullscreenenter"",""0"",""2614""
","
","805.8999999985099","","","","","","","","51","1,0,0","0","mountain","8","probe-178","0.3827988754783032","0.3918532225648373","0.08583182872544842","0","","","","","","","",""
"","html-keyboard-response","119","625281","0.0-67.0-1.0","""event"",""trial"",""time""
""fullscreenenter"",""0"",""2614""
","
","
","""event"",""trial"",""time""
""fullscreenenter"",""0"",""2614""
","
","null","<p></p>","null","","","","","","","","","","","","","","","","","","","","","","",""
"","do_trial","120","630239","0.0-68.0-0.0","""event"",""trial"",""time""
""fullscreenenter"",""0"",""2614""
","
","
","""event"",""trial"",""time""
""fullscreenenter"",""0"",""2614""
","
","420.30000000074506","","","","","","","","50","1,0,0","0","mountain","9","probe-86","0.46133555147063504","0.3375930325505764","0.059050237416360195","0","","","","","","","",""
"","html-keyboard-response","121","631242","0.0-68.0-1.0","""event"",""trial"",""time""
""fullscreenenter"",""0"",""2614""
","
","
","""event"",""trial"",""time""
""fullscreenenter"",""0"",""2614""
","
","null","<p></p>","null","","","","","","","","","","","","","","","","","","","","","","",""
"","do_trial","122","636365","0.0-69.0-0.0","""event"",""trial"",""time""
""fullscreenenter"",""0"",""2614""
","
","
","""event"",""trial"",""time""
""fullscreenenter"",""0"",""2614""
","
","563.8000000007451","","","","","","","","51","1,0,0","0","mountain","10","probe-170","0.5004048942146332","0.4377688392572406","0.1076754983989518","0","","","","","","","",""
"","html-keyboard-response","123","637369","0.0-69.0-1.0","""event"",""trial"",""time""
""fullscreenenter"",""0"",""2614""
","
","
","""event"",""trial"",""time""
""fullscreenenter"",""0"",""2614""
","
","null","<p></p>","null","","","","","","","","","","","","","","","","","","","","","","",""
"","do_trial","124","642343","0.0-70.0-0.0","""event"",""trial"",""time""
""fullscreenenter"",""0"",""2614""
","
","
","""event"",""trial"",""time""
""fullscreenenter"",""0"",""2614""
","
","437.69999999925494","","","","","","","","49","0,0,0","0","mountain","11","probe-216","0.47420787476722553","0.5373264089161667","0.20132514726118786","0","","","","","","","",""
"","html-keyboard-response","125","643346","0.0-70.0-1.0","""event"",""trial"",""time""
""fullscreenenter"",""0"",""2614""
","
","
","""event"",""trial"",""time""
""fullscreenenter"",""0"",""2614""
","
","null","<p></p>","null","","","","","","","","","","","","","","","","","","","","","","",""
"","do_trial","126","648284","0.0-71.0-0.0","""event"",""trial"",""time""
""fullscreenenter"",""0"",""2614""
","
","
","""event"",""trial"",""time""
""fullscreenenter"",""0"",""2614""
","
","400.9000000022352","","","","","","","","49","0,0,0","0","mountain","12","probe-04","0.4598527495327245","0.43414280043918196","0.26272059057767244","0","","","","","","","",""
"","html-keyboard-response","127","649287","0.0-71.0-1.0","""event"",""trial"",""time""
""fullscreenenter"",""0"",""2614""
","
","
","""event"",""trial"",""time""
""fullscreenenter"",""0"",""2614""
","
","null","<p></p>","null","","","","","","","","","","","","","","","","","","","","","","",""
"","do_trial","128","654053","0.0-72.0-0.0","""event"",""trial"",""time""
""fullscreenenter"",""0"",""2614""
","
","
","""event"",""trial"",""time""
""fullscreenenter"",""0"",""2614""
","
","231","","","","","","","","50","0,0,0","0","mountain","13","probe-83","0.4442971009100654","0.25866330836932533","0.12130512992370075","0","","","","","","","",""
"","html-keyboard-response","129","655056","0.0-72.0-1.0","""event"",""trial"",""time""
""fullscreenenter"",""0"",""2614""
","
","
","""event"",""trial"",""time""
""fullscreenenter"",""0"",""2614""
","
","null","<p></p>","null","","","","","","","","","","","","","","","","","","","","","","",""
"","do_trial","130","660107","0.0-73.0-0.0","""event"",""trial"",""time""
""fullscreenenter"",""0"",""2614""
","
","
","""event"",""trial"",""time""
""fullscreenenter"",""0"",""2614""
","
","515.5","","","","","","","","49","1,0,0","0","mountain","14","probe-208","0.48965743028539016","0.25623391752919644","0.26566122774127016","1","","","","","","","",""
"","html-keyboard-response","131","661110","0.0-73.0-1.0","""event"",""trial"",""time""
""fullscreenenter"",""0"",""2614""
","
","
","""event"",""trial"",""time""
""fullscreenenter"",""0"",""2614""
","
","null","<p></p>","null","","","","","","","","","","","","","","","","","","","","","","",""
"","do_trial","132","666533","0.0-74.0-0.0","""event"",""trial"",""time""
""fullscreenenter"",""0"",""2614""
","
","
","""event"",""trial"",""time""
""fullscreenenter"",""0"",""2614""
","
","885.5","","","","","","","","49","0,1,1","0","mountain","15","probe-51","0.625881015639858","0.31772217762780997","0.22670170673050077","0","","","","","","","",""
"","html-keyboard-response","133","667536","0.0-74.0-1.0","""event"",""trial"",""time""
""fullscreenenter"",""0"",""2614""
","
","
","""event"",""trial"",""time""
""fullscreenenter"",""0"",""2614""
","
","null","<p></p>","null","","","","","","","","","","","","","","","","","","","","","","",""
"","do_trial","134","672642","0.0-75.0-0.0","""event"",""trial"",""time""
""fullscreenenter"",""0"",""2614""
","
","
","""event"",""trial"",""time""
""fullscreenenter"",""0"",""2614""
","
","569.3000000007451","","","","","","","","50","1,1,1","0","mountain","16","probe-209","0.5721438122485865","0.34149220176389755","0.22468835224243086","1","","","","","","","",""
"","html-keyboard-response","135","673645","0.0-75.0-1.0","""event"",""trial"",""time""
""fullscreenenter"",""0"",""2614""
","
","
","""event"",""trial"",""time""
""fullscreenenter"",""0"",""2614""
","
","null","<p></p>","null","","","","","","","","","","","","","","","","","","","","","","",""
"","do_trial","136","678365","0.0-76.0-0.0","""event"",""trial"",""time""
""fullscreenenter"",""0"",""2614""
","
","
","""event"",""trial"",""time""
""fullscreenenter"",""0"",""2614""
","
","185.89999999850988","","","","","","","","49","1,1,1","0","mountain","17","probe-184","0.5828842685104412","0.37842251466934884","0.15869727799221825","1","","","","","","","",""
"","html-keyboard-response","137","679368","0.0-76.0-1.0","""event"",""trial"",""time""
""fullscreenenter"",""0"",""2614""
","
","
","""event"",""trial"",""time""
""fullscreenenter"",""0"",""2614""
","
","null","<p></p>","null","","","","","","","","","","","","","","","","","","","","","","",""
"","do_trial","138","684484","0.0-77.0-0.0","""event"",""trial"",""time""
""fullscreenenter"",""0"",""2614""
","
","
","""event"",""trial"",""time""
""fullscreenenter"",""0"",""2614""
","
","582.2999999970198","","","","","","","","51","0,0,0","0","mountain","18","probe-202","0.4673429327114835","0.26746907865252734","0.19331018178396447","0","","","","","","","",""
"","html-keyboard-response","139","685487","0.0-77.0-1.0","""event"",""trial"",""time""
""fullscreenenter"",""0"",""2614""
","
","
","""event"",""trial"",""time""
""fullscreenenter"",""0"",""2614""
","
","null","<p></p>","null","","","","","","","","","","","","","","","","","","","","","","",""
"","do_trial","140","690957","0.0-78.0-0.0","""event"",""trial"",""time""
""fullscreenenter"",""0"",""2614""
","
","
","""event"",""trial"",""time""
""fullscreenenter"",""0"",""2614""
","
","933.3999999985099","","","","","","","","50","0,0,0","0","mountain","19","probe-28","0.4608557835692438","0.20705479527901258","0.1277267821043191","0","","","","","","","",""
"","html-keyboard-response","141","691959","0.0-78.0-1.0","""event"",""trial"",""time""
""fullscreenenter"",""0"",""2614""
","
","
","""event"",""trial"",""time""
""fullscreenenter"",""0"",""2614""
","
","null","<p></p>","null","","","","","","","","","","","","","","","","","","","","","","",""
"","do_trial","142","696864","0.0-79.0-0.0","""event"",""trial"",""time""
""fullscreenenter"",""0"",""2614""
","
","
","""event"",""trial"",""time""
""fullscreenenter"",""0"",""2614""
","
","366.6000000014901","","","","","","","","49","0,0,0","0","mountain","20","probe-124","0.49895934053432256","0.18072508329288134","0.06000772528801928","0","","","","","","","",""
"","html-keyboard-response","143","697866","0.0-79.0-1.0","""event"",""trial"",""time""
""fullscreenenter"",""0"",""2614""
","
","
","""event"",""trial"",""time""
""fullscreenenter"",""0"",""2614""
","
","null","<p></p>","null","","","","","","","","","","","","","","","","","","","","","","",""
"","do_trial","144","702478","0.0-80.0-0.0","""event"",""trial"",""time""
""fullscreenenter"",""0"",""2614""
","
","
","""event"",""trial"",""time""
""fullscreenenter"",""0"",""2614""
","
","74.5","","","","","","","","50","0,0,0","0","mountain","21","probe-110","0.5483169236029801","0.34637103538071207","0.19642936500292085","0","","","","","","","",""
"","html-keyboard-response","145","703481","0.0-80.0-1.0","""event"",""trial"",""time""
""fullscreenenter"",""0"",""2614""
","
","
","""event"",""trial"",""time""
""fullscreenenter"",""0"",""2614""
","
","null","<p></p>","null","","","","","","","","","","","","","","","","","","","","","","",""
"","do_trial","146","708436","0.0-81.0-0.0","""event"",""trial"",""time""
""fullscreenenter"",""0"",""2614""
","
","
","""event"",""trial"",""time""
""fullscreenenter"",""0"",""2614""
","
","421.8999999985099","","","","","","","","49","1,1,1","0","mountain","22","probe-169","0.7619612736092032","0.26731756986632743","0.19991848971843826","1","","","","","","","",""
"","html-keyboard-response","147","709439","0.0-81.0-1.0","""event"",""trial"",""time""
""fullscreenenter"",""0"",""2614""
","
","
","""event"",""trial"",""time""
""fullscreenenter"",""0"",""2614""
","
","null","<p></p>","null","","","","","","","","","","","","","","","","","","","","","","",""
"","do_trial","148","715113","0.0-82.0-0.0","""event"",""trial"",""time""
""fullscreenenter"",""0"",""2614""
","
","
","""event"",""trial"",""time""
""fullscreenenter"",""0"",""2614""
","
","1136.6000000014901","","","","","","","","50","0,0,1","0","mountain","23","probe-73","0.64517003828992","0.3405297301937176","0.22103430172003635","0","","","","","","","",""
"","html-keyboard-response","149","716116","0.0-82.0-1.0","""event"",""trial"",""time""
""fullscreenenter"",""0"",""2614""
","
","
","""event"",""trial"",""time""
""fullscreenenter"",""0"",""2614""
","
","null","<p></p>","null","","","","","","","","","","","","","","","","","","","","","","",""
"","do_trial","150","722381","0.0-83.0-0.0","""event"",""trial"",""time""
""fullscreenenter"",""0"",""2614""
","
","
","""event"",""trial"",""time""
""fullscreenenter"",""0"",""2614""
","
","1728.199999999255","","","","","","","","49","1,0,1","0","mountain","24","probe-161","0.6695033310350309","0.2908204896520733","0.12787287431270467","1","","","","","","","",""
"","html-keyboard-response","151","723384","0.0-83.0-1.0","""event"",""trial"",""time""
""fullscreenenter"",""0"",""2614""
","
","
","""event"",""trial"",""time""
""fullscreenenter"",""0"",""2614""
","
","null","<p></p>","null","","","","","","","","","","","","","","","","","","","","","","",""
"","do_trial","152","729150","0.0-84.0-0.0","""event"",""trial"",""time""
""fullscreenenter"",""0"",""2614""
","
","
","""event"",""trial"",""time""
""fullscreenenter"",""0"",""2614""
","
","1202.699999999255","","","","","","","","49","1,0,0","0","mountain","25","probe-162","0.5682905476161958","0.33378969183639123","0.10989835381342968","1","","","","","","","",""
"","html-keyboard-response","153","730155","0.0-84.0-1.0","""event"",""trial"",""time""
""fullscreenenter"",""0"",""2614""
","
","
","""event"",""trial"",""time""
""fullscreenenter"",""0"",""2614""
","
","null","<p></p>","null","","","","","","","","","","","","","","","","","","","","","","",""
"","do_trial","154","735128","0.0-85.0-0.0","""event"",""trial"",""time""
""fullscreenenter"",""0"",""2614""
","
","
","""event"",""trial"",""time""
""fullscreenenter"",""0"",""2614""
","
","434.29999999701977","","","","","","","","50","0,0,1","0","mountain","26","probe-14","0.5017003123034429","0.31311178604532014","0.18395051494927503","0","","","","","","","",""
"","html-keyboard-response","155","736129","0.0-85.0-1.0","""event"",""trial"",""time""
""fullscreenenter"",""0"",""2614""
","
","
","""event"",""trial"",""time""
""fullscreenenter"",""0"",""2614""
","
","null","<p></p>","null","","","","","","","","","","","","","","","","","","","","","","",""
"","do_trial","156","741314","0.0-86.0-0.0","""event"",""trial"",""time""
""fullscreenenter"",""0"",""2614""
","
","
","""event"",""trial"",""time""
""fullscreenenter"",""0"",""2614""
","
","649","","","","","","","","49","0,0,0","0","mountain","27","probe-230","0.3953552183691677","0.17291407829334404","0.15591709651614047","0","","","","","","","",""
"","html-keyboard-response","157","742316","0.0-86.0-1.0","""event"",""trial"",""time""
""fullscreenenter"",""0"",""2614""
","
","
","""event"",""trial"",""time""
""fullscreenenter"",""0"",""2614""
","
","null","<p></p>","null","","","","","","","","","","","","","","","","","","","","","","",""
"","do_trial","158","747680","0.0-87.0-0.0","""event"",""trial"",""time""
""fullscreenenter"",""0"",""2614""
","
","
","""event"",""trial"",""time""
""fullscreenenter"",""0"",""2614""
","
","829.6999999992549","","","","","","","","49","1,0,0","0","mountain","28","probe-130","0.45488198054294693","0.20535965404735604","0.19483868210675717","1","","","","","","","",""
"","html-keyboard-response","159","748683","0.0-87.0-1.0","""event"",""trial"",""time""
""fullscreenenter"",""0"",""2614""
","
","
","""event"",""trial"",""time""
""fullscreenenter"",""0"",""2614""
","
","null","<p></p>","null","","","","","","","","","","","","","","","","","","","","","","",""
"","do_trial","160","754116","0.0-88.0-0.0","""event"",""trial"",""time""
""fullscreenenter"",""0"",""2614""
","
","
","""event"",""trial"",""time""
""fullscreenenter"",""0"",""2614""
","
","898.6999999992549","","","","","","","","50","0,0,0","0","mountain","29","probe-213","0.5191735893012418","0.29892671836919293","0.11476764719675471","0","","","","","","","",""
"","html-keyboard-response","161","755117","0.0-88.0-1.0","""event"",""trial"",""time""
""fullscreenenter"",""0"",""2614""
","
","
","""event"",""trial"",""time""
""fullscreenenter"",""0"",""2614""
","
","null","<p></p>","null","","","","","","","","","","","","","","","","","","","","","","",""
"","do_bye","162","756624","0.0-89.0-0.0","""event"",""trial"",""time""
""fullscreenenter"",""0"",""2614""
","
","
","""event"",""trial"",""time""
""fullscreenenter"",""0"",""2614""
","
","null","","","","","","","","null","","","","","","","","","","","","","","","","",""
"","break","163","761415","0.0-89.0-1.0","""event"",""trial"",""time""
""fullscreenenter"",""0"",""2614""
","
","
","""event"",""trial"",""time""
""fullscreenenter"",""0"",""2614""
","
","4790.099999997765","<div class='center'><p>Time to take a quick break! You have 2 minutes to rest, but you can move on sooner if you'd like.</p><p> Press the <b>space bar</b> to continue.</p></div>","32","","","","","","","","","","","","","","","","","","","","","","",""
"","do_travel","164","770416","0.0-90.0-0.0","""event"",""trial"",""time""
""fullscreenenter"",""0"",""2614""
","
","
","""event"",""trial"",""time""
""fullscreenenter"",""0"",""2614""
","
","null","","","","","","","","null","","","","","","","","","","","","","","","","",""
"","do_welcome","165","774424","0.0-90.0-1.0","""event"",""trial"",""time""
""fullscreenenter"",""0"",""2614""
","
","
","""event"",""trial"",""time""
""fullscreenenter"",""0"",""2614""
","
","null","","","","","","","","null","","","","","","","","","","","","","","","","",""
"","do_trial","166","781677","0.0-91.0-0.0","""event"",""trial"",""time""
""fullscreenenter"",""0"",""2614""
","
","
","""event"",""trial"",""time""
""fullscreenenter"",""0"",""2614""
","
","2720.300000000745","","","","","","","","49","1,0,0","1","countryside","30","probe-198","1","0.23639881452522737","0.05400805729674347","1","","","","","","","",""
"","html-keyboard-response","167","782679","0.0-91.0-1.0","""event"",""trial"",""time""
""fullscreenenter"",""0"",""2614""
","
","
","""event"",""trial"",""time""
""fullscreenenter"",""0"",""2614""
","
","null","<p></p>","null","","","","","","","","","","","","","","","","","","","","","","",""
"","do_trial","168","787696","0.0-92.0-0.0","""event"",""trial"",""time""
""fullscreenenter"",""0"",""2614""
","
","
","""event"",""trial"",""time""
""fullscreenenter"",""0"",""2614""
","
","482.19999999925494","","","","","","","","50","1,0,0","1","countryside","31","probe-67","1","0.28433798825668477","0.20428989448657597","0","","","","","","","",""
"","html-keyboard-response","169","788699","0.0-92.0-1.0","""event"",""trial"",""time""
""fullscreenenter"",""0"",""2614""
","
","
","""event"",""trial"",""time""
""fullscreenenter"",""0"",""2614""
","
","null","<p></p>","null","","","","","","","","","","","","","","","","","","","","","","",""
"","do_trial","170","794480","0.0-93.0-0.0","""event"",""trial"",""time""
""fullscreenenter"",""0"",""2614""
","
","
","""event"",""trial"",""time""
""fullscreenenter"",""0"",""2614""
","
","1247.3999999985099","","","","","","","","51","1,0,0","1","countryside","32","probe-66","1","0.34062967235316227","0.2302181885909326","0","","","","","","","",""
"","html-keyboard-response","171","795483","0.0-93.0-1.0","""event"",""trial"",""time""
""fullscreenenter"",""0"",""2614""
","
","
","""event"",""trial"",""time""
""fullscreenenter"",""0"",""2614""
","
","null","<p></p>","null","","","","","","","","","","","","","","","","","","","","","","",""
"","do_trial","172","801426","0.0-94.0-0.0","""event"",""trial"",""time""
""fullscreenenter"",""0"",""2614""
","
","
","""event"",""trial"",""time""
""fullscreenenter"",""0"",""2614""
","
","1405.9000000022352","","","","","","","","49","1,0,0","1","countryside","33","probe-23","0.9057113990306199","0.2551026115461921","0.07890718193069209","1","","","","","","","",""
"","html-keyboard-response","173","802429","0.0-94.0-1.0","""event"",""trial"",""time""
""fullscreenenter"",""0"",""2614""
","
","
","""event"",""trial"",""time""
""fullscreenenter"",""0"",""2614""
","
","null","<p></p>","null","","","","","","","","","","","","","","","","","","","","","","",""
"","do_trial","174","807468","0.0-95.0-0.0","""event"",""trial"",""time""
""fullscreenenter"",""0"",""2614""
","
","
","""event"",""trial"",""time""
""fullscreenenter"",""0"",""2614""
","
","501.6000000014901","","","","","","","","49","0,0,0","1","countryside","34","probe-96","0.769824862360702","0.2981035196978957","0.30673915374583216","0","","","","","","","",""
"","html-keyboard-response","175","808470","0.0-95.0-1.0","""event"",""trial"",""time""
""fullscreenenter"",""0"",""2614""
","
","
","""event"",""trial"",""time""
""fullscreenenter"",""0"",""2614""
","
","null","<p></p>","null","","","","","","","","","","","","","","","","","","","","","","",""
"","do_trial","176","813700","0.0-96.0-0.0","""event"",""trial"",""time""
""fullscreenenter"",""0"",""2614""
","
","
","""event"",""trial"",""time""
""fullscreenenter"",""0"",""2614""
","
","692.8000000007451","","","","","","","","50","1,0,0","1","countryside","35","probe-108","0.7088927061995155","0.3197363514944569","0.2112455826817029","0","","","","","","","",""
"","html-keyboard-response","177","814703","0.0-96.0-1.0","""event"",""trial"",""time""
""fullscreenenter"",""0"",""2614""
","
","
","""event"",""trial"",""time""
""fullscreenenter"",""0"",""2614""
","
","null","<p></p>","null","","","","","","","","","","","","","","","","","","","","","","",""
"","do_trial","178","819705","0.0-97.0-0.0","""event"",""trial"",""time""
""fullscreenenter"",""0"",""2614""
","
","
","""event"",""trial"",""time""
""fullscreenenter"",""0"",""2614""
","
","467","","","","","","","","49","1,1,0","1","countryside","36","probe-65","0.6644510212380246","0.3344819429084349","0.05742236720202318","1","","","","","","","",""
"","html-keyboard-response","179","820707","0.0-97.0-1.0","""event"",""trial"",""time""
""fullscreenenter"",""0"",""2614""
","
","
","""event"",""trial"",""time""
""fullscreenenter"",""0"",""2614""
","
","null","<p></p>","null","","","","","","","","","","","","","","","","","","","","","","",""
"","do_trial","180","827438","0.0-98.0-0.0","""event"",""trial"",""time""
""fullscreenenter"",""0"",""2614""
","
","
","""event"",""trial"",""time""
""fullscreenenter"",""0"",""2614""
","
","2193.2000000029802","","","","","","","","49","1,0,0","1","countryside","37","probe-164","0.548555907578141","0.4007638733033311","0.0988354337675307","1","","","","","","","",""
"","html-keyboard-response","181","828441","0.0-98.0-1.0","""event"",""trial"",""time""
""fullscreenenter"",""0"",""2614""
","
","
","""event"",""trial"",""time""
""fullscreenenter"",""0"",""2614""
","
","null","<p></p>","null","","","","","","","","","","","","","","","","","","","","","","",""
"","do_trial","182","834436","0.0-99.0-0.0","""event"",""trial"",""time""
""fullscreenenter"",""0"",""2614""
","
","
","""event"",""trial"",""time""
""fullscreenenter"",""0"",""2614""
","
","1458.0999999977648","","","","","","","","51","0,0,0","1","countryside","38","probe-104","0.6975140958124423","0.28640836819033044","0.09707755949406806","0","","","","","","","",""
"","html-keyboard-response","183","835439","0.0-99.0-1.0","""event"",""trial"",""time""
""fullscreenenter"",""0"",""2614""
","
","
","""event"",""trial"",""time""
""fullscreenenter"",""0"",""2614""
","
","null","<p></p>","null","","","","","","","","","","","","","","","","","","","","","","",""
"","do_trial","184","840589","0.0-100.0-0.0","""event"",""trial"",""time""
""fullscreenenter"",""0"",""2614""
","
","
","""event"",""trial"",""time""
""fullscreenenter"",""0"",""2614""
","
","613.1000000014901","","","","","","","","50","0,0,0","1","countryside","39","probe-228","0.6949075883964789","0.18523129207712305","0.2616755189301908","0","","","","","","","",""
"","html-keyboard-response","185","841592","0.0-100.0-1.0","""event"",""trial"",""time""
""fullscreenenter"",""0"",""2614""
","
","
","""event"",""trial"",""time""
""fullscreenenter"",""0"",""2614""
","
","null","<p></p>","null","","","","","","","","","","","","","","","","","","","","","","",""
"","do_trial","186","847295","0.0-101.0-0.0","""event"",""trial"",""time""
""fullscreenenter"",""0"",""2614""
","
","
","""event"",""trial"",""time""
""fullscreenenter"",""0"",""2614""
","
","1165.300000000745","","","","","","","","49","1,0,1","1","countryside","40","probe-136","0.6758347467129768","0.19741436466943543","0.25573493500581834","1","","","","","","","",""
"","html-keyboard-response","187","848297","0.0-101.0-1.0","""event"",""trial"",""time""
""fullscreenenter"",""0"",""2614""
","
","
","""event"",""trial"",""time""
""fullscreenenter"",""0"",""2614""
","
","null","<p></p>","null","","","","","","","","","","","","","","","","","","","","","","",""
"","do_trial","188","854288","0.0-102.0-0.0","""event"",""trial"",""time""
""fullscreenenter"",""0"",""2614""
","
","
","""event"",""trial"",""time""
""fullscreenenter"",""0"",""2614""
","
","1457.800000000745","","","","","","","","49","0,0,1","1","countryside","41","probe-172","0.6724431729380324","0.07236183725949454","0.2593461856141678","0","","","","","","","",""
"","html-keyboard-response","189","855290","0.0-102.0-1.0","""event"",""trial"",""time""
""fullscreenenter"",""0"",""2614""
","
","
","""event"",""trial"",""time""
""fullscreenenter"",""0"",""2614""
","
","null","<p></p>","null","","","","","","","","","","","","","","","","","","","","","","",""
"","do_trial","190","860634","0.0-103.0-0.0","""event"",""trial"",""time""
""fullscreenenter"",""0"",""2614""
","
","
","""event"",""trial"",""time""
""fullscreenenter"",""0"",""2614""
","
","808.8000000007451","","","","","","","","50","1,0,0","1","countryside","42","probe-131","0.4379481982596991","0.13105911306921944","0.4444968039817714","0","","","","","","","",""
"","html-keyboard-response","191","861636","0.0-103.0-1.0","""event"",""trial"",""time""
""fullscreenenter"",""0"",""2614""
","
","
","""event"",""trial"",""time""
""fullscreenenter"",""0"",""2614""
","
","null","<p></p>","null","","","","","","","","","","","","","","","","","","","","","","",""
"","do_trial","192","867670","0.0-104.0-0.0","""event"",""trial"",""time""
""fullscreenenter"",""0"",""2614""
","
","
","""event"",""trial"",""time""
""fullscreenenter"",""0"",""2614""
","
","null","","","","","","","","null","1,0,1","1","countryside","43","probe-68","0.34016408645879226","0.20121315587830257","0.5830468457189804","","","","","","","","",""
"","html-keyboard-response","193","868672","0.0-104.0-1.0","""event"",""trial"",""time""
""fullscreenenter"",""0"",""2614""
","
","
","""event"",""trial"",""time""
""fullscreenenter"",""0"",""2614""
","
","null","<p></p>","null","","","","","","","","","","","","","","","","","","","","","","",""
"","do_trial","194","873575","0.0-105.0-0.0","""event"",""trial"",""time""
""fullscreenenter"",""0"",""2614""
","
","
","""event"",""trial"",""time""
""fullscreenenter"",""0"",""2614""
","
","366.6000000014901","","","","","","","","50","0,0,1","1","countryside","44","probe-145","0.31986250807755584","0.24528308741815733","0.5665734485938568","0","","","","","","","",""
"","html-keyboard-response","195","874578","0.0-105.0-1.0","""event"",""trial"",""time""
""fullscreenenter"",""0"",""2614""
","
","
","""event"",""trial"",""time""
""fullscreenenter"",""0"",""2614""
","
","null","<p></p>","null","","","","","","","","","","","","","","","","","","","","","","",""
"","do_trial","196","879457","0.0-106.0-0.0","""event"",""trial"",""time""
""fullscreenenter"",""0"",""2614""
","
","
","""event"",""trial"",""time""
""fullscreenenter"",""0"",""2614""
","
","344.5999999977648","","","","","","","","49","0,0,0","1","countryside","45","probe-229","0.2521485668758105","0.2400241707649775","0.5398662103622699","0","","","","","","","",""
"","html-keyboard-response","197","880461","0.0-106.0-1.0","""event"",""trial"",""time""
""fullscreenenter"",""0"",""2614""
","
","
","""event"",""trial"",""time""
""fullscreenenter"",""0"",""2614""
","
","null","<p></p>","null","","","","","","","","","","","","","","","","","","","","","","",""
"","do_trial","198","886199","0.0-107.0-0.0","""event"",""trial"",""time""
""fullscreenenter"",""0"",""2614""
","
","
","""event"",""trial"",""time""
""fullscreenenter"",""0"",""2614""
","
","1200.699999999255","","","","","","","","51","0,0,0","1","countryside","46","probe-75","0.1934693952009755","0.4507446660400662","0.533820748467883","0","","","","","","","",""
"","html-keyboard-response","199","887202","0.0-107.0-1.0","""event"",""trial"",""time""
""fullscreenenter"",""0"",""2614""
","
","
","""event"",""trial"",""time""
""fullscreenenter"",""0"",""2614""
","
","null","<p></p>","null","","","","","","","","","","","","","","","","","","","","","","",""
"","do_trial","200","893242","0.0-108.0-0.0","""event"",""trial"",""time""
""fullscreenenter"",""0"",""2614""
","
","
","""event"",""trial"",""time""
""fullscreenenter"",""0"",""2614""
","
","null","","","","","","","","null","0,1,0","1","countryside","47","probe-89","0.1876292723914232","0.4206038632435663","0.6002170576435168","","","","","","","","",""
"","html-keyboard-response","201","894245","0.0-108.0-1.0","""event"",""trial"",""time""
""fullscreenenter"",""0"",""2614""
","
","
","""event"",""trial"",""time""
""fullscreenenter"",""0"",""2614""
","
","null","<p></p>","null","","","","","","","","","","","","","","","","","","","","","","",""
"","do_trial","202","899943","0.0-109.0-0.0","""event"",""trial"",""time""
""fullscreenenter"",""0"",""2614""
","
","
","""event"",""trial"",""time""
""fullscreenenter"",""0"",""2614""
","
","1164.2999999970198","","","","","","","","50","0,0,0","1","countryside","48","probe-211","0.1359733151786834","0.2994047747554665","0.5571918976648634","0","","","","","","","",""
"","html-keyboard-response","203","900947","0.0-109.0-1.0","""event"",""trial"",""time""
""fullscreenenter"",""0"",""2614""
","
","
","""event"",""trial"",""time""
""fullscreenenter"",""0"",""2614""
","
","null","<p></p>","null","","","","","","","","","","","","","","","","","","","","","","",""
"","do_trial","204","905738","0.0-110.0-0.0","""event"",""trial"",""time""
""fullscreenenter"",""0"",""2614""
","
","
","""event"",""trial"",""time""
""fullscreenenter"",""0"",""2614""
","
","256.9000000022352","","","","","","","","49","0,0,0","1","countryside","49","probe-19","0.06968932044996148","0.2796339415716506","0.6699571014371533","0","","","","","","","",""
"","html-keyboard-response","205","906741","0.0-110.0-1.0","""event"",""trial"",""time""
""fullscreenenter"",""0"",""2614""
","
","
","""event"",""trial"",""time""
""fullscreenenter"",""0"",""2614""
","
","null","<p></p>","null","","","","","","","","","","","","","","","","","","","","","","",""
"","do_trial","206","912783","0.0-111.0-0.0","""event"",""trial"",""time""
""fullscreenenter"",""0"",""2614""
","
","
","""event"",""trial"",""time""
""fullscreenenter"",""0"",""2614""
","
","null","","","","","","","","null","0,0,1","1","countryside","50","probe-183","0.06453856977540022","0.28380433994601123","0.5822961082199296","","","","","","","","",""
"","html-keyboard-response","207","913786","0.0-111.0-1.0","""event"",""trial"",""time""
""fullscreenenter"",""0"",""2614""
","
","
","""event"",""trial"",""time""
""fullscreenenter"",""0"",""2614""
","
","null","<p></p>","null","","","","","","","","","","","","","","","","","","","","","","",""
"","do_trial","208","919486","0.0-112.0-0.0","""event"",""trial"",""time""
""fullscreenenter"",""0"",""2614""
","
","
","""event"",""trial"",""time""
""fullscreenenter"",""0"",""2614""
","
","1165","","","","","","","","51","0,0,0","1","countryside","51","probe-88","0.09964785856842767","0.3766258524675596","0.5776076061924229","0","","","","","","","",""
"","html-keyboard-response","209","920488","0.0-112.0-1.0","""event"",""trial"",""time""
""fullscreenenter"",""0"",""2614""
","
","
","""event"",""trial"",""time""
""fullscreenenter"",""0"",""2614""
","
","null","<p></p>","null","","","","","","","","","","","","","","","","","","","","","","",""
"","do_trial","210","925605","0.0-113.0-0.0","""event"",""trial"",""time""
""fullscreenenter"",""0"",""2614""
","
","
","""event"",""trial"",""time""
""fullscreenenter"",""0"",""2614""
","
","583.7000000029802","","","","","","","","50","1,1,1","1","countryside","52","probe-166","0.08604884741153793","0.3922666569208809","0.5833999805479776","1","","","","","","","",""
"","html-keyboard-response","211","926607","0.0-113.0-1.0","""event"",""trial"",""time""
""fullscreenenter"",""0"",""2614""
","
","
","""event"",""trial"",""time""
""fullscreenenter"",""0"",""2614""
","
","null","<p></p>","null","","","","","","","","","","","","","","","","","","","","","","",""
"","do_trial","212","931583","0.0-114.0-0.0","""event"",""trial"",""time""
""fullscreenenter"",""0"",""2614""
","
","
","""event"",""trial"",""time""
""fullscreenenter"",""0"",""2614""
","
","437.69999999925494","","","","","","","","49","0,1,0","1","countryside","53","probe-50","0.16404349460367415","0.43178209622598496","0.4779602350820468","0","","","","","","","",""
"","html-keyboard-response","213","932586","0.0-114.0-1.0","""event"",""trial"",""time""
""fullscreenenter"",""0"",""2614""
","
","
","""event"",""trial"",""time""
""fullscreenenter"",""0"",""2614""
","
","null","<p></p>","null","","","","","","","","","","","","","","","","","","","","","","",""
"","do_trial","214","937715","0.0-115.0-0.0","""event"",""trial"",""time""
""fullscreenenter"",""0"",""2614""
","
","
","""event"",""trial"",""time""
""fullscreenenter"",""0"",""2614""
","
","591.3999999985099","","","","","","","","50","0,0,0","1","countryside","54","probe-97","0.16907967244568411","0.3073966248818729","0.4476132536315109","0","","","","","","","",""
"","html-keyboard-response","215","938718","0.0-115.0-1.0","""event"",""trial"",""time""
""fullscreenenter"",""0"",""2614""
","
","
","""event"",""trial"",""time""
""fullscreenenter"",""0"",""2614""
","
","null","<p></p>","null","","","","","","","","","","","","","","","","","","","","","","",""
"","do_trial","216","944160","0.0-116.0-0.0","""event"",""trial"",""time""
""fullscreenenter"",""0"",""2614""
","
","
","""event"",""trial"",""time""
""fullscreenenter"",""0"",""2614""
","
","905.8999999985099","","","","","","","","49","0,0,0","1","countryside","55","probe-138","0.20106925027594325","0.22542484778344507","0.5748964522904662","0","","","","","","","",""
"","html-keyboard-response","217","945163","0.0-116.0-1.0","""event"",""trial"",""time""
""fullscreenenter"",""0"",""2614""
","
","
","""event"",""trial"",""time""
""fullscreenenter"",""0"",""2614""
","
","null","<p></p>","null","","","","","","","","","","","","","","","","","","","","","","",""
"","do_trial","218","950619","0.0-117.0-0.0","""event"",""trial"",""time""
""fullscreenenter"",""0"",""2614""
","
","
","""event"",""trial"",""time""
""fullscreenenter"",""0"",""2614""
","
","917.9000000022352","","","","","","","","51","0,0,1","1","countryside","56","probe-80","0.08590827817890606","0.3154681256955945","0.3754241640110368","1","","","","","","","",""
"","html-keyboard-response","219","951622","0.0-117.0-1.0","""event"",""trial"",""time""
""fullscreenenter"",""0"",""2614""
","
","
","""event"",""trial"",""time""
""fullscreenenter"",""0"",""2614""
","
","null","<p></p>","null","","","","","","","","","","","","","","","","","","","","","","",""
"","do_trial","220","957187","0.0-118.0-0.0","""event"",""trial"",""time""
""fullscreenenter"",""0"",""2614""
","
","
","""event"",""trial"",""time""
""fullscreenenter"",""0"",""2614""
","
","1030.199999999255","","","","","","","","50","0,0,0","1","countryside","57","probe-33","0.13258170278428735","0.2854588193549221","0.3870537741787961","0","","","","","","","",""
"","html-keyboard-response","221","958192","0.0-118.0-1.0","""event"",""trial"",""time""
""fullscreenenter"",""0"",""2614""
","
","
","""event"",""trial"",""time""
""fullscreenenter"",""0"",""2614""
","
","null","<p></p>","null","","","","","","","","","","","","","","","","","","","","","","",""
"","do_trial","222","963904","0.0-119.0-0.0","""event"",""trial"",""time""
""fullscreenenter"",""0"",""2614""
","
","
","""event"",""trial"",""time""
""fullscreenenter"",""0"",""2614""
","
","1176.6000000014901","","","","","","","","50","0,0,1","1","countryside","58","probe-141","0.28500935396750193","0.38132154874983704","0.4515418228020742","0","","","","","","","",""
"","html-keyboard-response","223","964907","0.0-119.0-1.0","""event"",""trial"",""time""
""fullscreenenter"",""0"",""2614""
","
","
","""event"",""trial"",""time""
""fullscreenenter"",""0"",""2614""
","
","null","<p></p>","null","","","","","","","","","","","","","","","","","","","","","","",""
"","do_trial","224","970104","0.0-120.0-0.0","""event"",""trial"",""time""
""fullscreenenter"",""0"",""2614""
","
","
","""event"",""trial"",""time""
""fullscreenenter"",""0"",""2614""
","
","660","","","","","","","","49","0,1,0","1","countryside","59","probe-27","0.3053254493746142","0.33512403286833475","0.58493449070586","0","","","","","","","",""
"","html-keyboard-response","225","971107","0.0-120.0-1.0","""event"",""trial"",""time""
""fullscreenenter"",""0"",""2614""
","
","
","""event"",""trial"",""time""
""fullscreenenter"",""0"",""2614""
","
","null","<p></p>","null","","","","","","","","","","","","","","","","","","","","","","",""
"","do_trial","226","976268","0.0-121.0-0.0","""event"",""trial"",""time""
""fullscreenenter"",""0"",""2614""
","
","
","""event"",""trial"",""time""
""fullscreenenter"",""0"",""2614""
","
","625.6999999992549","","","","","","","","50","1,0,0","1","countryside","60","probe-78","0.24473147388036368","0.3603549721697486","0.5167786967155065","0","","","","","","","",""
"","html-keyboard-response","227","977270","0.0-121.0-1.0","""event"",""trial"",""time""
""fullscreenenter"",""0"",""2614""
","
","
","""event"",""trial"",""time""
""fullscreenenter"",""0"",""2614""
","
","null","<p></p>","null","","","","","","","","","","","","","","","","","","","","","","",""
"","do_trial","228","982959","0.0-122.0-0.0","""event"",""trial"",""time""
""fullscreenenter"",""0"",""2614""
","
","
","""event"",""trial"",""time""
""fullscreenenter"",""0"",""2614""
","
","1156.699999999255","","","","","","","","51","1,1,0","1","countryside","61","probe-200","0.1730655218569547","0.4246791416553506","0.4820591624174099","0","","","","","","","",""
"","html-keyboard-response","229","983965","0.0-122.0-1.0","""event"",""trial"",""time""
""fullscreenenter"",""0"",""2614""
","
","
","""event"",""trial"",""time""
""fullscreenenter"",""0"",""2614""
","
","null","<p></p>","null","","","","","","","","","","","","","","","","","","","","","","",""
"","do_trial","230","989400","0.0-123.0-0.0","""event"",""trial"",""time""
""fullscreenenter"",""0"",""2614""
","
","
","""event"",""trial"",""time""
""fullscreenenter"",""0"",""2614""
","
","897.8999999985099","","","","","","","","50","0,0,1","1","countryside","62","probe-134","0.10060942633298367","0.3188500977333221","0.5838321331421851","0","","","","","","","",""
"","html-keyboard-response","231","990406","0.0-123.0-1.0","""event"",""trial"",""time""
""fullscreenenter"",""0"",""2614""
","
","
","""event"",""trial"",""time""
""fullscreenenter"",""0"",""2614""
","
","null","<p></p>","null","","","","","","","","","","","","","","","","","","","","","","",""
"","do_trial","232","995461","0.0-124.0-0.0","""event"",""trial"",""time""
""fullscreenenter"",""0"",""2614""
","
","
","""event"",""trial"",""time""
""fullscreenenter"",""0"",""2614""
","
","520.5","","","","","","","","49","1,1,1","1","countryside","63","probe-60","0.23512821591690597","0.43490063816270164","0.548355537735859","1","","","","","","","",""
"","html-keyboard-response","233","996464","0.0-124.0-1.0","""event"",""trial"",""time""
""fullscreenenter"",""0"",""2614""
","
","
","""event"",""trial"",""time""
""fullscreenenter"",""0"",""2614""
","
","null","<p></p>","null","","","","","","","","","","","","","","","","","","","","","","",""
"","do_trial","234","1002065","0.0-125.0-0.0","""event"",""trial"",""time""
""fullscreenenter"",""0"",""2614""
","
","
","""event"",""trial"",""time""
""fullscreenenter"",""0"",""2614""
","
","1066.300000000745","","","","","","","","50","0,0,0","1","countryside","64","probe-212","0.11731259983047561","0.5052896674266643","0.5654887775163732","0","","","","","","","",""
"","html-keyboard-response","235","1003068","0.0-125.0-1.0","""event"",""trial"",""time""
""fullscreenenter"",""0"",""2614""
","
","
","""event"",""trial"",""time""
""fullscreenenter"",""0"",""2614""
","
","null","<p></p>","null","","","","","","","","","","","","","","","","","","","","","","",""
"","do_trial","236","1008197","0.0-126.0-0.0","""event"",""trial"",""time""
""fullscreenenter"",""0"",""2614""
","
","
","""event"",""trial"",""time""
""fullscreenenter"",""0"",""2614""
","
","593.9000000022352","","","","","","","","49","0,1,0","1","countryside","65","probe-199","0.05132358752965618","0.37595362162657603","0.6168860323133759","0","","","","","","","",""
"","html-keyboard-response","237","1009200","0.0-126.0-1.0","""event"",""trial"",""time""
""fullscreenenter"",""0"",""2614""
","
","
","""event"",""trial"",""time""
""fullscreenenter"",""0"",""2614""
","
","null","<p></p>","null","","","","","","","","","","","","","","","","","","","","","","",""
"","do_trial","238","1014866","0.0-127.0-0.0","""event"",""trial"",""time""
""fullscreenenter"",""0"",""2614""
","
","
","""event"",""trial"",""time""
""fullscreenenter"",""0"",""2614""
","
","1133.6000000014901","","","","","","","","50","0,1,1","1","countryside","66","probe-190","0.17069821128292698","0.5006482342667021","0.5348639090903814","1","","","","","","","",""
"","html-keyboard-response","239","1015868","0.0-127.0-1.0","""event"",""trial"",""time""
""fullscreenenter"",""0"",""2614""
","
","
","""event"",""trial"",""time""
""fullscreenenter"",""0"",""2614""
","
","null","<p></p>","null","","","","","","","","","","","","","","","","","","","","","","",""
"","do_trial","240","1020934","0.0-128.0-0.0","""event"",""trial"",""time""
""fullscreenenter"",""0"",""2614""
","
","
","""event"",""trial"",""time""
""fullscreenenter"",""0"",""2614""
","
","528.3999999985099","","","","","","","","51","0,1,0","1","countryside","67","probe-37","0.1299401401722526","0.40713652992992183","0.5456489945018771","0","","","","","","","",""
"","html-keyboard-response","241","1021937","0.0-128.0-1.0","""event"",""trial"",""time""
""fullscreenenter"",""0"",""2614""
","
","
","""event"",""trial"",""time""
""fullscreenenter"",""0"",""2614""
","
","null","<p></p>","null","","","","","","","","","","","","","","","","","","","","","","",""
"","do_trial","242","1027086","0.0-129.0-0.0","""event"",""trial"",""time""
""fullscreenenter"",""0"",""2614""
","
","
","""event"",""trial"",""time""
""fullscreenenter"",""0"",""2614""
","
","614.6999999992549","","","","","","","","50","0,0,1","1","countryside","68","probe-93","0.06177958593840904","0.38628666485830715","0.6493858397241598","0","","","","","","","",""
"","html-keyboard-response","243","1028091","0.0-129.0-1.0","""event"",""trial"",""time""
""fullscreenenter"",""0"",""2614""
","
","
","""event"",""trial"",""time""
""fullscreenenter"",""0"",""2614""
","
","null","<p></p>","null","","","","","","","","","","","","","","","","","","","","","","",""
"","do_trial","244","1033018","0.0-130.0-0.0","""event"",""trial"",""time""
""fullscreenenter"",""0"",""2614""
","
","
","""event"",""trial"",""time""
""fullscreenenter"",""0"",""2614""
","
","390.0999999977648","","","","","","","","49","0,0,0","1","countryside","69","probe-155","0.1042749639945697","0.3197202984854935","0.5712819430073283","0","","","","","","","",""
"","html-keyboard-response","245","1034021","0.0-130.0-1.0","""event"",""trial"",""time""
""fullscreenenter"",""0"",""2614""
","
","
","""event"",""trial"",""time""
""fullscreenenter"",""0"",""2614""
","
","null","<p></p>","null","","","","","","","","","","","","","","","","","","","","","","",""
"","do_bye","246","1035528","0.0-131.0-0.0","""event"",""trial"",""time""
""fullscreenenter"",""0"",""2614""
","
","
","""event"",""trial"",""time""
""fullscreenenter"",""0"",""2614""
","
","null","","","","","","","","null","","","","","","","","","","","","","","","","",""
"","break","247","1041765","0.0-131.0-1.0","""event"",""trial"",""time""
""fullscreenenter"",""0"",""2614""
","
","
","""event"",""trial"",""time""
""fullscreenenter"",""0"",""2614""
","
","6236.300000000745","<div class='center'><p>Time to take a quick break! You have 2 minutes to rest, but you can move on sooner if you'd like.</p><p> Press the <b>space bar</b> to continue.</p></div>","32","","","","","","","","","","","","","","","","","","","","","","",""
"","do_travel","248","1050770","0.0-132.0-0.0","""event"",""trial"",""time""
""fullscreenenter"",""0"",""2614""
","
","
","""event"",""trial"",""time""
""fullscreenenter"",""0"",""2614""
","
","null","","","","","","","","null","","","","","","","","","","","","","","","","",""
"","do_welcome","249","1054776","0.0-132.0-1.0","""event"",""trial"",""time""
""fullscreenenter"",""0"",""2614""
","
","
","""event"",""trial"",""time""
""fullscreenenter"",""0"",""2614""
","
","null","","","","","","","","null","","","","","","","","","","","","","","","","",""
"","do_trial","250","1061693","0.0-133.0-0.0","""event"",""trial"",""time""
""fullscreenenter"",""0"",""2614""
","
","
","""event"",""trial"",""time""
""fullscreenenter"",""0"",""2614""
","
","2380.39999999851","","","","","","","","50","0,0,1","2","highway","70","probe-57","0.11267939287120134","0.27410216509765123","1","0","","","","","","","",""
"","html-keyboard-response","251","1062696","0.0-133.0-1.0","""event"",""trial"",""time""
""fullscreenenter"",""0"",""2614""
","
","
","""event"",""trial"",""time""
""fullscreenenter"",""0"",""2614""
","
","null","<p></p>","null","","","","","","","","","","","","","","","","","","","","","","",""
"","do_trial","252","1068332","0.0-134.0-0.0","""event"",""trial"",""time""
""fullscreenenter"",""0"",""2614""
","
","
","""event"",""trial"",""time""
""fullscreenenter"",""0"",""2614""
","
","1099.6000000014901","","","","","","","","51","1,0,1","2","highway","71","probe-201","0.27979964475822644","0.24397618960146308","1","1","","","","","","","",""
"","html-keyboard-response","253","1069334","0.0-134.0-1.0","""event"",""trial"",""time""
""fullscreenenter"",""0"",""2614""
","
","
","""event"",""trial"",""time""
""fullscreenenter"",""0"",""2614""
","
","null","<p></p>","null","","","","","","","","","","","","","","","","","","","","","","",""
"","do_trial","254","1074228","0.0-135.0-0.0","""event"",""trial"",""time""
""fullscreenenter"",""0"",""2614""
","
","
","""event"",""trial"",""time""
""fullscreenenter"",""0"",""2614""
","
","356.1000000014901","","","","","","","","49","0,0,1","2","highway","72","probe-224","0.17750342278250447","0.17065939439306838","0.8481728895683938","0","","","","","","","",""
"","html-keyboard-response","255","1075231","0.0-135.0-1.0","""event"",""trial"",""time""
""fullscreenenter"",""0"",""2614""
","
","
","""event"",""trial"",""time""
""fullscreenenter"",""0"",""2614""
","
","null","<p></p>","null","","","","","","","","","","","","","","","","","","","","","","",""
"","do_trial","256","1080258","0.0-136.0-0.0","""event"",""trial"",""time""
""fullscreenenter"",""0"",""2614""
","
","
","""event"",""trial"",""time""
""fullscreenenter"",""0"",""2614""
","
","490","","","","","","","","50","0,0,1","2","highway","73","probe-157","0.1093442477076638","0.0631845107449228","0.7277027231745765","0","","","","","","","",""
"","html-keyboard-response","257","1081262","0.0-136.0-1.0","""event"",""trial"",""time""
""fullscreenenter"",""0"",""2614""
","
","
","""event"",""trial"",""time""
""fullscreenenter"",""0"",""2614""
","
","null","<p></p>","null","","","","","","","","","","","","","","","","","","","","","","",""
"","do_trial","258","1086671","0.0-137.0-0.0","""event"",""trial"",""time""
""fullscreenenter"",""0"",""2614""
","
","
","""event"",""trial"",""time""
