"success","trial_type","trial_index","time_elapsed","internal_node_id","interactions","blur_events","focus_events","fullscreenenter_events","fullscreenexit_events"
"true","fullscreen","0","3089","0.0-0.0","""event"",""trial"",""time""
""fullscreenenter"",""0"",""2162""
","
","
","""event"",""trial"",""time""
""fullscreenenter"",""0"",""2162""
","
"
"","pavlovia","1","3094","0.0-1.0","""event"",""trial"",""time""
""fullscreenenter"",""0"",""2162""
""blur"",""2"",""51321""
""focus"",""2"",""52087""
""blur"",""2"",""54788""
""focus"",""2"",""55708""
""blur"",""2"",""68278""
""focus"",""2"",""77737""
""fullscreenexit"",""2"",""100006""
""blur"",""2"",""106359""
""focus"",""2"",""106401""
","""event"",""trial"",""time""
""blur"",""2"",""51321""
""blur"",""2"",""54788""
""blur"",""2"",""68278""
""blur"",""2"",""106359""
","""event"",""trial"",""time""
""focus"",""2"",""52087""
""focus"",""2"",""55708""
""focus"",""2"",""77737""
""focus"",""2"",""106401""
","""event"",""trial"",""time""
""fullscreenenter"",""0"",""2162""
","""event"",""trial"",""time""
""fullscreenexit"",""2"",""100006""
"
