"success","trial_type","trial_index","time_elapsed","internal_node_id","interactions","blur_events","focus_events","fullscreenenter_events","fullscreenexit_events","rt","stimulus","key_press","subject_id","participant_id","age","gender","prompt","response","choice_outcomes","context_n","context_img_id","trial_n","probe_img_id","pR_red","pR_white","pR_black","outcome","contextArray_ind","validImageProbes","invalidImageProbes","pRew_Red","pRew_White","pRew_Black","availableForMemProbe","choice_blocks"
"true","fullscreen","0","4963","0.0-0.0","""event"",""trial"",""time""
""fullscreenenter"",""0"",""3966""
","
","
","""event"",""trial"",""time""
""fullscreenenter"",""0"",""3966""
","
","","","","","","","","","","","","","","","","","","","","","","","","","",""
"","pavlovia","1","4973","0.0-1.0","""event"",""trial"",""time""
""fullscreenenter"",""0"",""3966""
","
","
","""event"",""trial"",""time""
""fullscreenenter"",""0"",""3966""
","
","","","","","","","","","","","","","","","","","","","","","","","","","",""
"","instruc1","2","50113","0.0-2.0","""event"",""trial"",""time""
""fullscreenenter"",""0"",""3966""
","
","
","""event"",""trial"",""time""
""fullscreenenter"",""0"",""3966""
","
","null","run_exp/static/audio/clip_1_welcome.m4a","null","223","702","9","Male","<div class='center'><p>Welcome! This is the first part of the study. It will last ~30 minutes. In part 1 and part 2 of the study, you are the head captain of a pirate ship traveling around the world to different islands. You will play a few different games throughout these two parts. Here is an overview of them:</p><br><p>Part 1 (today)</p><p>1. Instructions, practice game, and quiz</p><p>2. Pick a pirate game on 6 different islands</p><br><p>Part 2 (tomorrow)</p><p>3. Pick a pirate game and memory game</p><p>4. Where did you see this ship? </p></div>","","","","","","","","","","","","","","","","","",""
"","html-keyboard-response","3","50948","0.0-3.0","""event"",""trial"",""time""
""fullscreenenter"",""0"",""3966""
","
","
","""event"",""trial"",""time""
""fullscreenenter"",""0"",""3966""
","
","831.7999999998137","<div class='center'><p>Welcome! This is the first part of the study. It will last ~30 minutes. In part 1 and part 2 of the study, you are the head captain of a pirate ship traveling around the world to different islands. You will play a few different games throughout these two parts. Here is an overview of them:</p><br><p>Part 1 (today)</p><p>1. Instructions, practice game, and quiz</p><p>2. Pick a pirate game on 6 different islands</p><br><p>Part 2 (tomorrow)</p><p>3. Pick a pirate game and memory game</p><p>4. Where did you see this ship? </p><p><b>[Press the space bar to continue]</b></p></div>","32","","","","","","","","","","","","","","","","","","","","","","",""
"","instruc2","4","56271","0.0-4.0","""event"",""trial"",""time""
""fullscreenenter"",""0"",""3966""
","
","
","""event"",""trial"",""time""
""fullscreenenter"",""0"",""3966""
","
","null","run_exp/static/audio/clip_2_different_places.m4a","null","","","","","<div class='center'><p>Today, you’ll visit these 6 islands on your journey. You'll be able to see these islands from your ship.</p><p><img src='run_exp/static/images/contexts/all_contexts.png' height='500'></p></div>","","","","","","","","","","","","","","","","","",""
"","html-keyboard-response","5","57942","0.0-5.0","""event"",""trial"",""time""
""fullscreenenter"",""0"",""3966""
","
","
","""event"",""trial"",""time""
""fullscreenenter"",""0"",""3966""
","
","1667.7999999998137","<div class='center'><p>Today, you’ll visit these 6 islands on your journey. You'll be able to see these islands from your ship.</p><p><img src='run_exp/static/images/contexts/all_contexts.png' height='500'></p><p><b>[Press the space bar to continue]</b></p></div>","32","","","","","","","","","","","","","","","","","","","","","","",""
"","instruc3","6","67651","0.0-6.0","""event"",""trial"",""time""
""fullscreenenter"",""0"",""3966""
","
","
","""event"",""trial"",""time""
""fullscreenenter"",""0"",""3966""
","
","null","run_exp/static/audio/clip_3_goal_of_game_1.m4a","null","","","","","<div class='center'><p> The pirates on your ship will rob other ships as they leave the island.</p> These ships have just sold their goods to the islanders, so they will be filled with lots and lots of gold.</p><p><img src='run_exp/static/images/tutorial/ship_center.png' height='400'></p></div>","","","","","","","","","","","","","","","","","",""
"","html-keyboard-response","7","68741","0.0-7.0","""event"",""trial"",""time""
""fullscreenenter"",""0"",""3966""
","
","
","""event"",""trial"",""time""
""fullscreenenter"",""0"",""3966""
","
","1087.7000000001863","<div class='center'><p> The pirates on your ship will rob other ships as they leave the island.</p> These ships have just sold their goods to the islanders, so they will be filled with lots and lots of gold.</p><p><img src='run_exp/static/images/tutorial/ship_center.png' height='400'></p><p><b>[Press the space bar to continue]</b></p></div>","32","","","","","","","","","","","","","","","","","","","","","","",""
"","instruc4","8","96751","0.0-8.0","""event"",""trial"",""time""
""fullscreenenter"",""0"",""3966""
","
","
","""event"",""trial"",""time""
""fullscreenenter"",""0"",""3966""
","
","null","run_exp/static/audio/clip_4_goal_of_game_2.m4a","null","","","","","<div class='center'><p>As the head captain, you do not have to rob any ships yourself. Another pirate will be doing the robbing for you. First, you will choose a pirate to rob the next ship.</p><p><img src='run_exp/static/images/tutorial/pirates_all_crop.png' height='200'></p><p>Then, you'll see if the pirate successfully robbed the ship of their gold. If they were successful, then you'll get a stack of gold coins like this:</p><p><img src='run_exp/static/images/tutorial/reward.png' height='150'></p><p> If they were <b>not</b> successful, then you'll get no gold coins, and you'll see a big red x like this: </p><p><img src='run_exp/static/images/tutorial/reward_no.png' height='150'></p><p> How much bonus money you make is based on how many gold coins you collect.</p><div>","","","","","","","","","","","","","","","","","",""
"","html-keyboard-response","9","98545","0.0-9.0","""event"",""trial"",""time""
""fullscreenenter"",""0"",""3966""
","
","
","""event"",""trial"",""time""
""fullscreenenter"",""0"",""3966""
","
","1789.7999999998137","<div class='center'><p>As the head captain, you do not have to rob any ships yourself. Another pirate will be doing the robbing for you. First, you will choose a pirate to rob the next ship.</p><p><img src='run_exp/static/images/tutorial/pirates_all_crop.png' height='200'></p><p>Then, you'll see if the pirate successfully robbed the ship of their gold. If they were successful, then you'll get a stack of gold coins like this:</p><p><img src='run_exp/static/images/tutorial/reward.png' height='150'></p><p> If they were <b>not</b> successful, then you'll get no gold coins, and you'll see a big red x like this: </p><p><img src='run_exp/static/images/tutorial/reward_no.png' height='150'></p><p> How much bonus money you make is based on how many gold coins you collect.</p<p><b>[Press the space bar to continue]</b></p></div>","32","","","","","","","","","","","","","","","","","","","","","","",""
"","instruc5","10","128607","0.0-10.0","""event"",""trial"",""time""
""fullscreenenter"",""0"",""3966""
","
","
","""event"",""trial"",""time""
""fullscreenenter"",""0"",""3966""
","
","30058.799999999814","run_exp/static/audio/clip_5_probabilistic.m4a","49","","","","","<div class='center'><p>Even the most skilled pirate can not rob EVERY ship.</p><p> Some ships will have very strong protections against pirate attacks.</p><p> Blue beard, here, is very, very good at robbing ships, but he won't be successful every time he tries to rob one.</p><p> You can press the <b>‘1’</b> key on the keyboard to choose him.</p><p> Try choosing him 10 times to see how often he succeeds at robbing a ship. </p><p><img src='run_exp/static/images/tutorial/blue.png' height='500'></p></div>","","","","","","","","","","","","","","","","","",""
"","html-keyboard-response","11","130114","0.0-11.0","""event"",""trial"",""time""
""fullscreenenter"",""0"",""3966""
","
","
","""event"",""trial"",""time""
""fullscreenenter"",""0"",""3966""
","
","null","<div class='center'><p><img src='run_exp/static/images/tutorial/blue_win.png' height='500'></p></div>","null","","","","","","","","","","","","","","","","","","","","","","",""
"","html-keyboard-response","12","131984","0.0-12.0","""event"",""trial"",""time""
""fullscreenenter"",""0"",""3966""
","
","
","""event"",""trial"",""time""
""fullscreenenter"",""0"",""3966""
","
","1868.3999999999069","<div class='center'><img src='run_exp/static/images/tutorial/blue.png' height='500'></p></div>","49","","","","","","","","","","","","","","","","","","","","","","",""
"","html-keyboard-response","13","133489","0.0-13.0","""event"",""trial"",""time""
""fullscreenenter"",""0"",""3966""
","
","
","""event"",""trial"",""time""
""fullscreenenter"",""0"",""3966""
","
","null","<div class='center'><p><img src='run_exp/static/images/tutorial/blue_win.png' height='500'></p></div>","null","","","","","","","","","","","","","","","","","","","","","","",""
"","html-keyboard-response","14","134000","0.0-14.0","""event"",""trial"",""time""
""fullscreenenter"",""0"",""3966""
","
","
","""event"",""trial"",""time""
""fullscreenenter"",""0"",""3966""
","
","508.89999999990687","<div class='center'><img src='run_exp/static/images/tutorial/blue.png' height='500'></p></div>","49","","","","","","","","","","","","","","","","","","","","","","",""
"","html-keyboard-response","15","135502","0.0-15.0","""event"",""trial"",""time""
""fullscreenenter"",""0"",""3966""
","
","
","""event"",""trial"",""time""
""fullscreenenter"",""0"",""3966""
","
","null","<div class='center'><p><img src='run_exp/static/images/tutorial/blue_win.png' height='500'></p></div>","null","","","","","","","","","","","","","","","","","","","","","","",""
"","html-keyboard-response","16","135878","0.0-16.0","""event"",""trial"",""time""
""fullscreenenter"",""0"",""3966""
","
","
","""event"",""trial"",""time""
""fullscreenenter"",""0"",""3966""
","
","374.39999999990687","<div class='center'><img src='run_exp/static/images/tutorial/blue.png' height='500'></p></div>","49","","","","","","","","","","","","","","","","","","","","","","",""
"","html-keyboard-response","17","137390","0.0-17.0","""event"",""trial"",""time""
""fullscreenenter"",""0"",""3966""
","
","
","""event"",""trial"",""time""
""fullscreenenter"",""0"",""3966""
","
","null","<div class='center'><p><img src='run_exp/static/images/tutorial/blue_no_win.png' height='500'></p></div>","null","","","","","","","","","","","","","","","","","","","","","","",""
"","html-keyboard-response","18","137818","0.0-18.0","""event"",""trial"",""time""
""fullscreenenter"",""0"",""3966""
","
","
","""event"",""trial"",""time""
""fullscreenenter"",""0"",""3966""
","
","426.60000000009313","<div class='center'><img src='run_exp/static/images/tutorial/blue.png' height='500'></p></div>","49","","","","","","","","","","","","","","","","","","","","","","",""
"","html-keyboard-response","19","139332","0.0-19.0","""event"",""trial"",""time""
""fullscreenenter"",""0"",""3966""
","
","
","""event"",""trial"",""time""
""fullscreenenter"",""0"",""3966""
","
","null","<div class='center'><p><img src='run_exp/static/images/tutorial/blue_win.png' height='500'></p></div>","null","","","","","","","","","","","","","","","","","","","","","","",""
"","html-keyboard-response","20","139978","0.0-20.0","""event"",""trial"",""time""
""fullscreenenter"",""0"",""3966""
","
","
","""event"",""trial"",""time""
""fullscreenenter"",""0"",""3966""
","
","644.6000000000931","<div class='center'><img src='run_exp/static/images/tutorial/blue.png' height='500'></p></div>","49","","","","","","","","","","","","","","","","","","","","","","",""
"","html-keyboard-response","21","141490","0.0-21.0","""event"",""trial"",""time""
""fullscreenenter"",""0"",""3966""
","
","
","""event"",""trial"",""time""
""fullscreenenter"",""0"",""3966""
","
","null","<div class='center'><p><img src='run_exp/static/images/tutorial/blue_win.png' height='500'></p></div>","null","","","","","","","","","","","","","","","","","","","","","","",""
"","html-keyboard-response","22","142538","0.0-22.0","""event"",""trial"",""time""
""fullscreenenter"",""0"",""3966""
","
","
","""event"",""trial"",""time""
""fullscreenenter"",""0"",""3966""
","
","1046.1000000000931","<div class='center'><img src='run_exp/static/images/tutorial/blue.png' height='500'></p></div>","49","","","","","","","","","","","","","","","","","","","","","","",""
"","html-keyboard-response","23","144046","0.0-23.0","""event"",""trial"",""time""
""fullscreenenter"",""0"",""3966""
","
","
","""event"",""trial"",""time""
""fullscreenenter"",""0"",""3966""
","
","null","<div class='center'><p><img src='run_exp/static/images/tutorial/blue_win.png' height='500'></p></div>","null","","","","","","","","","","","","","","","","","","","","","","",""
"","html-keyboard-response","24","144492","0.0-24.0","""event"",""trial"",""time""
""fullscreenenter"",""0"",""3966""
","
","
","""event"",""trial"",""time""
""fullscreenenter"",""0"",""3966""
","
","445.10000000009313","<div class='center'><img src='run_exp/static/images/tutorial/blue.png' height='500'></p></div>","49","","","","","","","","","","","","","","","","","","","","","","",""
"","html-keyboard-response","25","146001","0.0-25.0","""event"",""trial"",""time""
""fullscreenenter"",""0"",""3966""
","
","
","""event"",""trial"",""time""
""fullscreenenter"",""0"",""3966""
","
","null","<div class='center'><p><img src='run_exp/static/images/tutorial/blue_no_win.png' height='500'></p></div>","null","","","","","","","","","","","","","","","","","","","","","","",""
"","html-keyboard-response","26","147169","0.0-26.0","""event"",""trial"",""time""
""fullscreenenter"",""0"",""3966""
","
","
","""event"",""trial"",""time""
""fullscreenenter"",""0"",""3966""
","
","1166","<div class='center'><img src='run_exp/static/images/tutorial/blue.png' height='500'></p></div>","49","","","","","","","","","","","","","","","","","","","","","","",""
"","html-keyboard-response","27","148682","0.0-27.0","""event"",""trial"",""time""
""fullscreenenter"",""0"",""3966""
","
","
","""event"",""trial"",""time""
""fullscreenenter"",""0"",""3966""
","
","null","<div class='center'><p><img src='run_exp/static/images/tutorial/blue_win.png' height='500'></p></div>","null","","","","","","","","","","","","","","","","","","","","","","",""
"","html-keyboard-response","28","149050","0.0-28.0","""event"",""trial"",""time""
""fullscreenenter"",""0"",""3966""
","
","
","""event"",""trial"",""time""
""fullscreenenter"",""0"",""3966""
","
","367","<div class='center'><img src='run_exp/static/images/tutorial/blue.png' height='500'></p></div>","49","","","","","","","","","","","","","","","","","","","","","","",""
"","html-keyboard-response","29","150565","0.0-29.0","""event"",""trial"",""time""
""fullscreenenter"",""0"",""3966""
","
","
","""event"",""trial"",""time""
""fullscreenenter"",""0"",""3966""
","
","null","<div class='center'><p><img src='run_exp/static/images/tutorial/blue_win.png' height='500'></p></div>","null","","","","","","","","","","","","","","","","","","","","","","",""
"","instruc6","30","156368","0.0-30.0","""event"",""trial"",""time""
""fullscreenenter"",""0"",""3966""
","
","
","""event"",""trial"",""time""
""fullscreenenter"",""0"",""3966""
","
","null","run_exp/static/audio/clip_6_blue_beard_outcome.m4a","null","","","","","<div class='center'><p> See, he succeeded in robbing the ships most of the time but not every time. </p></div>","","","","","","","","","","","","","","","","","",""
"","html-keyboard-response","31","157824","0.0-31.0","""event"",""trial"",""time""
""fullscreenenter"",""0"",""3966""
","
","
","""event"",""trial"",""time""
""fullscreenenter"",""0"",""3966""
","
","1454.3999999999069","<div class='center'><p> See, he succeeded in robbing the ships most of the time but not every time. </p><p><b>[Press the space bar to continue]</b></p></div>","32","","","","","","","","","","","","","","","","","","","","","","",""
"","audio-keyboard-response","32","174469","0.0-32.0","""event"",""trial"",""time""
""fullscreenenter"",""0"",""3966""
","
","
","""event"",""trial"",""time""
""fullscreenenter"",""0"",""3966""
","
","16642.299999999814","run_exp/static/audio/clip_7_pick_pirate.m4a","51","","","","","","","","","","","","","","","","","","","","","","",""
"","audio-keyboard-response","33","179358","0.0-33.0-0.0","""event"",""trial"",""time""
""fullscreenenter"",""0"",""3966""
","
","
","""event"",""trial"",""time""
""fullscreenenter"",""0"",""3966""
","
","4885.5","run_exp/static/audio/clip_8_chosen_pirate_win.m4a","32","","","","","","","","","","","","","","","","","","","","","","",""
"","audio-keyboard-response","34","183707","0.0-33.0-1.0","""event"",""trial"",""time""
""fullscreenenter"",""0"",""3966""
","
","
","""event"",""trial"",""time""
""fullscreenenter"",""0"",""3966""
","
","4347","run_exp/static/audio/clip_9_pick_a_pirate_again.m4a","50","","","","","","","","","","","","","","","","","","","","","","",""
"","audio-keyboard-response","35","185732","0.0-34.0-0.0","""event"",""trial"",""time""
""fullscreenenter"",""0"",""3966""
","
","
","""event"",""trial"",""time""
""fullscreenenter"",""0"",""3966""
","
","2020.6000000000931","run_exp/static/audio/clip_10_chosen_pirate_loss.m4a","32","","","","","","","","","","","","","","","","","","","","","","",""
"","instruc9","36","191248","0.0-35.0-0.0","""event"",""trial"",""time""
""fullscreenenter"",""0"",""3966""
","
","
","""event"",""trial"",""time""
""fullscreenenter"",""0"",""3966""
","
","null","run_exp/static/audio/clip_11_time_out.m4a","null","","","","","<div class='center'><p>If you don’t make your choice fast enough, you’ll have to wait a few seconds before you can make another one. </p><p><img src='run_exp/static/images/miscellaneous/hurry_up.png' height='500'></p></div>","","","","","","","","","","","","","","","","","",""
"","html-keyboard-response","37","193018","0.0-35.0-1.0","""event"",""trial"",""time""
""fullscreenenter"",""0"",""3966""
","
","
","""event"",""trial"",""time""
""fullscreenenter"",""0"",""3966""
","
","1768.1999999997206","<div class='center'><p>If you don’t make your choice fast enough, you’ll have to wait a few seconds before you can make another one. </p><p><img src='run_exp/static/images/miscellaneous/hurry_up.png' height='500'></p><p><b>[Press the space bar to continue]</b></p></div>","32","","","","","","","","","","","","","","","","","","","","","","",""
"","instruc10","38","232128","0.0-35.0-2.0","""event"",""trial"",""time""
""fullscreenenter"",""0"",""3966""
","
","
","""event"",""trial"",""time""
""fullscreenenter"",""0"",""3966""
","
","null","run_exp/static/audio/clip_12_probe.m4a","null","","","","","<div class='center'><p>Once you've chosen a pirate, you’ll be shown the ship they are robbing. You will never rob the same ship twice. Ships can be told apart from one another by the image on them. These are the goods that they sell. See, this ship has a travel mug on it. </p><p> You’ll have to remember which island you saw each ship on. You will win more gold coins and hence more bonus money if you remember correctly! To help you remember, you can imagine a story. For example, here, you could imagine a mug full of water in the desert. Or, as another example, if on the forest island, your pirate robbed a ship with an apple on it, you could imagine an apple falling from a tree in the forest. </p><p><img src='run_exp/static/images/tutorial/example_probe.png' height='500'></p></div>","","","","","","","","","","","","","","","","","",""
"","html-keyboard-response","39","234841","0.0-35.0-3.0","""event"",""trial"",""time""
""fullscreenenter"",""0"",""3966""
","
","
","""event"",""trial"",""time""
""fullscreenenter"",""0"",""3966""
","
","2710.399999999907","<div class='center'><p>Once you've chosen a pirate, you’ll be shown the ship they are robbing. You will never rob the same ship twice. Ships can be told apart from one another by the image on them. These are the goods that they sell. See, this ship has a travel mug on it. </p><p> You’ll have to remember which island you saw each ship on. You will win more gold coins and hence more bonus money if you remember correctly! To help you remember, you can imagine a story. For example, here, you could imagine a mug full of water in the desert. Or, as another example, if on the forest island, your pirate robbed a ship with an apple on it, you could imagine an apple falling from a tree in the forest. </p><p><img src='run_exp/static/images/tutorial/example_probe.png' height='500'></p><p><b>[Press the space bar to continue]</b></p></div>","32","","","","","","","","","","","","","","","","","","","","","","",""
"","instruc11","40","251268","0.0-35.0-4.0","""event"",""trial"",""time""
""fullscreenenter"",""0"",""3966""
","
","
","""event"",""trial"",""time""
""fullscreenenter"",""0"",""3966""
","
","null","run_exp/static/audio/clip_13_changepoint.m4a","null","","","","","<div class='center'><p>How successful a pirate is at robbing ships will depend on the island you’re on.</p><p> A pirate may have visited this island many times before and gained a lot of practice robbing ships there.</p><p>So, they’re more likely to be successful than a pirate who has never visited the island before.</p></div>","","","","","","","","","","","","","","","","","",""
"","html-keyboard-response","41","252721","0.0-35.0-5.0","""event"",""trial"",""time""
""fullscreenenter"",""0"",""3966""
","
","
","""event"",""trial"",""time""
""fullscreenenter"",""0"",""3966""
","
","1451.8999999999069","<div class='center'><p>How successful a pirate is at robbing ships will depend on the island you’re on.</p><p> A pirate may have visited this island many times before and gained a lot of practice robbing ships there.</p><p>So, they’re more likely to be successful than a pirate who has never visited the island before.</p><p><b>[Press the space bar to continue]</b></p></div>","32","","","","","","","","","","","","","","","","","","","","","","",""
"","instruc12","42","293828","0.0-35.0-6.0","""event"",""trial"",""time""
""fullscreenenter"",""0"",""3966""
","
","
","""event"",""trial"",""time""
""fullscreenenter"",""0"",""3966""
","
","null","run_exp/static/audio/clip_14_drift.m4a","null","","","","","<div class='center'><p>How successful a pirate is at robbing ships can also change over the time spent on the island. </p><p> Ships may hear from islanders about the pirates coming and will improve their protections against the attack. This may make it harder to rob them.</p><p> Ships may also become lazy and weaken the strength of their protections. This may make it easier to rob them.</p><br><p>Things are always changing on the high seas! So, try your best to pay attention!</p><p><img src='run_exp/static/images/tutorial/contingency.png' height='500'></p></div>","","","","","","","","","","","","","","","","","",""
"","html-keyboard-response","43","295286","0.0-35.0-7.0","""event"",""trial"",""time""
""fullscreenenter"",""0"",""3966""
","
","
","""event"",""trial"",""time""
""fullscreenenter"",""0"",""3966""
","
","1455.6000000000931","<div class='center'><p>How successful a pirate is at robbing ships can also change over the time spent on the island. </p><p> Ships may hear from islanders about the pirates coming and will improve their protections against the attack. This may make it harder to rob them.</p><p> Ships may also become lazy and weaken the strength of their protections. This may make it easier to rob them.</p><br><p>Things are always changing on the high seas! So, try your best to pay attention!</p><p><img src='run_exp/static/images/tutorial/contingency.png' height='500'></p><p><b>[Press the space bar to continue]</b></p></div>","32","","","","","","","","","","","","","","","","","","","","","","",""
"","instruc13","44","330487","0.0-35.0-8.0","""event"",""trial"",""time""
""fullscreenenter"",""0"",""3966""
","
","
","""event"",""trial"",""time""
""fullscreenenter"",""0"",""3966""
","
","null","run_exp/static/audio/clip_15_summary.m4a","null","","","","","<div class='center'><p>Let's go over the instructions quickly again. You have two important things to do: </p><b><p> 1. Pick the pirate who is the best at robbing ships on the current island. </p></b><b><p> 2. Remember on which island a ship was robbed.</p> </b><p>The amount of bonus money you can win depends on both.</p><p><br><p>Let’s try a practice game. The game will start by showing you the pirates. First, pick a pirate using the <b> 1, 2, 3 </b> keys on your keyboard. When you are shown a ship, try to remember which island you’re on by making up a story.</p><p>This is just a practice game, so you’re not playing for money. </p><p> Good luck! This game will be very difficult but try your best!</p></div>","","","","","","","","","","","","","","","","","",""
"","html-keyboard-response","45","332387","0.0-35.0-9.0","""event"",""trial"",""time""
""fullscreenenter"",""0"",""3966""
","
","
","""event"",""trial"",""time""
""fullscreenenter"",""0"",""3966""
","
","1897.8000000002794","<div class='center'><p>Let's go over the instructions quickly again. You have two important things to do: </p><b><p> 1. Pick the pirate who is the best at robbing ships on the current island. </p></b><b><p> 2. Remember on which island a ship was robbed.</p> </b><p>The amount of bonus money you can win depends on both.</p><p><br><p>Let’s try a practice game. The game will start by showing you the pirates. First, pick a pirate using the <b> 1, 2, 3 </b> keys on your keyboard. When you are shown a ship, try to remember which island you’re on by making up a story.</p><p>This is just a practice game, so you’re not playing for money. </p><p> Good luck! This game will be very difficult but try your best!</p><p><b>[Press the space bar to continue]</b></p></div>","32","","","","","","","","","","","","","","","","","","","","","","",""
"","do_welcome","46","336413","0.0-35.0-10.0","""event"",""trial"",""time""
""fullscreenenter"",""0"",""3966""
","
","
","""event"",""trial"",""time""
""fullscreenenter"",""0"",""3966""
","
","null","","","","","","","","null","","","","","","","","","","","","","","","","",""
"","do_trial","47","342876","0.0-35.0-11.0","""event"",""trial"",""time""
""fullscreenenter"",""0"",""3966""
","
","
","""event"",""trial"",""time""
""fullscreenenter"",""0"",""3966""
","
","1947.2000000001863","","","","","","","","50","1,0,0","","","","","","","","","","","","","","","",""
"","html-keyboard-response","48","343884","0.0-36.0-0.0","""event"",""trial"",""time""
""fullscreenenter"",""0"",""3966""
","
","
","""event"",""trial"",""time""
""fullscreenenter"",""0"",""3966""
","
","null","<p></p>","null","","","","","","","","","","","","","","","","","","","","","","",""
"","do_trial","49","351149","0.0-36.0-1.0","""event"",""trial"",""time""
""fullscreenenter"",""0"",""3966""
","
","
","""event"",""trial"",""time""
""fullscreenenter"",""0"",""3966""
","
","2748.100000000093","","","","","","","","49","1,1,0","","","","","","","","","","","","","","","",""
"","html-keyboard-response","50","352160","0.0-37.0-0.0","""event"",""trial"",""time""
""fullscreenenter"",""0"",""3966""
","
","
","""event"",""trial"",""time""
""fullscreenenter"",""0"",""3966""
","
","null","<p></p>","null","","","","","","","","","","","","","","","","","","","","","","",""
"","do_trial","51","358089","0.0-37.0-1.0","""event"",""trial"",""time""
""fullscreenenter"",""0"",""3966""
","
","
","""event"",""trial"",""time""
""fullscreenenter"",""0"",""3966""
","
","1409.7000000001863","","","","","","","","51","1,0,1","","","","","","","","","","","","","","","",""
"","html-keyboard-response","52","359103","0.0-38.0-0.0","""event"",""trial"",""time""
""fullscreenenter"",""0"",""3966""
","
","
","""event"",""trial"",""time""
""fullscreenenter"",""0"",""3966""
","
","null","<p></p>","null","","","","","","","","","","","","","","","","","","","","","","",""
"","do_trial","53","366159","0.0-38.0-1.0","""event"",""trial"",""time""
""fullscreenenter"",""0"",""3966""
","
","
","""event"",""trial"",""time""
""fullscreenenter"",""0"",""3966""
","
","2534.7000000001863","","","","","","","","49","0,1,0","","","","","","","","","","","","","","","",""
"","html-keyboard-response","54","367169","0.0-39.0-0.0","""event"",""trial"",""time""
""fullscreenenter"",""0"",""3966""
","
","
","""event"",""trial"",""time""
""fullscreenenter"",""0"",""3966""
","
","null","<p></p>","null","","","","","","","","","","","","","","","","","","","","","","",""
"","do_trial","55","374403","0.0-39.0-1.0","""event"",""trial"",""time""
""fullscreenenter"",""0"",""3966""
","
","
","""event"",""trial"",""time""
""fullscreenenter"",""0"",""3966""
","
","2708","","","","","","","","50","1,0,0","","","","","","","","","","","","","","","",""
"","do_bye","56","375921","0.0-40.0-0.0","""event"",""trial"",""time""
""fullscreenenter"",""0"",""3966""
","
","
","""event"",""trial"",""time""
""fullscreenenter"",""0"",""3966""
","
","null","","","","","","","","null","","","","","","","","","","","","","","","","",""
"","do_travel","57","384938","0.0-40.0-1.0","""event"",""trial"",""time""
""fullscreenenter"",""0"",""3966""
","
","
","""event"",""trial"",""time""
""fullscreenenter"",""0"",""3966""
","
","null","","","","","","","","null","","","","","","","","","","","","","","","","",""
"","do_welcome","58","388954","0.0-40.0-2.0","""event"",""trial"",""time""
""fullscreenenter"",""0"",""3966""
","
","
","""event"",""trial"",""time""
""fullscreenenter"",""0"",""3966""
","
","null","","","","","","","","null","","","","","","","","","","","","","","","","",""
"","do_trial","59","395168","0.0-40.0-3.0","""event"",""trial"",""time""
""fullscreenenter"",""0"",""3966""
","
","
","""event"",""trial"",""time""
""fullscreenenter"",""0"",""3966""
","
","1689.6999999997206","","","","","","","","51","1,0,0","","","","","","","","","","","","","","","",""
"","html-keyboard-response","60","396176","0.0-41.0-0.0","""event"",""trial"",""time""
""fullscreenenter"",""0"",""3966""
","
","
","""event"",""trial"",""time""
""fullscreenenter"",""0"",""3966""
","
","null","<p></p>","null","","","","","","","","","","","","","","","","","","","","","","",""
"","do_trial","61","402639","0.0-41.0-1.0","""event"",""trial"",""time""
""fullscreenenter"",""0"",""3966""
","
","
","""event"",""trial"",""time""
""fullscreenenter"",""0"",""3966""
","
","1950.7000000001863","","","","","","","","49","1,0,1","","","","","","","","","","","","","","","",""
"","html-keyboard-response","62","403650","0.0-42.0-0.0","""event"",""trial"",""time""
""fullscreenenter"",""0"",""3966""
","
","
","""event"",""trial"",""time""
""fullscreenenter"",""0"",""3966""
","
","null","<p></p>","null","","","","","","","","","","","","","","","","","","","","","","",""
"","do_trial","63","410133","0.0-42.0-1.0","""event"",""trial"",""time""
""fullscreenenter"",""0"",""3966""
","
","
","""event"",""trial"",""time""
""fullscreenenter"",""0"",""3966""
","
","1957.8000000002794","","","","","","","","50","1,1,0","","","","","","","","","","","","","","","",""
"","html-keyboard-response","64","411147","0.0-43.0-0.0","""event"",""trial"",""time""
""fullscreenenter"",""0"",""3966""
","
","
","""event"",""trial"",""time""
""fullscreenenter"",""0"",""3966""
","
","null","<p></p>","null","","","","","","","","","","","","","","","","","","","","","","",""
"","do_trial","65","417034","0.0-43.0-1.0","""event"",""trial"",""time""
""fullscreenenter"",""0"",""3966""
","
","
","""event"",""trial"",""time""
""fullscreenenter"",""0"",""3966""
","
","1370.3000000002794","","","","","","","","51","0,0,1","","","","","","","","","","","","","","","",""
"","html-keyboard-response","66","418049","0.0-44.0-0.0","""event"",""trial"",""time""
""fullscreenenter"",""0"",""3966""
","
","
","""event"",""trial"",""time""
""fullscreenenter"",""0"",""3966""
","
","null","<p></p>","null","","","","","","","","","","","","","","","","","","","","","","",""
"","do_trial","67","424388","0.0-44.0-1.0","""event"",""trial"",""time""
""fullscreenenter"",""0"",""3966""
","
","
","""event"",""trial"",""time""
""fullscreenenter"",""0"",""3966""
","
","1817.6000000000931","","","","","","","","49","1,0,1","","","","","","","","","","","","","","","",""
"","html-keyboard-response","68","429845","0.0-45.0-0.0","""event"",""trial"",""time""
""fullscreenenter"",""0"",""3966""
","
","
","""event"",""trial"",""time""
""fullscreenenter"",""0"",""3966""
","
","5454.100000000093","<div class='center'><p><img src='run_exp/static/images/tutorial/prac_best_pirate.png'  height='500'></p></div>","49","","","","","","","","","","","","","","","","","","","","","","",""
"","html-keyboard-response","69","432104","0.0-46.0-0.0","""event"",""trial"",""time""
""fullscreenenter"",""0"",""3966""
","
","
","""event"",""trial"",""time""
""fullscreenenter"",""0"",""3966""
","
","2258","<div class='center'><p>That's correct! Red beard was the best.</p><p><b>[Press the space bar to continue]</b></p></div>","32","","","","","","","","","","","","","","","","","","","","","","",""
"","html-keyboard-response","70","437799","0.0-46.0-1.0","""event"",""trial"",""time""
""fullscreenenter"",""0"",""3966""
","
","
","""event"",""trial"",""time""
""fullscreenenter"",""0"",""3966""
","
","5692.600000000093","<div class='center'><p><img src='run_exp/static/images/tutorial/prac_source.png'  height='500'></p></div>","50","","","","","","","","","","","","","","","","","","","","","","",""
"","html-keyboard-response","71","439954","0.0-47.0-0.0","""event"",""trial"",""time""
""fullscreenenter"",""0"",""3966""
","
","
","""event"",""trial"",""time""
""fullscreenenter"",""0"",""3966""
","
","2153.2000000001863","<div class='center'><p>That's correct! You saw this ship on the cavern island.</p><p><b>[Press the space bar to continue]</b></p></div>","32","","","","","","","","","","","","","","","","","","","","","","",""
"","quiz_beginning","72","451553","0.0-47.0-1.0","""event"",""trial"",""time""
""fullscreenenter"",""0"",""3966""
","
","
","""event"",""trial"",""time""
""fullscreenenter"",""0"",""3966""
","
","null","run_exp/static/audio/clip_16_quiz_intro.m4a","null","","","","","<div class='center'><p>Good job on the practice game! Now, you will be asked some true or false questions to make sure you really understand the rules of the game.</p><p> Press <b>'1'</b> on the keyboard for true and press <b>'2'</b> for false.</p></div>","","","","","","","","","","","","","","","","","",""
"","audio-keyboard-response","73","459383","0.0-47.0-2.0","""event"",""trial"",""time""
""fullscreenenter"",""0"",""3966""
","
","
","""event"",""trial"",""time""
""fullscreenenter"",""0"",""3966""
","
","7828","run_exp/static/audio/clip_17_q1.m4a","49","","","","","","","","","","","","","","","","","","","","","","",""
"","correct","74","461813","0.0-48.0-0.0","""event"",""trial"",""time""
""fullscreenenter"",""0"",""3966""
","
","
","""event"",""trial"",""time""
""fullscreenenter"",""0"",""3966""
","
","null","run_exp/static/audio/clip_18_correct.m4a","null","","","","","<div class='center'><p>That's correct!</p></div>","","","","","","","","","","","","","","","","","",""
"","html-keyboard-response","75","462253","0.0-48.0-1.0","""event"",""trial"",""time""
""fullscreenenter"",""0"",""3966""
","
","
","""event"",""trial"",""time""
""fullscreenenter"",""0"",""3966""
","
","439.29999999981374","<div class='center'><p>That's correct!</p><p><b>[Press the space bar to continue]</b></p></div>","32","","","","","","","","","","","","","","","","","","","","","","",""
"","audio-keyboard-response","76","474934","0.0-48.0-2.0","""event"",""trial"",""time""
""fullscreenenter"",""0"",""3966""
","
","
","""event"",""trial"",""time""
""fullscreenenter"",""0"",""3966""
","
","12679","run_exp/static/audio/clip_20_q2.m4a","50","","","","","","","","","","","","","","","","","","","","","","",""
"","correct","77","477333","0.0-49.0-0.0","""event"",""trial"",""time""
""fullscreenenter"",""0"",""3966""
","
","
","""event"",""trial"",""time""
""fullscreenenter"",""0"",""3966""
","
","null","run_exp/static/audio/clip_18_correct.m4a","null","","","","","<div class='center'><p>That's correct!</p></div>","","","","","","","","","","","","","","","","","",""
"","html-keyboard-response","78","477890","0.0-49.0-1.0","""event"",""trial"",""time""
""fullscreenenter"",""0"",""3966""
","
","
","""event"",""trial"",""time""
""fullscreenenter"",""0"",""3966""
","
","555.5999999996275","<div class='center'><p>That's correct!</p><p><b>[Press the space bar to continue]</b></p></div>","32","","","","","","","","","","","","","","","","","","","","","","",""
"","audio-keyboard-response","79","484438","0.0-49.0-2.0","""event"",""trial"",""time""
""fullscreenenter"",""0"",""3966""
","
","
","""event"",""trial"",""time""
""fullscreenenter"",""0"",""3966""
","
","6546.199999999721","run_exp/static/audio/clip_22_q3.m4a","50","","","","","","","","","","","","","","","","","","","","","","",""
"","correct","80","486833","0.0-50.0-0.0","""event"",""trial"",""time""
""fullscreenenter"",""0"",""3966""
","
","
","""event"",""trial"",""time""
""fullscreenenter"",""0"",""3966""
","
","null","run_exp/static/audio/clip_18_correct.m4a","null","","","","","<div class='center'><p>That's correct!</p></div>","","","","","","","","","","","","","","","","","",""
"","html-keyboard-response","81","487293","0.0-50.0-1.0","""event"",""trial"",""time""
""fullscreenenter"",""0"",""3966""
","
","
","""event"",""trial"",""time""
""fullscreenenter"",""0"",""3966""
","
","459.5","<div class='center'><p>That's correct!</p><p><b>[Press the space bar to continue]</b></p></div>","32","","","","","","","","","","","","","","","","","","","","","","",""
"","audio-keyboard-response","82","492184","0.0-50.0-2.0","""event"",""trial"",""time""
""fullscreenenter"",""0"",""3966""
","
","
","""event"",""trial"",""time""
""fullscreenenter"",""0"",""3966""
","
","4889.299999999814","run_exp/static/audio/clip_24_q4.m4a","49","","","","","","","","","","","","","","","","","","","","","","",""
"","correct","83","494673","0.0-51.0-0.0","""event"",""trial"",""time""
""fullscreenenter"",""0"",""3966""
""blur"",""84"",""496075""
""focus"",""84"",""496340""
","""event"",""trial"",""time""
""blur"",""84"",""496075""
","""event"",""trial"",""time""
""focus"",""84"",""496340""
","""event"",""trial"",""time""
""fullscreenenter"",""0"",""3966""
","
","null","run_exp/static/audio/clip_18_correct.m4a","null","","","","","<div class='center'><p>That's correct!</p></div>","","","","","","","","","","","","","","","","","",""
"","html-keyboard-response","84","497268","0.0-51.0-1.0","""event"",""trial"",""time""
""fullscreenenter"",""0"",""3966""
""blur"",""84"",""496075""
""focus"",""84"",""496340""
","""event"",""trial"",""time""
""blur"",""84"",""496075""
","""event"",""trial"",""time""
""focus"",""84"",""496340""
","""event"",""trial"",""time""
""fullscreenenter"",""0"",""3966""
","
","2593.100000000093","<div class='center'><p>That's correct!</p><p><b>[Press the space bar to continue]</b></p></div>","32","","","","","","","","","","","","","","","","","","","","","","",""
"","q_all_corr","85","505773","0.0-52.0-0.0","""event"",""trial"",""time""
""fullscreenenter"",""0"",""3966""
""blur"",""84"",""496075""
""focus"",""84"",""496340""
","""event"",""trial"",""time""
""blur"",""84"",""496075""
","""event"",""trial"",""time""
""focus"",""84"",""496340""
","""event"",""trial"",""time""
""fullscreenenter"",""0"",""3966""
","
","null","run_exp/static/audio/clip_27_quiz_all_correct.m4a","null","","","","","<div class='center'><p>Good job! You’re now ready to move on to the real game! Remember this game will be difficult but don't get discouraged and try your best!</p></div>","","","","","","","","","","","","","","","","","",""
"","html-keyboard-response","86","507453","0.0-52.0-1.0","""event"",""trial"",""time""
""fullscreenenter"",""0"",""3966""
""blur"",""84"",""496075""
""focus"",""84"",""496340""
","""event"",""trial"",""time""
""blur"",""84"",""496075""
","""event"",""trial"",""time""
""focus"",""84"",""496340""
","""event"",""trial"",""time""
""fullscreenenter"",""0"",""3966""
","
","1678","<div class='center'><p>Good job! You’re now ready to move on to the real game! Remember this game will be difficult but don't get discouraged and try your best!</p><p><b>[Press the space bar to continue]</b></p></div>","32","","","","","","","","","","","","","","","","","","","","","","",""
"","do_welcome","87","511467","0.0-53.0-0.0","""event"",""trial"",""time""
""fullscreenenter"",""0"",""3966""
""blur"",""84"",""496075""
""focus"",""84"",""496340""
","""event"",""trial"",""time""
""blur"",""84"",""496075""
","""event"",""trial"",""time""
""focus"",""84"",""496340""
","""event"",""trial"",""time""
""fullscreenenter"",""0"",""3966""
","
","null","","","","","","","","null","","","","","","","","","","","","","","","","",""
"","do_trial","88","518331","0.0-54.0-0.0","""event"",""trial"",""time""
""fullscreenenter"",""0"",""3966""
""blur"",""84"",""496075""
""focus"",""84"",""496340""
","""event"",""trial"",""time""
""blur"",""84"",""496075""
","""event"",""trial"",""time""
""focus"",""84"",""496340""
","""event"",""trial"",""time""
""fullscreenenter"",""0"",""3966""
","
","2268.3000000002794","","","","","","","","51","1,0,1","0","coast","0","probe-175","0.6","0.3","0.1","1","","","","","","","",""
"","html-keyboard-response","89","519337","0.0-54.0-1.0","""event"",""trial"",""time""
""fullscreenenter"",""0"",""3966""
""blur"",""84"",""496075""
""focus"",""84"",""496340""
","""event"",""trial"",""time""
""blur"",""84"",""496075""
","""event"",""trial"",""time""
""focus"",""84"",""496340""
","""event"",""trial"",""time""
""fullscreenenter"",""0"",""3966""
","
","null","<p></p>","null","","","","","","","","","","","","","","","","","","","","","","",""
"","do_trial","90","525529","0.0-55.0-0.0","""event"",""trial"",""time""
""fullscreenenter"",""0"",""3966""
""blur"",""84"",""496075""
""focus"",""84"",""496340""
","""event"",""trial"",""time""
""blur"",""84"",""496075""
","""event"",""trial"",""time""
""focus"",""84"",""496340""
","""event"",""trial"",""time""
""fullscreenenter"",""0"",""3966""
","
","1607.7999999998137","","","","","","","","50","1,1,1","0","coast","1","probe-39","0.48725260319950914","0.30688035443474765","0.17118390056822883","1","","","","","","","",""
"","html-keyboard-response","91","526541","0.0-55.0-1.0","""event"",""trial"",""time""
""fullscreenenter"",""0"",""3966""
""blur"",""84"",""496075""
""focus"",""84"",""496340""
","""event"",""trial"",""time""
""blur"",""84"",""496075""
","""event"",""trial"",""time""
""focus"",""84"",""496340""
","""event"",""trial"",""time""
""fullscreenenter"",""0"",""3966""
","
","null","<p></p>","null","","","","","","","","","","","","","","","","","","","","","","",""
"","do_trial","92","531656","0.0-56.0-0.0","""event"",""trial"",""time""
""fullscreenenter"",""0"",""3966""
""blur"",""84"",""496075""
""focus"",""84"",""496340""
","""event"",""trial"",""time""
""blur"",""84"",""496075""
","""event"",""trial"",""time""
""focus"",""84"",""496340""
","""event"",""trial"",""time""
""fullscreenenter"",""0"",""3966""
","
","536.7000000001863","","","","","","","","49","1,0,0","0","coast","2","probe-172","0.5369537822287562","0.09677448193238064","0.05246308452747023","1","","","","","","","",""
"","html-keyboard-response","93","532663","0.0-56.0-1.0","""event"",""trial"",""time""
""fullscreenenter"",""0"",""3966""
""blur"",""84"",""496075""
""focus"",""84"",""496340""
","""event"",""trial"",""time""
""blur"",""84"",""496075""
","""event"",""trial"",""time""
""focus"",""84"",""496340""
","""event"",""trial"",""time""
""fullscreenenter"",""0"",""3966""
","
","null","<p></p>","null","","","","","","","","","","","","","","","","","","","","","","",""
"","do_trial","94","538759","0.0-57.0-0.0","""event"",""trial"",""time""
""fullscreenenter"",""0"",""3966""
""blur"",""84"",""496075""
""focus"",""84"",""496340""
","""event"",""trial"",""time""
""blur"",""84"",""496075""
","""event"",""trial"",""time""
""focus"",""84"",""496340""
","""event"",""trial"",""time""
""fullscreenenter"",""0"",""3966""
","
","null","","","","","","","","null","0,0,0","0","coast","3","probe-143","0.488601261870839","0.30488546700955793","0.11445361441067743","","","","","","","","",""
"","html-keyboard-response","95","539767","0.0-57.0-1.0","""event"",""trial"",""time""
""fullscreenenter"",""0"",""3966""
""blur"",""84"",""496075""
""focus"",""84"",""496340""
","""event"",""trial"",""time""
""blur"",""84"",""496075""
","""event"",""trial"",""time""
""focus"",""84"",""496340""
","""event"",""trial"",""time""
""fullscreenenter"",""0"",""3966""
","
","null","<p></p>","null","","","","","","","","","","","","","","","","","","","","","","",""
"","do_trial","96","545046","0.0-58.0-0.0","""event"",""trial"",""time""
""fullscreenenter"",""0"",""3966""
""blur"",""84"",""496075""
""focus"",""84"",""496340""
","""event"",""trial"",""time""
""blur"",""84"",""496075""
","""event"",""trial"",""time""
""focus"",""84"",""496340""
","""event"",""trial"",""time""
""fullscreenenter"",""0"",""3966""
","
","685.6999999997206","","","","","","","","50","0,0,0","0","coast","4","probe-178","0.4659836943662792","0.19682028196588483","0.0584510769106638","0","","","","","","","",""
"","html-keyboard-response","97","546064","0.0-58.0-1.0","""event"",""trial"",""time""
""fullscreenenter"",""0"",""3966""
""blur"",""84"",""496075""
""focus"",""84"",""496340""
","""event"",""trial"",""time""
""blur"",""84"",""496075""
","""event"",""trial"",""time""
""focus"",""84"",""496340""
","""event"",""trial"",""time""
""fullscreenenter"",""0"",""3966""
","
","null","<p></p>","null","","","","","","","","","","","","","","","","","","","","","","",""
"","do_trial","98","551307","0.0-59.0-0.0","""event"",""trial"",""time""
""fullscreenenter"",""0"",""3966""
""blur"",""84"",""496075""
""focus"",""84"",""496340""
","""event"",""trial"",""time""
""blur"",""84"",""496075""
","""event"",""trial"",""time""
""focus"",""84"",""496340""
","""event"",""trial"",""time""
""fullscreenenter"",""0"",""3966""
","
","655.8999999999069","","","","","","","","49","0,0,0","0","coast","5","probe-36","0.4437320132512174","0.2455833714828926","0.1460661501701705","0","","","","","","","",""
"","html-keyboard-response","99","552324","0.0-59.0-1.0","""event"",""trial"",""time""
""fullscreenenter"",""0"",""3966""
""blur"",""84"",""496075""
""focus"",""84"",""496340""
","""event"",""trial"",""time""
""blur"",""84"",""496075""
","""event"",""trial"",""time""
""focus"",""84"",""496340""
","""event"",""trial"",""time""
""fullscreenenter"",""0"",""3966""
","
","null","<p></p>","null","","","","","","","","","","","","","","","","","","","","","","",""
"","do_trial","100","557770","0.0-60.0-0.0","""event"",""trial"",""time""
""fullscreenenter"",""0"",""3966""
""blur"",""84"",""496075""
""focus"",""84"",""496340""
","""event"",""trial"",""time""
""blur"",""84"",""496075""
","""event"",""trial"",""time""
""focus"",""84"",""496340""
","""event"",""trial"",""time""
""fullscreenenter"",""0"",""3966""
","
","877.6999999997206","","","","","","","","51","1,0,1","0","coast","6","probe-18","0.5122136956627769","0.2627844220241419","0.14007850656147117","1","","","","","","","",""
"","html-keyboard-response","101","558781","0.0-60.0-1.0","""event"",""trial"",""time""
""fullscreenenter"",""0"",""3966""
""blur"",""84"",""496075""
""focus"",""84"",""496340""
","""event"",""trial"",""time""
""blur"",""84"",""496075""
","""event"",""trial"",""time""
""focus"",""84"",""496340""
","""event"",""trial"",""time""
""fullscreenenter"",""0"",""3966""
","
","null","<p></p>","null","","","","","","","","","","","","","","","","","","","","","","",""
"","do_trial","102","564796","0.0-61.0-0.0","""event"",""trial"",""time""
""fullscreenenter"",""0"",""3966""
""blur"",""84"",""496075""
""focus"",""84"",""496340""
","""event"",""trial"",""time""
""blur"",""84"",""496075""
","""event"",""trial"",""time""
""focus"",""84"",""496340""
","""event"",""trial"",""time""
""fullscreenenter"",""0"",""3966""
","
","1425.7000000001863","","","","","","","","51","1,0,0","0","coast","7","probe-40","0.551333583654573","0.22105939269364366","0.1144978122913611","0","","","","","","","",""
"","html-keyboard-response","103","565804","0.0-61.0-1.0","""event"",""trial"",""time""
""fullscreenenter"",""0"",""3966""
""blur"",""84"",""496075""
""focus"",""84"",""496340""
","""event"",""trial"",""time""
""blur"",""84"",""496075""
","""event"",""trial"",""time""
""focus"",""84"",""496340""
","""event"",""trial"",""time""
""fullscreenenter"",""0"",""3966""
","
","null","<p></p>","null","","","","","","","","","","","","","","","","","","","","","","",""
"","do_trial","104","571210","0.0-62.0-0.0","""event"",""trial"",""time""
""fullscreenenter"",""0"",""3966""
""blur"",""84"",""496075""
""focus"",""84"",""496340""
","""event"",""trial"",""time""
""blur"",""84"",""496075""
","""event"",""trial"",""time""
""focus"",""84"",""496340""
","""event"",""trial"",""time""
""fullscreenenter"",""0"",""3966""
","
","848.9000000003725","","","","","","","","50","1,0,0","0","coast","8","probe-211","0.5180906239252423","0.37940665006686597","0.055888254510812294","0","","","","","","","",""
"","html-keyboard-response","105","572225","0.0-62.0-1.0","""event"",""trial"",""time""
""fullscreenenter"",""0"",""3966""
""blur"",""84"",""496075""
""focus"",""84"",""496340""
","""event"",""trial"",""time""
""blur"",""84"",""496075""
","""event"",""trial"",""time""
""focus"",""84"",""496340""
","""event"",""trial"",""time""
""fullscreenenter"",""0"",""3966""
","
","null","<p></p>","null","","","","","","","","","","","","","","","","","","","","","","",""
"","do_trial","106","577617","0.0-63.0-0.0","""event"",""trial"",""time""
""fullscreenenter"",""0"",""3966""
""blur"",""84"",""496075""
""focus"",""84"",""496340""
","""event"",""trial"",""time""
""blur"",""84"",""496075""
","""event"",""trial"",""time""
""focus"",""84"",""496340""
","""event"",""trial"",""time""
""fullscreenenter"",""0"",""3966""
","
","820.6999999997206","","","","","","","","49","0,0,0","0","coast","9","probe-20","0.49174532817738936","0.3194053801023235","0.07321040445130648","0","","","","","","","",""
"","html-keyboard-response","107","578625","0.0-63.0-1.0","""event"",""trial"",""time""
""fullscreenenter"",""0"",""3966""
""blur"",""84"",""496075""
""focus"",""84"",""496340""
","""event"",""trial"",""time""
""blur"",""84"",""496075""
","""event"",""trial"",""time""
""focus"",""84"",""496340""
","""event"",""trial"",""time""
""fullscreenenter"",""0"",""3966""
","
","null","<p></p>","null","","","","","","","","","","","","","","","","","","","","","","",""
"","do_trial","108","583595","0.0-64.0-0.0","""event"",""trial"",""time""
""fullscreenenter"",""0"",""3966""
""blur"",""84"",""496075""
""focus"",""84"",""496340""
","""event"",""trial"",""time""
""blur"",""84"",""496075""
","""event"",""trial"",""time""
""focus"",""84"",""496340""
","""event"",""trial"",""time""
""fullscreenenter"",""0"",""3966""
","
","386.79999999981374","","","","","","","","51","1,0,0","0","coast","10","probe-35","0.618829471679763","0.36529463738303614","0.11952149853923856","0","","","","","","","",""
"","html-keyboard-response","109","584609","0.0-64.0-1.0","""event"",""trial"",""time""
""fullscreenenter"",""0"",""3966""
""blur"",""84"",""496075""
""focus"",""84"",""496340""
","""event"",""trial"",""time""
""blur"",""84"",""496075""
","""event"",""trial"",""time""
""focus"",""84"",""496340""
","""event"",""trial"",""time""
""fullscreenenter"",""0"",""3966""
","
","null","<p></p>","null","","","","","","","","","","","","","","","","","","","","","","",""
"","do_trial","110","590948","0.0-65.0-0.0","""event"",""trial"",""time""
""fullscreenenter"",""0"",""3966""
""blur"",""84"",""496075""
""focus"",""84"",""496340""
","""event"",""trial"",""time""
""blur"",""84"",""496075""
","""event"",""trial"",""time""
""focus"",""84"",""496340""
","""event"",""trial"",""time""
""fullscreenenter"",""0"",""3966""
","
","1766.3999999999069","","","","","","","","51","0,0,1","0","coast","11","probe-189","0.5775672050239419","0.22480753209357443","0.0872315043941089","1","","","","","","","",""
"","html-keyboard-response","111","591959","0.0-65.0-1.0","""event"",""trial"",""time""
""fullscreenenter"",""0"",""3966""
""blur"",""84"",""496075""
""focus"",""84"",""496340""
","""event"",""trial"",""time""
""blur"",""84"",""496075""
","""event"",""trial"",""time""
""focus"",""84"",""496340""
","""event"",""trial"",""time""
""fullscreenenter"",""0"",""3966""
","
","null","<p></p>","null","","","","","","","","","","","","","","","","","","","","","","",""
"","do_trial","112","597538","0.0-66.0-0.0","""event"",""trial"",""time""
""fullscreenenter"",""0"",""3966""
""blur"",""84"",""496075""
""focus"",""84"",""496340""
","""event"",""trial"",""time""
""blur"",""84"",""496075""
","""event"",""trial"",""time""
""focus"",""84"",""496340""
","""event"",""trial"",""time""
""fullscreenenter"",""0"",""3966""
","
","1002.3000000002794","","","","","","","","49","1,1,0","0","coast","12","probe-118","0.5343650979233997","0.34088045145364504","0.074901601933471","1","","","","","","","",""
"","html-keyboard-response","113","598549","0.0-66.0-1.0","""event"",""trial"",""time""
""fullscreenenter"",""0"",""3966""
""blur"",""84"",""496075""
""focus"",""84"",""496340""
","""event"",""trial"",""time""
""blur"",""84"",""496075""
","""event"",""trial"",""time""
""focus"",""84"",""496340""
","""event"",""trial"",""time""
""fullscreenenter"",""0"",""3966""
","
","null","<p></p>","null","","","","","","","","","","","","","","","","","","","","","","",""
"","do_trial","114","603225","0.0-67.0-0.0","""event"",""trial"",""time""
""fullscreenenter"",""0"",""3966""
""blur"",""84"",""496075""
""focus"",""84"",""496340""
","""event"",""trial"",""time""
""blur"",""84"",""496075""
","""event"",""trial"",""time""
""focus"",""84"",""496340""
","""event"",""trial"",""time""
""fullscreenenter"",""0"",""3966""
","
","96.29999999981374","","","","","","","","51","0,0,0","0","coast","13","probe-113","0.4627963518750808","0.44160694150503843","0.17806750780086597","0","","","","","","","",""
"","html-keyboard-response","115","604240","0.0-67.0-1.0","""event"",""trial"",""time""
""fullscreenenter"",""0"",""3966""
""blur"",""84"",""496075""
""focus"",""84"",""496340""
","""event"",""trial"",""time""
""blur"",""84"",""496075""
","""event"",""trial"",""time""
""focus"",""84"",""496340""
","""event"",""trial"",""time""
""fullscreenenter"",""0"",""3966""
","
","null","<p></p>","null","","","","","","","","","","","","","","","","","","","","","","",""
"","do_trial","116","609217","0.0-68.0-0.0","""event"",""trial"",""time""
""fullscreenenter"",""0"",""3966""
""blur"",""84"",""496075""
""focus"",""84"",""496340""
","""event"",""trial"",""time""
""blur"",""84"",""496075""
","""event"",""trial"",""time""
""focus"",""84"",""496340""
","""event"",""trial"",""time""
""fullscreenenter"",""0"",""3966""
","
","403.70000000018626","","","","","","","","50","1,0,0","0","coast","14","probe-164","0.5126393460801449","0.40488970589988366","0.17528342313557058","0","","","","","","","",""
"","html-keyboard-response","117","610227","0.0-68.0-1.0","""event"",""trial"",""time""
""fullscreenenter"",""0"",""3966""
""blur"",""84"",""496075""
""focus"",""84"",""496340""
","""event"",""trial"",""time""
""blur"",""84"",""496075""
","""event"",""trial"",""time""
""focus"",""84"",""496340""
","""event"",""trial"",""time""
""fullscreenenter"",""0"",""3966""
","
","null","<p></p>","null","","","","","","","","","","","","","","","","","","","","","","",""
"","do_trial","118","614829","0.0-69.0-0.0","""event"",""trial"",""time""
""fullscreenenter"",""0"",""3966""
""blur"",""84"",""496075""
""focus"",""84"",""496340""
","""event"",""trial"",""time""
""blur"",""84"",""496075""
","""event"",""trial"",""time""
""focus"",""84"",""496340""
","""event"",""trial"",""time""
""fullscreenenter"",""0"",""3966""
","
","31.800000000279397","","","","","","","","49","1,0,1","0","coast","15","probe-85","0.6220898536908381","0.35274113983484096","0.3494940883326293","1","","","","","","","",""
"","html-keyboard-response","119","615845","0.0-69.0-1.0","""event"",""trial"",""time""
""fullscreenenter"",""0"",""3966""
""blur"",""84"",""496075""
""focus"",""84"",""496340""
","""event"",""trial"",""time""
""blur"",""84"",""496075""
","""event"",""trial"",""time""
""focus"",""84"",""496340""
","""event"",""trial"",""time""
""fullscreenenter"",""0"",""3966""
","
","null","<p></p>","null","","","","","","","","","","","","","","","","","","","","","","",""
"","do_trial","120","620426","0.0-70.0-0.0","""event"",""trial"",""time""
""fullscreenenter"",""0"",""3966""
""blur"",""84"",""496075""
""focus"",""84"",""496340""
","""event"",""trial"",""time""
""blur"",""84"",""496075""
","""event"",""trial"",""time""
""focus"",""84"",""496340""
","""event"",""trial"",""time""
""fullscreenenter"",""0"",""3966""
","
","4","","","","","","","","51","1,1,0","0","coast","16","probe-213","0.5874554089794009","0.22126164595079345","0.27185507515897284","0","","","","","","","",""
"","html-keyboard-response","121","621440","0.0-70.0-1.0","""event"",""trial"",""time""
""fullscreenenter"",""0"",""3966""
""blur"",""84"",""496075""
""focus"",""84"",""496340""
","""event"",""trial"",""time""
""blur"",""84"",""496075""
","""event"",""trial"",""time""
""focus"",""84"",""496340""
","""event"",""trial"",""time""
""fullscreenenter"",""0"",""3966""
","
","null","<p></p>","null","","","","","","","","","","","","","","","","","","","","","","",""
"","do_trial","122","626038","0.0-71.0-0.0","""event"",""trial"",""time""
""fullscreenenter"",""0"",""3966""
""blur"",""84"",""496075""
""focus"",""84"",""496340""
","""event"",""trial"",""time""
""blur"",""84"",""496075""
","""event"",""trial"",""time""
""focus"",""84"",""496340""
","""event"",""trial"",""time""
""fullscreenenter"",""0"",""3966""
","
","29.100000000093132","","","","","","","","50","0,0,0","0","coast","17","probe-152","0.6590879980212028","0.31062049306917155","0.19968206002306915","0","","","","","","","",""
"","html-keyboard-response","123","627050","0.0-71.0-1.0","""event"",""trial"",""time""
""fullscreenenter"",""0"",""3966""
""blur"",""84"",""496075""
""focus"",""84"",""496340""
","""event"",""trial"",""time""
""blur"",""84"",""496075""
","""event"",""trial"",""time""
""focus"",""84"",""496340""
","""event"",""trial"",""time""
""fullscreenenter"",""0"",""3966""
","
","null","<p></p>","null","","","","","","","","","","","","","","","","","","","","","","",""
"","do_trial","124","632367","0.0-72.0-0.0","""event"",""trial"",""time""
""fullscreenenter"",""0"",""3966""
""blur"",""84"",""496075""
""focus"",""84"",""496340""
","""event"",""trial"",""time""
""blur"",""84"",""496075""
","""event"",""trial"",""time""
""focus"",""84"",""496340""
","""event"",""trial"",""time""
""fullscreenenter"",""0"",""3966""
","
","736.6000000000931","","","","","","","","49","1,0,0","0","coast","18","probe-199","0.6924702962670963","0.27891222670991955","0.10535971214172736","1","","","","","","","",""
"","html-keyboard-response","125","633384","0.0-72.0-1.0","""event"",""trial"",""time""
""fullscreenenter"",""0"",""3966""
""blur"",""84"",""496075""
""focus"",""84"",""496340""
","""event"",""trial"",""time""
""blur"",""84"",""496075""
","""event"",""trial"",""time""
""focus"",""84"",""496340""
","""event"",""trial"",""time""
""fullscreenenter"",""0"",""3966""
","
","null","<p></p>","null","","","","","","","","","","","","","","","","","","","","","","",""
"","do_trial","126","638827","0.0-73.0-0.0","""event"",""trial"",""time""
""fullscreenenter"",""0"",""3966""
""blur"",""84"",""496075""
""focus"",""84"",""496340""
","""event"",""trial"",""time""
""blur"",""84"",""496075""
","""event"",""trial"",""time""
""focus"",""84"",""496340""
","""event"",""trial"",""time""
""fullscreenenter"",""0"",""3966""
","
","877.3999999999069","","","","","","","","51","1,0,1","0","coast","19","probe-180","0.6291090577206478","0.2929955632060326","0.06934644140480072","1","","","","","","","",""
"","html-keyboard-response","127","639841","0.0-73.0-1.0","""event"",""trial"",""time""
""fullscreenenter"",""0"",""3966""
""blur"",""84"",""496075""
""focus"",""84"",""496340""
","""event"",""trial"",""time""
""blur"",""84"",""496075""
","""event"",""trial"",""time""
""focus"",""84"",""496340""
","""event"",""trial"",""time""
""fullscreenenter"",""0"",""3966""
","
","null","<p></p>","null","","","","","","","","","","","","","","","","","","","","","","",""
"","do_trial","128","644874","0.0-74.0-0.0","""event"",""trial"",""time""
""fullscreenenter"",""0"",""3966""
""blur"",""84"",""496075""
""focus"",""84"",""496340""
","""event"",""trial"",""time""
""blur"",""84"",""496075""
","""event"",""trial"",""time""
""focus"",""84"",""496340""
","""event"",""trial"",""time""
""fullscreenenter"",""0"",""3966""
","
","466.10000000009313","","","","","","","","50","1,0,0","0","coast","20","probe-207","0.5285595443847815","0.2786528710410268","0.06203309879937456","0","","","","","","","",""
"","html-keyboard-response","129","645886","0.0-74.0-1.0","""event"",""trial"",""time""
""fullscreenenter"",""0"",""3966""
""blur"",""84"",""496075""
""focus"",""84"",""496340""
","""event"",""trial"",""time""
""blur"",""84"",""496075""
","""event"",""trial"",""time""
""focus"",""84"",""496340""
","""event"",""trial"",""time""
""fullscreenenter"",""0"",""3966""
","
","null","<p></p>","null","","","","","","","","","","","","","","","","","","","","","","",""
"","do_trial","130","651035","0.0-75.0-0.0","""event"",""trial"",""time""
""fullscreenenter"",""0"",""3966""
""blur"",""84"",""496075""
""focus"",""84"",""496340""
","""event"",""trial"",""time""
""blur"",""84"",""496075""
","""event"",""trial"",""time""
""focus"",""84"",""496340""
","""event"",""trial"",""time""
""fullscreenenter"",""0"",""3966""
","
","562","","","","","","","","51","1,0,0","0","coast","21","probe-55","0.5736110315896259","0.17597006580167587","0.09031822480349629","0","","","","","","","",""
"","html-keyboard-response","131","652047","0.0-75.0-1.0","""event"",""trial"",""time""
""fullscreenenter"",""0"",""3966""
""blur"",""84"",""496075""
""focus"",""84"",""496340""
","""event"",""trial"",""time""
""blur"",""84"",""496075""
","""event"",""trial"",""time""
""focus"",""84"",""496340""
","""event"",""trial"",""time""
""fullscreenenter"",""0"",""3966""
","
","null","<p></p>","null","","","","","","","","","","","","","","","","","","","","","","",""
"","do_trial","132","657156","0.0-76.0-0.0","""event"",""trial"",""time""
""fullscreenenter"",""0"",""3966""
""blur"",""84"",""496075""
""focus"",""84"",""496340""
","""event"",""trial"",""time""
""blur"",""84"",""496075""
","""event"",""trial"",""time""
""focus"",""84"",""496340""
","""event"",""trial"",""time""
""fullscreenenter"",""0"",""3966""
","
","536.4000000003725","","","","","","","","49","1,0,0","0","coast","22","probe-41","0.5901683096765897","0.21183824050812322","0.11783431164094527","1","","","","","","","",""
"","html-keyboard-response","133","658169","0.0-76.0-1.0","""event"",""trial"",""time""
""fullscreenenter"",""0"",""3966""
""blur"",""84"",""496075""
""focus"",""84"",""496340""
","""event"",""trial"",""time""
""blur"",""84"",""496075""
","""event"",""trial"",""time""
""focus"",""84"",""496340""
","""event"",""trial"",""time""
""fullscreenenter"",""0"",""3966""
","
","null","<p></p>","null","","","","","","","","","","","","","","","","","","","","","","",""
"","do_trial","134","663466","0.0-77.0-0.0","""event"",""trial"",""time""
""fullscreenenter"",""0"",""3966""
""blur"",""84"",""496075""
""focus"",""84"",""496340""
","""event"",""trial"",""time""
""blur"",""84"",""496075""
","""event"",""trial"",""time""
""focus"",""84"",""496340""
","""event"",""trial"",""time""
""fullscreenenter"",""0"",""3966""
","
","730.5","","","","","","","","51","1,0,0","0","coast","23","probe-195","0.6634084554969764","0.283798881308585","0.08668844284965575","0","","","","","","","",""
"","html-keyboard-response","135","664482","0.0-77.0-1.0","""event"",""trial"",""time""
""fullscreenenter"",""0"",""3966""
""blur"",""84"",""496075""
""focus"",""84"",""496340""
","""event"",""trial"",""time""
""blur"",""84"",""496075""
","""event"",""trial"",""time""
""focus"",""84"",""496340""
","""event"",""trial"",""time""
""fullscreenenter"",""0"",""3966""
","
","null","<p></p>","null","","","","","","","","","","","","","","","","","","","","","","",""
"","do_trial","136","669225","0.0-78.0-0.0","""event"",""trial"",""time""
""fullscreenenter"",""0"",""3966""
""blur"",""84"",""496075""
""focus"",""84"",""496340""
","""event"",""trial"",""time""
""blur"",""84"",""496075""
","""event"",""trial"",""time""
""focus"",""84"",""496340""
","""event"",""trial"",""time""
""fullscreenenter"",""0"",""3966""
","
","164","","","","","","","","50","0,0,0","0","coast","24","probe-106","0.6484259734220226","0.19065930960272512","0.06442109478380471","0","","","","","","","",""
"","html-keyboard-response","137","670237","0.0-78.0-1.0","""event"",""trial"",""time""
""fullscreenenter"",""0"",""3966""
""blur"",""84"",""496075""
""focus"",""84"",""496340""
","""event"",""trial"",""time""
""blur"",""84"",""496075""
","""event"",""trial"",""time""
""focus"",""84"",""496340""
","""event"",""trial"",""time""
""fullscreenenter"",""0"",""3966""
","
","null","<p></p>","null","","","","","","","","","","","","","","","","","","","","","","",""
"","do_trial","138","674841","0.0-79.0-0.0","""event"",""trial"",""time""
""fullscreenenter"",""0"",""3966""
""blur"",""84"",""496075""
""focus"",""84"",""496340""
","""event"",""trial"",""time""
""blur"",""84"",""496075""
","""event"",""trial"",""time""
""focus"",""84"",""496340""
","""event"",""trial"",""time""
""fullscreenenter"",""0"",""3966""
","
","49.5","","","","","","","","49","0,0,0","0","coast","25","probe-223","0.4322417618034188","0.15045823158506944","0.12421410667970119","0","","","","","","","",""
"","html-keyboard-response","139","675854","0.0-79.0-1.0","""event"",""trial"",""time""
""fullscreenenter"",""0"",""3966""
""blur"",""84"",""496075""
""focus"",""84"",""496340""
","""event"",""trial"",""time""
""blur"",""84"",""496075""
","""event"",""trial"",""time""
""focus"",""84"",""496340""
","""event"",""trial"",""time""
""fullscreenenter"",""0"",""3966""
","
","null","<p></p>","null","","","","","","","","","","","","","","","","","","","","","","",""
"","do_trial","140","681000","0.0-80.0-0.0","""event"",""trial"",""time""
""fullscreenenter"",""0"",""3966""
""blur"",""84"",""496075""
""focus"",""84"",""496340""
","""event"",""trial"",""time""
""blur"",""84"",""496075""
","""event"",""trial"",""time""
""focus"",""84"",""496340""
","""event"",""trial"",""time""
""fullscreenenter"",""0"",""3966""
","
","559.5","","","","","","","","50","0,0,0","0","coast","26","probe-17","0.4278281923798728","0.2527976004029639","0.05807637996944005","0","","","","","","","",""
"","html-keyboard-response","141","682016","0.0-80.0-1.0","""event"",""trial"",""time""
""fullscreenenter"",""0"",""3966""
""blur"",""84"",""496075""
""focus"",""84"",""496340""
","""event"",""trial"",""time""
""blur"",""84"",""496075""
","""event"",""trial"",""time""
""focus"",""84"",""496340""
","""event"",""trial"",""time""
""fullscreenenter"",""0"",""3966""
","
","null","<p></p>","null","","","","","","","","","","","","","","","","","","","","","","",""
"","do_trial","142","687304","0.0-81.0-0.0","""event"",""trial"",""time""
""fullscreenenter"",""0"",""3966""
""blur"",""84"",""496075""
""focus"",""84"",""496340""
","""event"",""trial"",""time""
""blur"",""84"",""496075""
","""event"",""trial"",""time""
""focus"",""84"",""496340""
","""event"",""trial"",""time""
""fullscreenenter"",""0"",""3966""
","
","697.1000000000931","","","","","","","","49","1,0,1","0","coast","27","probe-194","0.4734742357072328","0.3227407491599818","0.16683452162032666","1","","","","","","","",""
"","html-keyboard-response","143","688315","0.0-81.0-1.0","""event"",""trial"",""time""
""fullscreenenter"",""0"",""3966""
""blur"",""84"",""496075""
""focus"",""84"",""496340""
","""event"",""trial"",""time""
""blur"",""84"",""496075""
","""event"",""trial"",""time""
""focus"",""84"",""496340""
","""event"",""trial"",""time""
""fullscreenenter"",""0"",""3966""
","
","null","<p></p>","null","","","","","","","","","","","","","","","","","","","","","","",""
"","do_trial","144","693267","0.0-82.0-0.0","""event"",""trial"",""time""
""fullscreenenter"",""0"",""3966""
""blur"",""84"",""496075""
""focus"",""84"",""496340""
","""event"",""trial"",""time""
""blur"",""84"",""496075""
","""event"",""trial"",""time""
""focus"",""84"",""496340""
","""event"",""trial"",""time""
""fullscreenenter"",""0"",""3966""
","
","378.20000000018626","","","","","","","","51","1,0,0","0","coast","28","probe-25","0.45935165767706554","0.15327440928716984","0.18036764623143867","0","","","","","","","",""
"","html-keyboard-response","145","694270","0.0-82.0-1.0","""event"",""trial"",""time""
""fullscreenenter"",""0"",""3966""
""blur"",""84"",""496075""
""focus"",""84"",""496340""
","""event"",""trial"",""time""
""blur"",""84"",""496075""
","""event"",""trial"",""time""
""focus"",""84"",""496340""
","""event"",""trial"",""time""
""fullscreenenter"",""0"",""3966""
","
","null","<p></p>","null","","","","","","","","","","","","","","","","","","","","","","",""
"","do_trial","146","700364","0.0-83.0-0.0","""event"",""trial"",""time""
""fullscreenenter"",""0"",""3966""
""blur"",""84"",""496075""
""focus"",""84"",""496340""
","""event"",""trial"",""time""
""blur"",""84"",""496075""
","""event"",""trial"",""time""
""focus"",""84"",""496340""
","""event"",""trial"",""time""
""fullscreenenter"",""0"",""3966""
","
","null","","","","","","","","null","0,0,0","0","coast","29","probe-188","0.4073938305662256","0.2672690864804783","0.13911412763413755","","","","","","","","",""
"","html-keyboard-response","147","701374","0.0-83.0-1.0","""event"",""trial"",""time""
""fullscreenenter"",""0"",""3966""
""blur"",""84"",""496075""
""focus"",""84"",""496340""
","""event"",""trial"",""time""
""blur"",""84"",""496075""
","""event"",""trial"",""time""
""focus"",""84"",""496340""
","""event"",""trial"",""time""
""fullscreenenter"",""0"",""3966""
","
","null","<p></p>","null","","","","","","","","","","","","","","","","","","","","","","",""
"","do_bye","148","702893","0.0-84.0-0.0","""event"",""trial"",""time""
""fullscreenenter"",""0"",""3966""
""blur"",""84"",""496075""
""focus"",""84"",""496340""
","""event"",""trial"",""time""
""blur"",""84"",""496075""
","""event"",""trial"",""time""
""focus"",""84"",""496340""
","""event"",""trial"",""time""
""fullscreenenter"",""0"",""3966""
","
","null","","","","","","","","null","","","","","","","","","","","","","","","","",""
"","break","149","715177","0.0-84.0-1.0","""event"",""trial"",""time""
""fullscreenenter"",""0"",""3966""
""blur"",""84"",""496075""
""focus"",""84"",""496340""
","""event"",""trial"",""time""
""blur"",""84"",""496075""
","""event"",""trial"",""time""
""focus"",""84"",""496340""
","""event"",""trial"",""time""
""fullscreenenter"",""0"",""3966""
","
","12282.5","<div class='center'><p>Time to take a quick break! You have 2 minutes to rest, but you can move on sooner if you'd like.</p><p> Press the <b>space bar</b> to continue.</p></div>","32","","","","","","","","","","","","","","","","","","","","","","",""
"","do_travel","150","724189","0.0-85.0-0.0","""event"",""trial"",""time""
""fullscreenenter"",""0"",""3966""
""blur"",""84"",""496075""
""focus"",""84"",""496340""
","""event"",""trial"",""time""
""blur"",""84"",""496075""
","""event"",""trial"",""time""
""focus"",""84"",""496340""
","""event"",""trial"",""time""
""fullscreenenter"",""0"",""3966""
","
","null","","","","","","","","null","","","","","","","","","","","","","","","","",""
"","do_welcome","151","728215","0.0-85.0-1.0","""event"",""trial"",""time""
""fullscreenenter"",""0"",""3966""
""blur"",""84"",""496075""
""focus"",""84"",""496340""
","""event"",""trial"",""time""
""blur"",""84"",""496075""
","""event"",""trial"",""time""
""focus"",""84"",""496340""
","""event"",""trial"",""time""
""fullscreenenter"",""0"",""3966""
","
","null","","","","","","","","null","","","","","","","","","","","","","","","","",""
"","do_trial","152","735145","0.0-86.0-0.0","""event"",""trial"",""time""
""fullscreenenter"",""0"",""3966""
""blur"",""84"",""496075""
""focus"",""84"",""496340""
","""event"",""trial"",""time""
""blur"",""84"",""496075""
","""event"",""trial"",""time""
""focus"",""84"",""496340""
","""event"",""trial"",""time""
""fullscreenenter"",""0"",""3966""
","
","2300.8000000002794","","","","","","","","51","1,0,0","1","mountain","30","probe-139","1","0.18656838769072162","0.07472503583386077","0","","","","","","","",""
"","html-keyboard-response","153","736151","0.0-86.0-1.0","""event"",""trial"",""time""
""fullscreenenter"",""0"",""3966""
""blur"",""84"",""496075""
""focus"",""84"",""496340""
","""event"",""trial"",""time""
""blur"",""84"",""496075""
","""event"",""trial"",""time""
""focus"",""84"",""496340""
","""event"",""trial"",""time""
""fullscreenenter"",""0"",""3966""
","
","null","<p></p>","null","","","","","","","","","","","","","","","","","","","","","","",""
"","do_trial","154","741124","0.0-87.0-0.0","""event"",""trial"",""time""
""fullscreenenter"",""0"",""3966""
""blur"",""84"",""496075""
""focus"",""84"",""496340""
","""event"",""trial"",""time""
""blur"",""84"",""496075""
","""event"",""trial"",""time""
""focus"",""84"",""496340""
","""event"",""trial"",""time""
""fullscreenenter"",""0"",""3966""
","
","393.70000000018626","","","","","","","","49","1,0,0","1","mountain","31","probe-121","1","0.07287418750668916","0.09899388749133162","1","","","","","","","",""
"","html-keyboard-response","155","742134","0.0-87.0-1.0","""event"",""trial"",""time""
""fullscreenenter"",""0"",""3966""
""blur"",""84"",""496075""
""focus"",""84"",""496340""
","""event"",""trial"",""time""
""blur"",""84"",""496075""
","""event"",""trial"",""time""
""focus"",""84"",""496340""
","""event"",""trial"",""time""
""fullscreenenter"",""0"",""3966""
","
","null","<p></p>","null","","","","","","","","","","","","","","","","","","","","","","",""
"","do_trial","156","747900","0.0-88.0-0.0","""event"",""trial"",""time""
""fullscreenenter"",""0"",""3966""
""blur"",""84"",""496075""
""focus"",""84"",""496340""
","""event"",""trial"",""time""
""blur"",""84"",""496075""
","""event"",""trial"",""time""
""focus"",""84"",""496340""
","""event"",""trial"",""time""
""fullscreenenter"",""0"",""3966""
","
","1197.9000000003725","","","","","","","","50","1,1,0","1","mountain","32","probe-100","1","0.2229650518077662","0.2583018413644322","1","","","","","","","",""
"","html-keyboard-response","157","748907","0.0-88.0-1.0","""event"",""trial"",""time""
""fullscreenenter"",""0"",""3966""
""blur"",""84"",""496075""
""focus"",""84"",""496340""
","""event"",""trial"",""time""
""blur"",""84"",""496075""
","""event"",""trial"",""time""
""focus"",""84"",""496340""
","""event"",""trial"",""time""
""fullscreenenter"",""0"",""3966""
","
","null","<p></p>","null","","","","","","","","","","","","","","","","","","","","","","",""
"","do_trial","158","753768","0.0-89.0-0.0","""event"",""trial"",""time""
""fullscreenenter"",""0"",""3966""
""blur"",""84"",""496075""
""focus"",""84"",""496340""
","""event"",""trial"",""time""
""blur"",""84"",""496075""
","""event"",""trial"",""time""
""focus"",""84"",""496340""
","""event"",""trial"",""time""
""fullscreenenter"",""0"",""3966""
","
","284.5","","","","","","","","51","1,0,1","1","mountain","33","probe-70","0.8209137124177861","0.1971736572414906","0.1451732244144918","1","","","","","","","",""
"","html-keyboard-response","159","754774","0.0-89.0-1.0","""event"",""trial"",""time""
""fullscreenenter"",""0"",""3966""
""blur"",""84"",""496075""
""focus"",""84"",""496340""
","""event"",""trial"",""time""
""blur"",""84"",""496075""
","""event"",""trial"",""time""
""focus"",""84"",""496340""
","""event"",""trial"",""time""
""fullscreenenter"",""0"",""3966""
","
","null","<p></p>","null","","","","","","","","","","","","","","","","","","","","","","",""
"","do_trial","160","759984","0.0-90.0-0.0","""event"",""trial"",""time""
""fullscreenenter"",""0"",""3966""
""blur"",""84"",""496075""
""focus"",""84"",""496340""
","""event"",""trial"",""time""
""blur"",""84"",""496075""
","""event"",""trial"",""time""
""focus"",""84"",""496340""
","""event"",""trial"",""time""
""fullscreenenter"",""0"",""3966""
","
","645.8999999999069","","","","","","","","49","0,0,0","1","mountain","34","probe-203","0.6816283097556103","0.32812134656360753","0.05565629867152746","0","","","","","","","",""
"","html-keyboard-response","161","761001","0.0-90.0-1.0","""event"",""trial"",""time""
""fullscreenenter"",""0"",""3966""
""blur"",""84"",""496075""
""focus"",""84"",""496340""
","""event"",""trial"",""time""
""blur"",""84"",""496075""
","""event"",""trial"",""time""
""focus"",""84"",""496340""
","""event"",""trial"",""time""
""fullscreenenter"",""0"",""3966""
","
","null","<p></p>","null","","","","","","","","","","","","","","","","","","","","","","",""
"","do_trial","162","766123","0.0-91.0-0.0","""event"",""trial"",""time""
""fullscreenenter"",""0"",""3966""
""blur"",""84"",""496075""
""focus"",""84"",""496340""
","""event"",""trial"",""time""
""blur"",""84"",""496075""
","""event"",""trial"",""time""
""focus"",""84"",""496340""
","""event"",""trial"",""time""
""fullscreenenter"",""0"",""3966""
","
","557.6000000000931","","","","","","","","50","0,0,0","1","mountain","35","probe-01","0.579517367819822","0.2660051544097256","0.060783677296495864","0","","","","","","","",""
"","html-keyboard-response","163","767138","0.0-91.0-1.0","""event"",""trial"",""time""
""fullscreenenter"",""0"",""3966""
""blur"",""84"",""496075""
""focus"",""84"",""496340""
","""event"",""trial"",""time""
""blur"",""84"",""496075""
","""event"",""trial"",""time""
""focus"",""84"",""496340""
","""event"",""trial"",""time""
""fullscreenenter"",""0"",""3966""
","
","null","<p></p>","null","","","","","","","","","","","","","","","","","","","","","","",""
"","do_trial","164","772291","0.0-92.0-0.0","""event"",""trial"",""time""
""fullscreenenter"",""0"",""3966""
""blur"",""84"",""496075""
""focus"",""84"",""496340""
","""event"",""trial"",""time""
""blur"",""84"",""496075""
","""event"",""trial"",""time""
""focus"",""84"",""496340""
","""event"",""trial"",""time""
""fullscreenenter"",""0"",""3966""
","
","567.1000000000931","","","","","","","","51","1,0,0","1","mountain","36","probe-208","0.654968723378692","0.2832261075269753","0.19837149218340128","0","","","","","","","",""
"","html-keyboard-response","165","773301","0.0-92.0-1.0","""event"",""trial"",""time""
""fullscreenenter"",""0"",""3966""
""blur"",""84"",""496075""
""focus"",""84"",""496340""
","""event"",""trial"",""time""
""blur"",""84"",""496075""
","""event"",""trial"",""time""
""focus"",""84"",""496340""
","""event"",""trial"",""time""
""fullscreenenter"",""0"",""3966""
","
","null","<p></p>","null","","","","","","","","","","","","","","","","","","","","","","",""
"","do_trial","166","777888","0.0-93.0-0.0","""event"",""trial"",""time""
""fullscreenenter"",""0"",""3966""
""blur"",""84"",""496075""
""focus"",""84"",""496340""
","""event"",""trial"",""time""
""blur"",""84"",""496075""
","""event"",""trial"",""time""
""focus"",""84"",""496340""
","""event"",""trial"",""time""
""fullscreenenter"",""0"",""3966""
","
","13.899999999906868","","","","","","","","50","1,1,0","1","mountain","37","probe-135","0.7019043221696751","0.38579393628902103","0.26595846209264656","1","","","","","","","",""
"","html-keyboard-response","167","778901","0.0-93.0-1.0","""event"",""trial"",""time""
""fullscreenenter"",""0"",""3966""
""blur"",""84"",""496075""
""focus"",""84"",""496340""
","""event"",""trial"",""time""
""blur"",""84"",""496075""
","""event"",""trial"",""time""
""focus"",""84"",""496340""
","""event"",""trial"",""time""
""fullscreenenter"",""0"",""3966""
","
","null","<p></p>","null","","","","","","","","","","","","","","","","","","","","","","",""
"","do_trial","168","784285","0.0-94.0-0.0","""event"",""trial"",""time""
""fullscreenenter"",""0"",""3966""
""blur"",""84"",""496075""
""focus"",""84"",""496340""
","""event"",""trial"",""time""
""blur"",""84"",""496075""
","""event"",""trial"",""time""
""focus"",""84"",""496340""
","""event"",""trial"",""time""
""fullscreenenter"",""0"",""3966""
","
","823.2000000001863","","","","","","","","49","0,0,0","1","mountain","38","probe-226","0.6799396501864692","0.4269040653677144","0.23702618121301286","0","","","","","","","",""
"","html-keyboard-response","169","785300","0.0-94.0-1.0","""event"",""trial"",""time""
""fullscreenenter"",""0"",""3966""
""blur"",""84"",""496075""
""focus"",""84"",""496340""
","""event"",""trial"",""time""
""blur"",""84"",""496075""
","""event"",""trial"",""time""
""focus"",""84"",""496340""
","""event"",""trial"",""time""
""fullscreenenter"",""0"",""3966""
","
","null","<p></p>","null","","","","","","","","","","","","","","","","","","","","","","",""
"","do_trial","170","790180","0.0-95.0-0.0","""event"",""trial"",""time""
""fullscreenenter"",""0"",""3966""
""blur"",""84"",""496075""
""focus"",""84"",""496340""
","""event"",""trial"",""time""
""blur"",""84"",""496075""
","""event"",""trial"",""time""
""focus"",""84"",""496340""
","""event"",""trial"",""time""
""fullscreenenter"",""0"",""3966""
","
","296.79999999981374","","","","","","","","50","1,1,0","1","mountain","39","probe-145","0.6570741378401612","0.2769150999928364","0.10551212294585911","1","","","","","","","",""
"","html-keyboard-response","171","791190","0.0-95.0-1.0","""event"",""trial"",""time""
""fullscreenenter"",""0"",""3966""
""blur"",""84"",""496075""
""focus"",""84"",""496340""
","""event"",""trial"",""time""
""blur"",""84"",""496075""
","""event"",""trial"",""time""
""focus"",""84"",""496340""
","""event"",""trial"",""time""
""fullscreenenter"",""0"",""3966""
","
","null","<p></p>","null","","","","","","","","","","","","","","","","","","","","","","",""
"","do_trial","172","796168","0.0-96.0-0.0","""event"",""trial"",""time""
""fullscreenenter"",""0"",""3966""
""blur"",""84"",""496075""
""focus"",""84"",""496340""
","""event"",""trial"",""time""
""blur"",""84"",""496075""
","""event"",""trial"",""time""
""focus"",""84"",""496340""
","""event"",""trial"",""time""
""fullscreenenter"",""0"",""3966""
","
","413.70000000018626","","","","","","","","51","0,1,0","1","mountain","40","probe-88","0.6837907224722513","0.41507847657492347","0.1438409758791632","0","","","","","","","",""
"","html-keyboard-response","173","797181","0.0-96.0-1.0","""event"",""trial"",""time""
""fullscreenenter"",""0"",""3966""
""blur"",""84"",""496075""
""focus"",""84"",""496340""
","""event"",""trial"",""time""
""blur"",""84"",""496075""
","""event"",""trial"",""time""
""focus"",""84"",""496340""
","""event"",""trial"",""time""
""fullscreenenter"",""0"",""3966""
","
","null","<p></p>","null","","","","","","","","","","","","","","","","","","","","","","",""
"","do_trial","174","802131","0.0-97.0-0.0","""event"",""trial"",""time""
""fullscreenenter"",""0"",""3966""
""blur"",""84"",""496075""
""focus"",""84"",""496340""
","""event"",""trial"",""time""
""blur"",""84"",""496075""
","""event"",""trial"",""time""
""focus"",""84"",""496340""
","""event"",""trial"",""time""
""fullscreenenter"",""0"",""3966""
","
","378.8000000002794","","","","","","","","50","0,1,0","1","mountain","41","probe-12","0.7433499643548191","0.48204676965398613","0.10050949409987205","1","","","","","","","",""
"","html-keyboard-response","175","803141","0.0-97.0-1.0","""event"",""trial"",""time""
""fullscreenenter"",""0"",""3966""
""blur"",""84"",""496075""
""focus"",""84"",""496340""
","""event"",""trial"",""time""
""blur"",""84"",""496075""
","""event"",""trial"",""time""
""focus"",""84"",""496340""
","""event"",""trial"",""time""
""fullscreenenter"",""0"",""3966""
","
","null","<p></p>","null","","","","","","","","","","","","","","","","","","","","","","",""
"","do_trial","176","807965","0.0-98.0-0.0","""event"",""trial"",""time""
""fullscreenenter"",""0"",""3966""
""blur"",""84"",""496075""
""focus"",""84"",""496340""
","""event"",""trial"",""time""
""blur"",""84"",""496075""
","""event"",""trial"",""time""
""focus"",""84"",""496340""
","""event"",""trial"",""time""
""fullscreenenter"",""0"",""3966""
","
","245.5","","","","","","","","49","0,1,0","1","mountain","42","probe-105","0.4847804155577509","0.4483657737260532","0.322387696897985","0","","","","","","","",""
"","html-keyboard-response","177","808977","0.0-98.0-1.0","""event"",""trial"",""time""
""fullscreenenter"",""0"",""3966""
""blur"",""84"",""496075""
""focus"",""84"",""496340""
","""event"",""trial"",""time""
""blur"",""84"",""496075""
","""event"",""trial"",""time""
""focus"",""84"",""496340""
","""event"",""trial"",""time""
""fullscreenenter"",""0"",""3966""
","
","null","<p></p>","null","","","","","","","","","","","","","","","","","","","","","","",""
"","do_trial","178","814158","0.0-99.0-0.0","""event"",""trial"",""time""
""fullscreenenter"",""0"",""3966""
""blur"",""84"",""496075""
""focus"",""84"",""496340""
","""event"",""trial"",""time""
""blur"",""84"",""496075""
","""event"",""trial"",""time""
""focus"",""84"",""496340""
","""event"",""trial"",""time""
""fullscreenenter"",""0"",""3966""
","
","609.0999999996275","","","","","","","","50","0,1,1","1","mountain","43","probe-78","0.3565738325660397","0.4360001154325232","0.508812071927731","1","","","","","","","",""
"","html-keyboard-response","179","815174","0.0-99.0-1.0","""event"",""trial"",""time""
""fullscreenenter"",""0"",""3966""
""blur"",""84"",""496075""
""focus"",""84"",""496340""
","""event"",""trial"",""time""
""blur"",""84"",""496075""
","""event"",""trial"",""time""
""focus"",""84"",""496340""
","""event"",""trial"",""time""
""fullscreenenter"",""0"",""3966""
","
","null","<p></p>","null","","","","","","","","","","","","","","","","","","","","","","",""
"","do_trial","180","820384","0.0-100.0-0.0","""event"",""trial"",""time""
""fullscreenenter"",""0"",""3966""
""blur"",""84"",""496075""
""focus"",""84"",""496340""
","""event"",""trial"",""time""
""blur"",""84"",""496075""
","""event"",""trial"",""time""
""focus"",""84"",""496340""
","""event"",""trial"",""time""
""fullscreenenter"",""0"",""3966""
","
","636.1999999997206","","","","","","","","51","1,1,0","1","mountain","44","probe-107","0.25319577512813607","0.4092361707559901","0.5633765683265713","0","","","","","","","",""
"","html-keyboard-response","181","821398","0.0-100.0-1.0","""event"",""trial"",""time""
""fullscreenenter"",""0"",""3966""
""blur"",""84"",""496075""
""focus"",""84"",""496340""
","""event"",""trial"",""time""
""blur"",""84"",""496075""
","""event"",""trial"",""time""
""focus"",""84"",""496340""
","""event"",""trial"",""time""
""fullscreenenter"",""0"",""3966""
","
","null","<p></p>","null","","","","","","","","","","","","","","","","","","","","","","",""
"","do_trial","182","826305","0.0-101.0-0.0","""event"",""trial"",""time""
""fullscreenenter"",""0"",""3966""
""blur"",""84"",""496075""
""focus"",""84"",""496340""
","""event"",""trial"",""time""
""blur"",""84"",""496075""
","""event"",""trial"",""time""
""focus"",""84"",""496340""
","""event"",""trial"",""time""
""fullscreenenter"",""0"",""3966""
","
","329.1999999997206","","","","","","","","50","0,0,1","1","mountain","45","probe-30","0.21019050558845437","0.3591938952083785","0.7247668617766018","0","","","","","","","",""
"","html-keyboard-response","183","827316","0.0-101.0-1.0","""event"",""trial"",""time""
""fullscreenenter"",""0"",""3966""
""blur"",""84"",""496075""
""focus"",""84"",""496340""
","""event"",""trial"",""time""
""blur"",""84"",""496075""
","""event"",""trial"",""time""
""focus"",""84"",""496340""
","""event"",""trial"",""time""
""fullscreenenter"",""0"",""3966""
","
","null","<p></p>","null","","","","","","","","","","","","","","","","","","","","","","",""
"","do_trial","184","831941","0.0-102.0-0.0","""event"",""trial"",""time""
""fullscreenenter"",""0"",""3966""
""blur"",""84"",""496075""
""focus"",""84"",""496340""
","""event"",""trial"",""time""
""blur"",""84"",""496075""
","""event"",""trial"",""time""
""focus"",""84"",""496340""
","""event"",""trial"",""time""
""fullscreenenter"",""0"",""3966""
","
","58.1999999997206","","","","","","","","49","0,1,1","1","mountain","46","probe-115","0.2557917239805474","0.42181815015430324","0.5872609807558383","0","","","","","","","",""
"","html-keyboard-response","185","832950","0.0-102.0-1.0","""event"",""trial"",""time""
""fullscreenenter"",""0"",""3966""
""blur"",""84"",""496075""
""focus"",""84"",""496340""
","""event"",""trial"",""time""
""blur"",""84"",""496075""
","""event"",""trial"",""time""
""focus"",""84"",""496340""
","""event"",""trial"",""time""
""fullscreenenter"",""0"",""3966""
","
","null","<p></p>","null","","","","","","","","","","","","","","","","","","","","","","",""
"","do_trial","186","837656","0.0-103.0-0.0","""event"",""trial"",""time""
""fullscreenenter"",""0"",""3966""
""blur"",""84"",""496075""
""focus"",""84"",""496340""
","""event"",""trial"",""time""
""blur"",""84"",""496075""
","""event"",""trial"",""time""
""focus"",""84"",""496340""
","""event"",""trial"",""time""
""fullscreenenter"",""0"",""3966""
","
","140.39999999990687","","","","","","","","51","1,0,1","1","mountain","47","probe-69","0.2939285702889722","0.38855908186758326","0.6739137802004652","1","","","","","","","",""
"","html-keyboard-response","187","838672","0.0-103.0-1.0","""event"",""trial"",""time""
""fullscreenenter"",""0"",""3966""
""blur"",""84"",""496075""
""focus"",""84"",""496340""
","""event"",""trial"",""time""
""blur"",""84"",""496075""
","""event"",""trial"",""time""
""focus"",""84"",""496340""
","""event"",""trial"",""time""
""fullscreenenter"",""0"",""3966""
","
","null","<p></p>","null","","","","","","","","","","","","","","","","","","","","","","",""
"","do_trial","188","843561","0.0-104.0-0.0","""event"",""trial"",""time""
""fullscreenenter"",""0"",""3966""
""blur"",""84"",""496075""
""focus"",""84"",""496340""
","""event"",""trial"",""time""
""blur"",""84"",""496075""
","""event"",""trial"",""time""
""focus"",""84"",""496340""
","""event"",""trial"",""time""
""fullscreenenter"",""0"",""3966""
","
","315.5","","","","","","","","51","1,0,1","1","mountain","48","probe-60","0.3438230758732299","0.42154906548271326","0.7383179587986943","1","","","","","","","",""
"","html-keyboard-response","189","844574","0.0-104.0-1.0","""event"",""trial"",""time""
""fullscreenenter"",""0"",""3966""
""blur"",""84"",""496075""
""focus"",""84"",""496340""
","""event"",""trial"",""time""
""blur"",""84"",""496075""
","""event"",""trial"",""time""
""focus"",""84"",""496340""
","""event"",""trial"",""time""
""fullscreenenter"",""0"",""3966""
","
","null","<p></p>","null","","","","","","","","","","","","","","","","","","","","","","",""
"","do_trial","190","849900","0.0-105.0-0.0","""event"",""trial"",""time""
""fullscreenenter"",""0"",""3966""
""blur"",""84"",""496075""
""focus"",""84"",""496340""
","""event"",""trial"",""time""
""blur"",""84"",""496075""
","""event"",""trial"",""time""
""focus"",""84"",""496340""
","""event"",""trial"",""time""
""fullscreenenter"",""0"",""3966""
","
","753.5","","","","","","","","49","0,1,0","1","mountain","49","probe-117","0.1912780195373491","0.3624767117981563","0.6386395925359889","0","","","","","","","",""
"","html-keyboard-response","191","850911","0.0-105.0-1.0","""event"",""trial"",""time""
""fullscreenenter"",""0"",""3966""
""blur"",""84"",""496075""
""focus"",""84"",""496340""
","""event"",""trial"",""time""
""blur"",""84"",""496075""
","""event"",""trial"",""time""
""focus"",""84"",""496340""
","""event"",""trial"",""time""
""fullscreenenter"",""0"",""3966""
","
","null","<p></p>","null","","","","","","","","","","","","","","","","","","","","","","",""
"","do_trial","192","856045","0.0-106.0-0.0","""event"",""trial"",""time""
""fullscreenenter"",""0"",""3966""
""blur"",""84"",""496075""
""focus"",""84"",""496340""
","""event"",""trial"",""time""
""blur"",""84"",""496075""
","""event"",""trial"",""time""
""focus"",""84"",""496340""
","""event"",""trial"",""time""
""fullscreenenter"",""0"",""3966""
","
","540.5","","","","","","","","50","0,0,0","1","mountain","50","probe-71","0.1332689912618791","0.33417680528926946","0.6305081879211875","0","","","","","","","",""
"","html-keyboard-response","193","857053","0.0-106.0-1.0","""event"",""trial"",""time""
""fullscreenenter"",""0"",""3966""
""blur"",""84"",""496075""
""focus"",""84"",""496340""
","""event"",""trial"",""time""
""blur"",""84"",""496075""
","""event"",""trial"",""time""
""focus"",""84"",""496340""
","""event"",""trial"",""time""
""fullscreenenter"",""0"",""3966""
","
","null","<p></p>","null","","","","","","","","","","","","","","","","","","","","","","",""
"","do_trial","194","862631","0.0-107.0-0.0","""event"",""trial"",""time""
""fullscreenenter"",""0"",""3966""
""blur"",""84"",""496075""
""focus"",""84"",""496340""
","""event"",""trial"",""time""
""blur"",""84"",""496075""
","""event"",""trial"",""time""
""focus"",""84"",""496340""
","""event"",""trial"",""time""
""fullscreenenter"",""0"",""3966""
","
","991.1000000000931","","","","","","","","51","0,0,0","1","mountain","51","probe-81","0.14883473002724348","0.33433900079707474","0.7283447103393367","0","","","","","","","",""
"","html-keyboard-response","195","863644","0.0-107.0-1.0","""event"",""trial"",""time""
""fullscreenenter"",""0"",""3966""
""blur"",""84"",""496075""
""focus"",""84"",""496340""
","""event"",""trial"",""time""
""blur"",""84"",""496075""
","""event"",""trial"",""time""
""focus"",""84"",""496340""
","""event"",""trial"",""time""
""fullscreenenter"",""0"",""3966""
","
","null","<p></p>","null","","","","","","","","","","","","","","","","","","","","","","",""
"","do_trial","196","868602","0.0-108.0-0.0","""event"",""trial"",""time""
""fullscreenenter"",""0"",""3966""
""blur"",""84"",""496075""
""focus"",""84"",""496340""
","""event"",""trial"",""time""
""blur"",""84"",""496075""
","""event"",""trial"",""time""
""focus"",""84"",""496340""
","""event"",""trial"",""time""
""fullscreenenter"",""0"",""3966""
","
","391.10000000009313","","","","","","","","50","0,0,0","1","mountain","52","probe-224","0.0721926787760267","0.3209006632677576","0.7671184128798462","0","","","","","","","",""
"","html-keyboard-response","197","869610","0.0-108.0-1.0","""event"",""trial"",""time""
""fullscreenenter"",""0"",""3966""
""blur"",""84"",""496075""
""focus"",""84"",""496340""
","""event"",""trial"",""time""
""blur"",""84"",""496075""
","""event"",""trial"",""time""
""focus"",""84"",""496340""
","""event"",""trial"",""time""
""fullscreenenter"",""0"",""3966""
","
","null","<p></p>","null","","","","","","","","","","","","","","","","","","","","","","",""
"","do_trial","198","874219","0.0-109.0-0.0","""event"",""trial"",""time""
""fullscreenenter"",""0"",""3966""
""blur"",""84"",""496075""
""focus"",""84"",""496340""
","""event"",""trial"",""time""
""blur"",""84"",""496075""
","""event"",""trial"",""time""
""focus"",""84"",""496340""
","""event"",""trial"",""time""
""fullscreenenter"",""0"",""3966""
","
","47.5","","","","","","","","49","0,0,1","1","mountain","53","probe-160","0.141885380133307","0.18832005913551983","0.8098567782287538","0","","","","","","","",""
"","html-keyboard-response","199","875231","0.0-109.0-1.0","""event"",""trial"",""time""
""fullscreenenter"",""0"",""3966""
""blur"",""84"",""496075""
""focus"",""84"",""496340""
","""event"",""trial"",""time""
""blur"",""84"",""496075""
","""event"",""trial"",""time""
""focus"",""84"",""496340""
","""event"",""trial"",""time""
""fullscreenenter"",""0"",""3966""
","
","null","<p></p>","null","","","","","","","","","","","","","","","","","","","","","","",""
"","do_trial","200","880410","0.0-110.0-0.0","""event"",""trial"",""time""
""fullscreenenter"",""0"",""3966""
""blur"",""84"",""496075""
""focus"",""84"",""496340""
","""event"",""trial"",""time""
""blur"",""84"",""496075""
","""event"",""trial"",""time""
""focus"",""84"",""496340""
","""event"",""trial"",""time""
""fullscreenenter"",""0"",""3966""
","
","592.7999999998137","","","","","","","","51","0,0,0","1","mountain","54","probe-158","0.22926444771071475","0.22322317852586118","0.6142823913706442","0","","","","","","","",""
"","html-keyboard-response","201","881424","0.0-110.0-1.0","""event"",""trial"",""time""
""fullscreenenter"",""0"",""3966""
""blur"",""84"",""496075""
""focus"",""84"",""496340""
","""event"",""trial"",""time""
""blur"",""84"",""496075""
","""event"",""trial"",""time""
""focus"",""84"",""496340""
","""event"",""trial"",""time""
""fullscreenenter"",""0"",""3966""
","
","null","<p></p>","null","","","","","","","","","","","","","","","","","","","","","","",""
