"success","trial_type","trial_index","time_elapsed","internal_node_id","interactions","blur_events","focus_events","fullscreenenter_events","fullscreenexit_events","rt","stimulus","key_press","subject_id","participant_id","age","gender","prompt","response","choice_outcomes","context_n","context_img_id","trial_n","probe_img_id","pR_red","pR_white","pR_black","outcome","contextArray_ind","validImageProbes","invalidImageProbes","pRew_Red","pRew_White","pRew_Black","availableForMemProbe","choice_blocks"
"true","fullscreen","0","2149","0.0-0.0","""event"",""trial"",""time""
""fullscreenenter"",""0"",""1172""
","
","
","""event"",""trial"",""time""
""fullscreenenter"",""0"",""1172""
","
","","","","","","","","","","","","","","","","","","","","","","","","","",""
"","pavlovia","1","2152","0.0-1.0","""event"",""trial"",""time""
""fullscreenenter"",""0"",""1172""
","
","
","""event"",""trial"",""time""
""fullscreenenter"",""0"",""1172""
","
","","","","","","","","","","","","","","","","","","","","","","","","","",""
"","instruc1","2","47281","0.0-2.0","""event"",""trial"",""time""
""fullscreenenter"",""0"",""1172""
","
","
","""event"",""trial"",""time""
""fullscreenenter"",""0"",""1172""
","
","null","run_exp/static/audio/clip_1_welcome.m4a","null","233","615","10","Male","<div class='center'><p>Welcome! This is the first part of the study. It will last ~30 minutes. In part 1 and part 2 of the study, you are the head captain of a pirate ship traveling around the world to different islands. You will play a few different games throughout these two parts. Here is an overview of them:</p><br><p>Part 1 (today)</p><p>1. Instructions, practice game, and quiz</p><p>2. Pick a pirate game on 6 different islands</p><br><p>Part 2 (tomorrow)</p><p>3. Pick a pirate game and memory game</p><p>4. Where did you see this ship? </p></div>","","","","","","","","","","","","","","","","","",""
"","html-keyboard-response","3","47719","0.0-3.0","""event"",""trial"",""time""
""fullscreenenter"",""0"",""1172""
","
","
","""event"",""trial"",""time""
""fullscreenenter"",""0"",""1172""
","
","437","<div class='center'><p>Welcome! This is the first part of the study. It will last ~30 minutes. In part 1 and part 2 of the study, you are the head captain of a pirate ship traveling around the world to different islands. You will play a few different games throughout these two parts. Here is an overview of them:</p><br><p>Part 1 (today)</p><p>1. Instructions, practice game, and quiz</p><p>2. Pick a pirate game on 6 different islands</p><br><p>Part 2 (tomorrow)</p><p>3. Pick a pirate game and memory game</p><p>4. Where did you see this ship? </p><p><b>[Press the space bar to continue]</b></p></div>","32","","","","","","","","","","","","","","","","","","","","","","",""
"","instruc2","4","53019","0.0-4.0","""event"",""trial"",""time""
""fullscreenenter"",""0"",""1172""
","
","
","""event"",""trial"",""time""
""fullscreenenter"",""0"",""1172""
","
","null","run_exp/static/audio/clip_2_different_places.m4a","null","","","","","<div class='center'><p>Today, you’ll visit these 6 islands on your journey. You'll be able to see these islands from your ship.</p><p><img src='run_exp/static/images/contexts/all_contexts.png' height='500'></p></div>","","","","","","","","","","","","","","","","","",""
"","html-keyboard-response","5","68880","0.0-5.0","""event"",""trial"",""time""
""fullscreenenter"",""0"",""1172""
","
","
","""event"",""trial"",""time""
""fullscreenenter"",""0"",""1172""
","
","15860.100000143051","<div class='center'><p>Today, you’ll visit these 6 islands on your journey. You'll be able to see these islands from your ship.</p><p><img src='run_exp/static/images/contexts/all_contexts.png' height='500'></p><p><b>[Press the space bar to continue]</b></p></div>","32","","","","","","","","","","","","","","","","","","","","","","",""
"","instruc3","6","78599","0.0-6.0","""event"",""trial"",""time""
""fullscreenenter"",""0"",""1172""
","
","
","""event"",""trial"",""time""
""fullscreenenter"",""0"",""1172""
","
","null","run_exp/static/audio/clip_3_goal_of_game_1.m4a","null","","","","","<div class='center'><p> The pirates on your ship will rob other ships as they leave the island.</p> These ships have just sold their goods to the islanders, so they will be filled with lots and lots of gold.</p><p><img src='run_exp/static/images/tutorial/ship_center.png' height='400'></p></div>","","","","","","","","","","","","","","","","","",""
"","html-keyboard-response","7","79050","0.0-7.0","""event"",""trial"",""time""
""fullscreenenter"",""0"",""1172""
","
","
","""event"",""trial"",""time""
""fullscreenenter"",""0"",""1172""
","
","449.89999985694885","<div class='center'><p> The pirates on your ship will rob other ships as they leave the island.</p> These ships have just sold their goods to the islanders, so they will be filled with lots and lots of gold.</p><p><img src='run_exp/static/images/tutorial/ship_center.png' height='400'></p><p><b>[Press the space bar to continue]</b></p></div>","32","","","","","","","","","","","","","","","","","","","","","","",""
"","instruc4","8","107036","0.0-8.0","""event"",""trial"",""time""
""fullscreenenter"",""0"",""1172""
","
","
","""event"",""trial"",""time""
""fullscreenenter"",""0"",""1172""
","
","null","run_exp/static/audio/clip_4_goal_of_game_2.m4a","null","","","","","<div class='center'><p>As the head captain, you do not have to rob any ships yourself. Another pirate will be doing the robbing for you. First, you will choose a pirate to rob the next ship.</p><p><img src='run_exp/static/images/tutorial/pirates_all_crop.png' height='200'></p><p>Then, you'll see if the pirate successfully robbed the ship of their gold. If they were successful, then you'll get a stack of gold coins like this:</p><p><img src='run_exp/static/images/tutorial/reward.png' height='150'></p><p> If they were <b>not</b> successful, then you'll get no gold coins, and you'll see a big red x like this: </p><p><img src='run_exp/static/images/tutorial/reward_no.png' height='150'></p><p> How much bonus money you make is based on how many gold coins you collect.</p><div>","","","","","","","","","","","","","","","","","",""
"","html-keyboard-response","9","108728","0.0-9.0","""event"",""trial"",""time""
""fullscreenenter"",""0"",""1172""
","
","
","""event"",""trial"",""time""
""fullscreenenter"",""0"",""1172""
","
","1690.7000000476837","<div class='center'><p>As the head captain, you do not have to rob any ships yourself. Another pirate will be doing the robbing for you. First, you will choose a pirate to rob the next ship.</p><p><img src='run_exp/static/images/tutorial/pirates_all_crop.png' height='200'></p><p>Then, you'll see if the pirate successfully robbed the ship of their gold. If they were successful, then you'll get a stack of gold coins like this:</p><p><img src='run_exp/static/images/tutorial/reward.png' height='150'></p><p> If they were <b>not</b> successful, then you'll get no gold coins, and you'll see a big red x like this: </p><p><img src='run_exp/static/images/tutorial/reward_no.png' height='150'></p><p> How much bonus money you make is based on how many gold coins you collect.</p<p><b>[Press the space bar to continue]</b></p></div>","32","","","","","","","","","","","","","","","","","","","","","","",""
"","instruc5","10","129068","0.0-10.0","""event"",""trial"",""time""
""fullscreenenter"",""0"",""1172""
","
","
","""event"",""trial"",""time""
""fullscreenenter"",""0"",""1172""
","
","20339.599999904633","run_exp/static/audio/clip_5_probabilistic.m4a","49","","","","","<div class='center'><p>Even the most skilled pirate can not rob EVERY ship.</p><p> Some ships will have very strong protections against pirate attacks.</p><p> Blue beard, here, is very, very good at robbing ships, but he won't be successful every time he tries to rob one.</p><p> You can press the <b>‘1’</b> key on the keyboard to choose him.</p><p> Try choosing him 10 times to see how often he succeeds at robbing a ship. </p><p><img src='run_exp/static/images/tutorial/blue.png' height='500'></p></div>","","","","","","","","","","","","","","","","","",""
"","html-keyboard-response","11","130574","0.0-11.0","""event"",""trial"",""time""
""fullscreenenter"",""0"",""1172""
","
","
","""event"",""trial"",""time""
""fullscreenenter"",""0"",""1172""
","
","null","<div class='center'><p><img src='run_exp/static/images/tutorial/blue_win.png' height='500'></p></div>","null","","","","","","","","","","","","","","","","","","","","","","",""
"","html-keyboard-response","12","131520","0.0-12.0","""event"",""trial"",""time""
""fullscreenenter"",""0"",""1172""
","
","
","""event"",""trial"",""time""
""fullscreenenter"",""0"",""1172""
","
","945.8999998569489","<div class='center'><img src='run_exp/static/images/tutorial/blue.png' height='500'></p></div>","49","","","","","","","","","","","","","","","","","","","","","","",""
"","html-keyboard-response","13","133023","0.0-13.0","""event"",""trial"",""time""
""fullscreenenter"",""0"",""1172""
","
","
","""event"",""trial"",""time""
""fullscreenenter"",""0"",""1172""
","
","null","<div class='center'><p><img src='run_exp/static/images/tutorial/blue_win.png' height='500'></p></div>","null","","","","","","","","","","","","","","","","","","","","","","",""
"","html-keyboard-response","14","134468","0.0-14.0","""event"",""trial"",""time""
""fullscreenenter"",""0"",""1172""
","
","
","""event"",""trial"",""time""
""fullscreenenter"",""0"",""1172""
","
","1443.8000001907349","<div class='center'><img src='run_exp/static/images/tutorial/blue.png' height='500'></p></div>","49","","","","","","","","","","","","","","","","","","","","","","",""
"","html-keyboard-response","15","135968","0.0-15.0","""event"",""trial"",""time""
""fullscreenenter"",""0"",""1172""
","
","
","""event"",""trial"",""time""
""fullscreenenter"",""0"",""1172""
","
","null","<div class='center'><p><img src='run_exp/static/images/tutorial/blue_win.png' height='500'></p></div>","null","","","","","","","","","","","","","","","","","","","","","","",""
"","html-keyboard-response","16","136515","0.0-16.0","""event"",""trial"",""time""
""fullscreenenter"",""0"",""1172""
","
","
","""event"",""trial"",""time""
""fullscreenenter"",""0"",""1172""
","
","546","<div class='center'><img src='run_exp/static/images/tutorial/blue.png' height='500'></p></div>","49","","","","","","","","","","","","","","","","","","","","","","",""
"","html-keyboard-response","17","138020","0.0-17.0","""event"",""trial"",""time""
""fullscreenenter"",""0"",""1172""
","
","
","""event"",""trial"",""time""
""fullscreenenter"",""0"",""1172""
","
","null","<div class='center'><p><img src='run_exp/static/images/tutorial/blue_no_win.png' height='500'></p></div>","null","","","","","","","","","","","","","","","","","","","","","","",""
"","html-keyboard-response","18","138563","0.0-18.0","""event"",""trial"",""time""
""fullscreenenter"",""0"",""1172""
","
","
","""event"",""trial"",""time""
""fullscreenenter"",""0"",""1172""
","
","542.2000000476837","<div class='center'><img src='run_exp/static/images/tutorial/blue.png' height='500'></p></div>","49","","","","","","","","","","","","","","","","","","","","","","",""
"","html-keyboard-response","19","140068","0.0-19.0","""event"",""trial"",""time""
""fullscreenenter"",""0"",""1172""
","
","
","""event"",""trial"",""time""
""fullscreenenter"",""0"",""1172""
","
","null","<div class='center'><p><img src='run_exp/static/images/tutorial/blue_win.png' height='500'></p></div>","null","","","","","","","","","","","","","","","","","","","","","","",""
"","html-keyboard-response","20","140633","0.0-20.0","""event"",""trial"",""time""
""fullscreenenter"",""0"",""1172""
","
","
","""event"",""trial"",""time""
""fullscreenenter"",""0"",""1172""
","
","563.7999999523163","<div class='center'><img src='run_exp/static/images/tutorial/blue.png' height='500'></p></div>","49","","","","","","","","","","","","","","","","","","","","","","",""
"","html-keyboard-response","21","142137","0.0-21.0","""event"",""trial"",""time""
""fullscreenenter"",""0"",""1172""
","
","
","""event"",""trial"",""time""
""fullscreenenter"",""0"",""1172""
","
","null","<div class='center'><p><img src='run_exp/static/images/tutorial/blue_win.png' height='500'></p></div>","null","","","","","","","","","","","","","","","","","","","","","","",""
"","html-keyboard-response","22","143063","0.0-22.0","""event"",""trial"",""time""
""fullscreenenter"",""0"",""1172""
","
","
","""event"",""trial"",""time""
""fullscreenenter"",""0"",""1172""
","
","924.7000000476837","<div class='center'><img src='run_exp/static/images/tutorial/blue.png' height='500'></p></div>","49","","","","","","","","","","","","","","","","","","","","","","",""
"","html-keyboard-response","23","144565","0.0-23.0","""event"",""trial"",""time""
""fullscreenenter"",""0"",""1172""
","
","
","""event"",""trial"",""time""
""fullscreenenter"",""0"",""1172""
","
","null","<div class='center'><p><img src='run_exp/static/images/tutorial/blue_win.png' height='500'></p></div>","null","","","","","","","","","","","","","","","","","","","","","","",""
"","html-keyboard-response","24","145121","0.0-24.0","""event"",""trial"",""time""
""fullscreenenter"",""0"",""1172""
","
","
","""event"",""trial"",""time""
""fullscreenenter"",""0"",""1172""
","
","555.5999999046326","<div class='center'><img src='run_exp/static/images/tutorial/blue.png' height='500'></p></div>","49","","","","","","","","","","","","","","","","","","","","","","",""
"","html-keyboard-response","25","146623","0.0-25.0","""event"",""trial"",""time""
""fullscreenenter"",""0"",""1172""
","
","
","""event"",""trial"",""time""
""fullscreenenter"",""0"",""1172""
","
","null","<div class='center'><p><img src='run_exp/static/images/tutorial/blue_no_win.png' height='500'></p></div>","null","","","","","","","","","","","","","","","","","","","","","","",""
"","html-keyboard-response","26","147101","0.0-26.0","""event"",""trial"",""time""
""fullscreenenter"",""0"",""1172""
","
","
","""event"",""trial"",""time""
""fullscreenenter"",""0"",""1172""
","
","477.89999985694885","<div class='center'><img src='run_exp/static/images/tutorial/blue.png' height='500'></p></div>","49","","","","","","","","","","","","","","","","","","","","","","",""
"","html-keyboard-response","27","148607","0.0-27.0","""event"",""trial"",""time""
""fullscreenenter"",""0"",""1172""
","
","
","""event"",""trial"",""time""
""fullscreenenter"",""0"",""1172""
","
","null","<div class='center'><p><img src='run_exp/static/images/tutorial/blue_win.png' height='500'></p></div>","null","","","","","","","","","","","","","","","","","","","","","","",""
"","html-keyboard-response","28","149329","0.0-28.0","""event"",""trial"",""time""
""fullscreenenter"",""0"",""1172""
","
","
","""event"",""trial"",""time""
""fullscreenenter"",""0"",""1172""
","
","721.5999999046326","<div class='center'><img src='run_exp/static/images/tutorial/blue.png' height='500'></p></div>","49","","","","","","","","","","","","","","","","","","","","","","",""
"","html-keyboard-response","29","150833","0.0-29.0","""event"",""trial"",""time""
""fullscreenenter"",""0"",""1172""
","
","
","""event"",""trial"",""time""
""fullscreenenter"",""0"",""1172""
","
","null","<div class='center'><p><img src='run_exp/static/images/tutorial/blue_win.png' height='500'></p></div>","null","","","","","","","","","","","","","","","","","","","","","","",""
"","instruc6","30","156266","0.0-30.0","""event"",""trial"",""time""
""fullscreenenter"",""0"",""1172""
","
","
","""event"",""trial"",""time""
""fullscreenenter"",""0"",""1172""
","
","null","run_exp/static/audio/clip_6_blue_beard_outcome.m4a","null","","","","","<div class='center'><p> See, he succeeded in robbing the ships most of the time but not every time. </p></div>","","","","","","","","","","","","","","","","","",""
"","html-keyboard-response","31","157328","0.0-31.0","""event"",""trial"",""time""
""fullscreenenter"",""0"",""1172""
","
","
","""event"",""trial"",""time""
""fullscreenenter"",""0"",""1172""
","
","1061.2000000476837","<div class='center'><p> See, he succeeded in robbing the ships most of the time but not every time. </p><p><b>[Press the space bar to continue]</b></p></div>","32","","","","","","","","","","","","","","","","","","","","","","",""
"","audio-keyboard-response","32","173303","0.0-32.0","""event"",""trial"",""time""
""fullscreenenter"",""0"",""1172""
","
","
","""event"",""trial"",""time""
""fullscreenenter"",""0"",""1172""
","
","15974.400000095367","run_exp/static/audio/clip_7_pick_pirate.m4a","51","","","","","","","","","","","","","","","","","","","","","","",""
"","audio-keyboard-response","33","177105","0.0-33.0-0.0","""event"",""trial"",""time""
""fullscreenenter"",""0"",""1172""
","
","
","""event"",""trial"",""time""
""fullscreenenter"",""0"",""1172""
","
","3801.100000143051","run_exp/static/audio/clip_8_chosen_pirate_win.m4a","32","","","","","","","","","","","","","","","","","","","","","","",""
"","audio-keyboard-response","34","179063","0.0-33.0-1.0","""event"",""trial"",""time""
""fullscreenenter"",""0"",""1172""
","
","
","""event"",""trial"",""time""
""fullscreenenter"",""0"",""1172""
","
","1956.5","run_exp/static/audio/clip_9_pick_a_pirate_again.m4a","50","","","","","","","","","","","","","","","","","","","","","","",""
"","audio-keyboard-response","35","183743","0.0-34.0-0.0","""event"",""trial"",""time""
""fullscreenenter"",""0"",""1172""
","
","
","""event"",""trial"",""time""
""fullscreenenter"",""0"",""1172""
","
","4679.100000143051","run_exp/static/audio/clip_10_chosen_pirate_loss.m4a","32","","","","","","","","","","","","","","","","","","","","","","",""
"","instruc9","36","189226","0.0-35.0-0.0","""event"",""trial"",""time""
""fullscreenenter"",""0"",""1172""
","
","
","""event"",""trial"",""time""
""fullscreenenter"",""0"",""1172""
","
","null","run_exp/static/audio/clip_11_time_out.m4a","null","","","","","<div class='center'><p>If you don’t make your choice fast enough, you’ll have to wait a few seconds before you can make another one. </p><p><img src='run_exp/static/images/miscellaneous/hurry_up.png' height='500'></p></div>","","","","","","","","","","","","","","","","","",""
"","html-keyboard-response","37","190493","0.0-35.0-1.0","""event"",""trial"",""time""
""fullscreenenter"",""0"",""1172""
","
","
","""event"",""trial"",""time""
""fullscreenenter"",""0"",""1172""
","
","1266.3999998569489","<div class='center'><p>If you don’t make your choice fast enough, you’ll have to wait a few seconds before you can make another one. </p><p><img src='run_exp/static/images/miscellaneous/hurry_up.png' height='500'></p><p><b>[Press the space bar to continue]</b></p></div>","32","","","","","","","","","","","","","","","","","","","","","","",""
"","instruc10","38","229566","0.0-35.0-2.0","""event"",""trial"",""time""
""fullscreenenter"",""0"",""1172""
","
","
","""event"",""trial"",""time""
""fullscreenenter"",""0"",""1172""
","
","null","run_exp/static/audio/clip_12_probe.m4a","null","","","","","<div class='center'><p>Once you've chosen a pirate, you’ll be shown the ship they are robbing. You will never rob the same ship twice. Ships can be told apart from one another by the image on them. These are the goods that they sell. See, this ship has a travel mug on it. </p><p> You’ll have to remember which island you saw each ship on. You will win more gold coins and hence more bonus money if you remember correctly! To help you remember, you can imagine a story. For example, here, you could imagine a mug full of water in the desert. Or, as another example, if on the forest island, your pirate robbed a ship with an apple on it, you could imagine an apple falling from a tree in the forest. </p><p><img src='run_exp/static/images/tutorial/example_probe.png' height='500'></p></div>","","","","","","","","","","","","","","","","","",""
"","html-keyboard-response","39","232602","0.0-35.0-3.0","""event"",""trial"",""time""
""fullscreenenter"",""0"",""1172""
","
","
","""event"",""trial"",""time""
""fullscreenenter"",""0"",""1172""
","
","3034.5999999046326","<div class='center'><p>Once you've chosen a pirate, you’ll be shown the ship they are robbing. You will never rob the same ship twice. Ships can be told apart from one another by the image on them. These are the goods that they sell. See, this ship has a travel mug on it. </p><p> You’ll have to remember which island you saw each ship on. You will win more gold coins and hence more bonus money if you remember correctly! To help you remember, you can imagine a story. For example, here, you could imagine a mug full of water in the desert. Or, as another example, if on the forest island, your pirate robbed a ship with an apple on it, you could imagine an apple falling from a tree in the forest. </p><p><img src='run_exp/static/images/tutorial/example_probe.png' height='500'></p><p><b>[Press the space bar to continue]</b></p></div>","32","","","","","","","","","","","","","","","","","","","","","","",""
"","instruc11","40","249001","0.0-35.0-4.0","""event"",""trial"",""time""
""fullscreenenter"",""0"",""1172""
","
","
","""event"",""trial"",""time""
""fullscreenenter"",""0"",""1172""
","
","null","run_exp/static/audio/clip_13_changepoint.m4a","null","","","","","<div class='center'><p>How successful a pirate is at robbing ships will depend on the island you’re on.</p><p> A pirate may have visited this island many times before and gained a lot of practice robbing ships there.</p><p>So, they’re more likely to be successful than a pirate who has never visited the island before.</p></div>","","","","","","","","","","","","","","","","","",""
"","html-keyboard-response","41","250174","0.0-35.0-5.0","""event"",""trial"",""time""
""fullscreenenter"",""0"",""1172""
","
","
","""event"",""trial"",""time""
""fullscreenenter"",""0"",""1172""
","
","1172.8999998569489","<div class='center'><p>How successful a pirate is at robbing ships will depend on the island you’re on.</p><p> A pirate may have visited this island many times before and gained a lot of practice robbing ships there.</p><p>So, they’re more likely to be successful than a pirate who has never visited the island before.</p><p><b>[Press the space bar to continue]</b></p></div>","32","","","","","","","","","","","","","","","","","","","","","","",""
"","instruc12","42","291261","0.0-35.0-6.0","""event"",""trial"",""time""
""fullscreenenter"",""0"",""1172""
","
","
","""event"",""trial"",""time""
""fullscreenenter"",""0"",""1172""
","
","null","run_exp/static/audio/clip_14_drift.m4a","null","","","","","<div class='center'><p>How successful a pirate is at robbing ships can also change over the time spent on the island. </p><p> Ships may hear from islanders about the pirates coming and will improve their protections against the attack. This may make it harder to rob them.</p><p> Ships may also become lazy and weaken the strength of their protections. This may make it easier to rob them.</p><br><p>Things are always changing on the high seas! So, try your best to pay attention!</p><p><img src='run_exp/static/images/tutorial/contingency.png' height='500'></p></div>","","","","","","","","","","","","","","","","","",""
"","html-keyboard-response","43","292564","0.0-35.0-7.0","""event"",""trial"",""time""
""fullscreenenter"",""0"",""1172""
","
","
","""event"",""trial"",""time""
""fullscreenenter"",""0"",""1172""
","
","1301.7000000476837","<div class='center'><p>How successful a pirate is at robbing ships can also change over the time spent on the island. </p><p> Ships may hear from islanders about the pirates coming and will improve their protections against the attack. This may make it harder to rob them.</p><p> Ships may also become lazy and weaken the strength of their protections. This may make it easier to rob them.</p><br><p>Things are always changing on the high seas! So, try your best to pay attention!</p><p><img src='run_exp/static/images/tutorial/contingency.png' height='500'></p><p><b>[Press the space bar to continue]</b></p></div>","32","","","","","","","","","","","","","","","","","","","","","","",""
"","instruc13","44","327741","0.0-35.0-8.0","""event"",""trial"",""time""
""fullscreenenter"",""0"",""1172""
","
","
","""event"",""trial"",""time""
""fullscreenenter"",""0"",""1172""
","
","null","run_exp/static/audio/clip_15_summary.m4a","null","","","","","<div class='center'><p>Let's go over the instructions quickly again. You have two important things to do: </p><b><p> 1. Pick the pirate who is the best at robbing ships on the current island. </p></b><b><p> 2. Remember on which island a ship was robbed.</p> </b><p>The amount of bonus money you can win depends on both.</p><p><br><p>Let’s try a practice game. The game will start by showing you the pirates. First, pick a pirate using the <b> 1, 2, 3 </b> keys on your keyboard. When you are shown a ship, try to remember which island you’re on by making up a story.</p><p>This is just a practice game, so you’re not playing for money. </p><p> Good luck! This game will be very difficult but try your best!</p></div>","","","","","","","","","","","","","","","","","",""
"","html-keyboard-response","45","331680","0.0-35.0-9.0","""event"",""trial"",""time""
""fullscreenenter"",""0"",""1172""
","
","
","""event"",""trial"",""time""
""fullscreenenter"",""0"",""1172""
","
","3938.9000000953674","<div class='center'><p>Let's go over the instructions quickly again. You have two important things to do: </p><b><p> 1. Pick the pirate who is the best at robbing ships on the current island. </p></b><b><p> 2. Remember on which island a ship was robbed.</p> </b><p>The amount of bonus money you can win depends on both.</p><p><br><p>Let’s try a practice game. The game will start by showing you the pirates. First, pick a pirate using the <b> 1, 2, 3 </b> keys on your keyboard. When you are shown a ship, try to remember which island you’re on by making up a story.</p><p>This is just a practice game, so you’re not playing for money. </p><p> Good luck! This game will be very difficult but try your best!</p><p><b>[Press the space bar to continue]</b></p></div>","32","","","","","","","","","","","","","","","","","","","","","","",""
"","do_welcome","46","335689","0.0-35.0-10.0","""event"",""trial"",""time""
""fullscreenenter"",""0"",""1172""
","
","
","""event"",""trial"",""time""
""fullscreenenter"",""0"",""1172""
","
","null","","","","","","","","null","","","","","","","","","","","","","","","","",""
"","do_trial","47","341697","0.0-35.0-11.0","""event"",""trial"",""time""
""fullscreenenter"",""0"",""1172""
","
","
","""event"",""trial"",""time""
""fullscreenenter"",""0"",""1172""
","
","null","","","","","","","","null","1,0,0","","","","","","","","","","","","","","","",""
"","html-keyboard-response","48","342700","0.0-36.0-0.0","""event"",""trial"",""time""
""fullscreenenter"",""0"",""1172""
","
","
","""event"",""trial"",""time""
""fullscreenenter"",""0"",""1172""
","
","null","<p></p>","null","","","","","","","","","","","","","","","","","","","","","","",""
"","do_trial","49","349326","0.0-36.0-1.0","""event"",""trial"",""time""
""fullscreenenter"",""0"",""1172""
","
","
","""event"",""trial"",""time""
""fullscreenenter"",""0"",""1172""
","
","2117.899999856949","","","","","","","","51","1,0,0","","","","","","","","","","","","","","","",""
"","html-keyboard-response","50","350329","0.0-37.0-0.0","""event"",""trial"",""time""
""fullscreenenter"",""0"",""1172""
","
","
","""event"",""trial"",""time""
""fullscreenenter"",""0"",""1172""
","
","null","<p></p>","null","","","","","","","","","","","","","","","","","","","","","","",""
"","do_trial","51","356333","0.0-37.0-1.0","""event"",""trial"",""time""
""fullscreenenter"",""0"",""1172""
","
","
","""event"",""trial"",""time""
""fullscreenenter"",""0"",""1172""
","
","null","","","","","","","","null","1,1,0","","","","","","","","","","","","","","","",""
"","html-keyboard-response","52","357336","0.0-38.0-0.0","""event"",""trial"",""time""
""fullscreenenter"",""0"",""1172""
","
","
","""event"",""trial"",""time""
""fullscreenenter"",""0"",""1172""
","
","null","<p></p>","null","","","","","","","","","","","","","","","","","","","","","","",""
"","do_trial","53","362937","0.0-38.0-1.0","""event"",""trial"",""time""
""fullscreenenter"",""0"",""1172""
","
","
","""event"",""trial"",""time""
""fullscreenenter"",""0"",""1172""
","
","1093.9000000953674","","","","","","","","49","1,1,0","","","","","","","","","","","","","","","",""
"","html-keyboard-response","54","363939","0.0-39.0-0.0","""event"",""trial"",""time""
""fullscreenenter"",""0"",""1172""
","
","
","""event"",""trial"",""time""
""fullscreenenter"",""0"",""1172""
","
","null","<p></p>","null","","","","","","","","","","","","","","","","","","","","","","",""
"","do_trial","55","369947","0.0-39.0-1.0","""event"",""trial"",""time""
""fullscreenenter"",""0"",""1172""
","
","
","""event"",""trial"",""time""
""fullscreenenter"",""0"",""1172""
","
","null","","","","","","","","null","1,0,1","","","","","","","","","","","","","","","",""
"","html-keyboard-response","56","370951","0.0-40.0-0.0","""event"",""trial"",""time""
""fullscreenenter"",""0"",""1172""
","
","
","""event"",""trial"",""time""
""fullscreenenter"",""0"",""1172""
","
","null","<p></p>","null","","","","","","","","","","","","","","","","","","","","","","",""
"","do_trial","57","376961","0.0-40.0-1.0","""event"",""trial"",""time""
""fullscreenenter"",""0"",""1172""
","
","
","""event"",""trial"",""time""
""fullscreenenter"",""0"",""1172""
","
","null","","","","","","","","null","1,0,1","","","","","","","","","","","","","","","",""
"","html-keyboard-response","58","377967","0.0-41.0-0.0","""event"",""trial"",""time""
""fullscreenenter"",""0"",""1172""
","
","
","""event"",""trial"",""time""
""fullscreenenter"",""0"",""1172""
","
","null","<p></p>","null","","","","","","","","","","","","","","","","","","","","","","",""
"","do_trial","59","382784","0.0-41.0-1.0","""event"",""trial"",""time""
""fullscreenenter"",""0"",""1172""
","
","
","""event"",""trial"",""time""
""fullscreenenter"",""0"",""1172""
","
","308.7999999523163","","","","","","","","50","1,0,1","","","","","","","","","","","","","","","",""
"","html-keyboard-response","60","383785","0.0-42.0-0.0","""event"",""trial"",""time""
""fullscreenenter"",""0"",""1172""
","
","
","""event"",""trial"",""time""
""fullscreenenter"",""0"",""1172""
","
","null","<p></p>","null","","","","","","","","","","","","","","","","","","","","","","",""
"","do_trial","61","389045","0.0-42.0-1.0","""event"",""trial"",""time""
""fullscreenenter"",""0"",""1172""
","
","
","""event"",""trial"",""time""
""fullscreenenter"",""0"",""1172""
","
","756.2999999523163","","","","","","","","50","0,1,0","","","","","","","","","","","","","","","",""
"","html-keyboard-response","62","390048","0.0-43.0-0.0","""event"",""trial"",""time""
""fullscreenenter"",""0"",""1172""
","
","
","""event"",""trial"",""time""
""fullscreenenter"",""0"",""1172""
","
","null","<p></p>","null","","","","","","","","","","","","","","","","","","","","","","",""
"","do_trial","63","395099","0.0-43.0-1.0","""event"",""trial"",""time""
""fullscreenenter"",""0"",""1172""
","
","
","""event"",""trial"",""time""
""fullscreenenter"",""0"",""1172""
","
","545.7999999523163","","","","","","","","51","1,0,0","","","","","","","","","","","","","","","",""
"","do_bye","64","396602","0.0-44.0-0.0","""event"",""trial"",""time""
""fullscreenenter"",""0"",""1172""
","
","
","""event"",""trial"",""time""
""fullscreenenter"",""0"",""1172""
","
","null","","","","","","","","null","","","","","","","","","","","","","","","","",""
"","do_travel","65","405608","0.0-44.0-1.0","""event"",""trial"",""time""
""fullscreenenter"",""0"",""1172""
","
","
","""event"",""trial"",""time""
""fullscreenenter"",""0"",""1172""
","
","null","","","","","","","","null","","","","","","","","","","","","","","","","",""
"","do_welcome","66","409616","0.0-44.0-2.0","""event"",""trial"",""time""
""fullscreenenter"",""0"",""1172""
","
","
","""event"",""trial"",""time""
""fullscreenenter"",""0"",""1172""
","
","null","","","","","","","","null","","","","","","","","","","","","","","","","",""
"","do_trial","67","414775","0.0-44.0-3.0","""event"",""trial"",""time""
""fullscreenenter"",""0"",""1172""
","
","
","""event"",""trial"",""time""
""fullscreenenter"",""0"",""1172""
","
","654","","","","","","","","51","1,0,0","","","","","","","","","","","","","","","",""
"","html-keyboard-response","68","415778","0.0-45.0-0.0","""event"",""trial"",""time""
""fullscreenenter"",""0"",""1172""
","
","
","""event"",""trial"",""time""
""fullscreenenter"",""0"",""1172""
","
","null","<p></p>","null","","","","","","","","","","","","","","","","","","","","","","",""
"","do_trial","69","422717","0.0-45.0-1.0","""event"",""trial"",""time""
""fullscreenenter"",""0"",""1172""
","
","
","""event"",""trial"",""time""
""fullscreenenter"",""0"",""1172""
","
","2434.2999999523163","","","","","","","","49","1,0,1","","","","","","","","","","","","","","","",""
"","html-keyboard-response","70","423720","0.0-46.0-0.0","""event"",""trial"",""time""
""fullscreenenter"",""0"",""1172""
","
","
","""event"",""trial"",""time""
""fullscreenenter"",""0"",""1172""
","
","null","<p></p>","null","","","","","","","","","","","","","","","","","","","","","","",""
"","do_trial","71","429401","0.0-46.0-1.0","""event"",""trial"",""time""
""fullscreenenter"",""0"",""1172""
","
","
","""event"",""trial"",""time""
""fullscreenenter"",""0"",""1172""
","
","1175.2000000476837","","","","","","","","50","1,1,0","","","","","","","","","","","","","","","",""
"","html-keyboard-response","72","430401","0.0-47.0-0.0","""event"",""trial"",""time""
""fullscreenenter"",""0"",""1172""
","
","
","""event"",""trial"",""time""
""fullscreenenter"",""0"",""1172""
","
","null","<p></p>","null","","","","","","","","","","","","","","","","","","","","","","",""
"","do_trial","73","435354","0.0-47.0-1.0","""event"",""trial"",""time""
""fullscreenenter"",""0"",""1172""
","
","
","""event"",""trial"",""time""
""fullscreenenter"",""0"",""1172""
","
","445","","","","","","","","51","0,0,1","","","","","","","","","","","","","","","",""
"","html-keyboard-response","74","436356","0.0-48.0-0.0","""event"",""trial"",""time""
""fullscreenenter"",""0"",""1172""
""fullscreenexit"",""75"",""436838""
","
","
","""event"",""trial"",""time""
""fullscreenenter"",""0"",""1172""
","""event"",""trial"",""time""
""fullscreenexit"",""75"",""436838""
","null","<p></p>","null","","","","","","","","","","","","","","","","","","","","","","",""
"","do_trial","75","442903","0.0-48.0-1.0","""event"",""trial"",""time""
""fullscreenenter"",""0"",""1172""
""fullscreenexit"",""75"",""436838""
","
","
","""event"",""trial"",""time""
""fullscreenenter"",""0"",""1172""
","""event"",""trial"",""time""
""fullscreenexit"",""75"",""436838""
","2038.9000000953674","","","","","","","","49","1,0,1","","","","","","","","","","","","","","","",""
"","html-keyboard-response","76","450346","0.0-49.0-0.0","""event"",""trial"",""time""
""fullscreenenter"",""0"",""1172""
""fullscreenexit"",""75"",""436838""
","
","
","""event"",""trial"",""time""
""fullscreenenter"",""0"",""1172""
","""event"",""trial"",""time""
""fullscreenexit"",""75"",""436838""
","7441.700000047684","<div class='center'><p><img src='run_exp/static/images/tutorial/prac_best_pirate.png'  height='500'></p></div>","49","","","","","","","","","","","","","","","","","","","","","","",""
"","html-keyboard-response","77","452214","0.0-50.0-0.0","""event"",""trial"",""time""
""fullscreenenter"",""0"",""1172""
""fullscreenexit"",""75"",""436838""
","
","
","""event"",""trial"",""time""
""fullscreenenter"",""0"",""1172""
","""event"",""trial"",""time""
""fullscreenexit"",""75"",""436838""
","1866.8999998569489","<div class='center'><p>That's correct! Red beard was the best.</p><p><b>[Press the space bar to continue]</b></p></div>","32","","","","","","","","","","","","","","","","","","","","","","",""
"","html-keyboard-response","78","455251","0.0-50.0-1.0","""event"",""trial"",""time""
""fullscreenenter"",""0"",""1172""
""fullscreenexit"",""75"",""436838""
","
","
","""event"",""trial"",""time""
""fullscreenenter"",""0"",""1172""
","""event"",""trial"",""time""
""fullscreenexit"",""75"",""436838""
","3036.899999856949","<div class='center'><p><img src='run_exp/static/images/tutorial/prac_source.png'  height='500'></p></div>","50","","","","","","","","","","","","","","","","","","","","","","",""
"","html-keyboard-response","79","458311","0.0-51.0-0.0","""event"",""trial"",""time""
""fullscreenenter"",""0"",""1172""
""fullscreenexit"",""75"",""436838""
","
","
","""event"",""trial"",""time""
""fullscreenenter"",""0"",""1172""
","""event"",""trial"",""time""
""fullscreenexit"",""75"",""436838""
","3058.899999856949","<div class='center'><p>That's correct! You saw this ship on the cavern island.</p><p><b>[Press the space bar to continue]</b></p></div>","32","","","","","","","","","","","","","","","","","","","","","","",""
"","quiz_beginning","80","469544","0.0-51.0-1.0","""event"",""trial"",""time""
""fullscreenenter"",""0"",""1172""
""fullscreenexit"",""75"",""436838""
","
","
","""event"",""trial"",""time""
""fullscreenenter"",""0"",""1172""
","""event"",""trial"",""time""
""fullscreenexit"",""75"",""436838""
","null","run_exp/static/audio/clip_16_quiz_intro.m4a","null","","","","","<div class='center'><p>Good job on the practice game! Now, you will be asked some true or false questions to make sure you really understand the rules of the game.</p><p> Press <b>'1'</b> on the keyboard for true and press <b>'2'</b> for false.</p></div>","","","","","","","","","","","","","","","","","",""
"","audio-keyboard-response","81","476547","0.0-51.0-2.0","""event"",""trial"",""time""
""fullscreenenter"",""0"",""1172""
""fullscreenexit"",""75"",""436838""
","
","
","""event"",""trial"",""time""
""fullscreenenter"",""0"",""1172""
","""event"",""trial"",""time""
""fullscreenexit"",""75"",""436838""
","7002.700000047684","run_exp/static/audio/clip_17_q1.m4a","49","","","","","","","","","","","","","","","","","","","","","","",""
"","correct","82","478952","0.0-52.0-0.0","""event"",""trial"",""time""
""fullscreenenter"",""0"",""1172""
""fullscreenexit"",""75"",""436838""
","
","
","""event"",""trial"",""time""
""fullscreenenter"",""0"",""1172""
","""event"",""trial"",""time""
""fullscreenexit"",""75"",""436838""
","null","run_exp/static/audio/clip_18_correct.m4a","null","","","","","<div class='center'><p>That's correct!</p></div>","","","","","","","","","","","","","","","","","",""
"","html-keyboard-response","83","479866","0.0-52.0-1.0","""event"",""trial"",""time""
""fullscreenenter"",""0"",""1172""
""fullscreenexit"",""75"",""436838""
","
","
","""event"",""trial"",""time""
""fullscreenenter"",""0"",""1172""
","""event"",""trial"",""time""
""fullscreenexit"",""75"",""436838""
","913.6000001430511","<div class='center'><p>That's correct!</p><p><b>[Press the space bar to continue]</b></p></div>","32","","","","","","","","","","","","","","","","","","","","","","",""
"","audio-keyboard-response","84","486605","0.0-52.0-2.0","""event"",""trial"",""time""
""fullscreenenter"",""0"",""1172""
""fullscreenexit"",""75"",""436838""
","
","
","""event"",""trial"",""time""
""fullscreenenter"",""0"",""1172""
","""event"",""trial"",""time""
""fullscreenexit"",""75"",""436838""
","6738.5","run_exp/static/audio/clip_20_q2.m4a","50","","","","","","","","","","","","","","","","","","","","","","",""
"","correct","85","488999","0.0-53.0-0.0","""event"",""trial"",""time""
""fullscreenenter"",""0"",""1172""
""fullscreenexit"",""75"",""436838""
","
","
","""event"",""trial"",""time""
""fullscreenenter"",""0"",""1172""
","""event"",""trial"",""time""
""fullscreenexit"",""75"",""436838""
","null","run_exp/static/audio/clip_18_correct.m4a","null","","","","","<div class='center'><p>That's correct!</p></div>","","","","","","","","","","","","","","","","","",""
"","html-keyboard-response","86","489698","0.0-53.0-1.0","""event"",""trial"",""time""
""fullscreenenter"",""0"",""1172""
""fullscreenexit"",""75"",""436838""
","
","
","""event"",""trial"",""time""
""fullscreenenter"",""0"",""1172""
","""event"",""trial"",""time""
""fullscreenexit"",""75"",""436838""
","698.5","<div class='center'><p>That's correct!</p><p><b>[Press the space bar to continue]</b></p></div>","32","","","","","","","","","","","","","","","","","","","","","","",""
"","audio-keyboard-response","87","495594","0.0-53.0-2.0","""event"",""trial"",""time""
""fullscreenenter"",""0"",""1172""
""fullscreenexit"",""75"",""436838""
","
","
","""event"",""trial"",""time""
""fullscreenenter"",""0"",""1172""
","""event"",""trial"",""time""
""fullscreenexit"",""75"",""436838""
","5894.799999952316","run_exp/static/audio/clip_22_q3.m4a","50","","","","","","","","","","","","","","","","","","","","","","",""
"","correct","88","498002","0.0-54.0-0.0","""event"",""trial"",""time""
""fullscreenenter"",""0"",""1172""
""fullscreenexit"",""75"",""436838""
","
","
","""event"",""trial"",""time""
""fullscreenenter"",""0"",""1172""
","""event"",""trial"",""time""
""fullscreenexit"",""75"",""436838""
","null","run_exp/static/audio/clip_18_correct.m4a","null","","","","","<div class='center'><p>That's correct!</p></div>","","","","","","","","","","","","","","","","","",""
"","html-keyboard-response","89","498743","0.0-54.0-1.0","""event"",""trial"",""time""
""fullscreenenter"",""0"",""1172""
""fullscreenexit"",""75"",""436838""
","
","
","""event"",""trial"",""time""
""fullscreenenter"",""0"",""1172""
","""event"",""trial"",""time""
""fullscreenexit"",""75"",""436838""
","741","<div class='center'><p>That's correct!</p><p><b>[Press the space bar to continue]</b></p></div>","32","","","","","","","","","","","","","","","","","","","","","","",""
"","audio-keyboard-response","90","502759","0.0-54.0-2.0","""event"",""trial"",""time""
""fullscreenenter"",""0"",""1172""
""fullscreenexit"",""75"",""436838""
","
","
","""event"",""trial"",""time""
""fullscreenenter"",""0"",""1172""
","""event"",""trial"",""time""
""fullscreenexit"",""75"",""436838""
","4015.600000143051","run_exp/static/audio/clip_24_q4.m4a","49","","","","","","","","","","","","","","","","","","","","","","",""
"","correct","91","505191","0.0-55.0-0.0","""event"",""trial"",""time""
""fullscreenenter"",""0"",""1172""
""fullscreenexit"",""75"",""436838""
","
","
","""event"",""trial"",""time""
""fullscreenenter"",""0"",""1172""
","""event"",""trial"",""time""
""fullscreenexit"",""75"",""436838""
","null","run_exp/static/audio/clip_18_correct.m4a","null","","","","","<div class='center'><p>That's correct!</p></div>","","","","","","","","","","","","","","","","","",""
"","html-keyboard-response","92","506033","0.0-55.0-1.0","""event"",""trial"",""time""
""fullscreenenter"",""0"",""1172""
""fullscreenexit"",""75"",""436838""
","
","
","""event"",""trial"",""time""
""fullscreenenter"",""0"",""1172""
","""event"",""trial"",""time""
""fullscreenexit"",""75"",""436838""
","841.5","<div class='center'><p>That's correct!</p><p><b>[Press the space bar to continue]</b></p></div>","32","","","","","","","","","","","","","","","","","","","","","","",""
"","q_all_corr","93","514514","0.0-56.0-0.0","""event"",""trial"",""time""
""fullscreenenter"",""0"",""1172""
""fullscreenexit"",""75"",""436838""
","
","
","""event"",""trial"",""time""
""fullscreenenter"",""0"",""1172""
","""event"",""trial"",""time""
""fullscreenexit"",""75"",""436838""
","null","run_exp/static/audio/clip_27_quiz_all_correct.m4a","null","","","","","<div class='center'><p>Good job! You’re now ready to move on to the real game! Remember this game will be difficult but don't get discouraged and try your best!</p></div>","","","","","","","","","","","","","","","","","",""
"","html-keyboard-response","94","532202","0.0-56.0-1.0","""event"",""trial"",""time""
""fullscreenenter"",""0"",""1172""
""fullscreenexit"",""75"",""436838""
","
","
","""event"",""trial"",""time""
""fullscreenenter"",""0"",""1172""
","""event"",""trial"",""time""
""fullscreenexit"",""75"",""436838""
","17687.799999952316","<div class='center'><p>Good job! You’re now ready to move on to the real game! Remember this game will be difficult but don't get discouraged and try your best!</p><p><b>[Press the space bar to continue]</b></p></div>","32","","","","","","","","","","","","","","","","","","","","","","",""
"","do_welcome","95","536207","0.0-57.0-0.0","""event"",""trial"",""time""
""fullscreenenter"",""0"",""1172""
""fullscreenexit"",""75"",""436838""
","
","
","""event"",""trial"",""time""
""fullscreenenter"",""0"",""1172""
","""event"",""trial"",""time""
""fullscreenexit"",""75"",""436838""
","null","","","","","","","","null","","","","","","","","","","","","","","","","",""
"","do_trial","96","541891","0.0-58.0-0.0","""event"",""trial"",""time""
""fullscreenenter"",""0"",""1172""
""fullscreenexit"",""75"",""436838""
","
","
","""event"",""trial"",""time""
""fullscreenenter"",""0"",""1172""
","""event"",""trial"",""time""
""fullscreenexit"",""75"",""436838""
","1150","","","","","","","","51","0,0,0","0","highway","0","probe-91","0.6","0.3","0.1","0","","","","","","","",""
"","html-keyboard-response","97","542894","0.0-58.0-1.0","""event"",""trial"",""time""
""fullscreenenter"",""0"",""1172""
""fullscreenexit"",""75"",""436838""
","
","
","""event"",""trial"",""time""
""fullscreenenter"",""0"",""1172""
","""event"",""trial"",""time""
""fullscreenexit"",""75"",""436838""
","null","<p></p>","null","","","","","","","","","","","","","","","","","","","","","","",""
"","do_trial","98","549520","0.0-59.0-0.0","""event"",""trial"",""time""
""fullscreenenter"",""0"",""1172""
""fullscreenexit"",""75"",""436838""
","
","
","""event"",""trial"",""time""
""fullscreenenter"",""0"",""1172""
","""event"",""trial"",""time""
""fullscreenexit"",""75"",""436838""
","2090.5","","","","","","","","50","1,1,0","0","highway","1","probe-63","0.7331008665135622","0.14435667208006187","0.209284798976891","1","","","","","","","",""
"","html-keyboard-response","99","550523","0.0-59.0-1.0","""event"",""trial"",""time""
""fullscreenenter"",""0"",""1172""
""fullscreenexit"",""75"",""436838""
","
","
","""event"",""trial"",""time""
""fullscreenenter"",""0"",""1172""
","""event"",""trial"",""time""
""fullscreenexit"",""75"",""436838""
","null","<p></p>","null","","","","","","","","","","","","","","","","","","","","","","",""
"","do_trial","100","556556","0.0-60.0-0.0","""event"",""trial"",""time""
""fullscreenenter"",""0"",""1172""
""fullscreenexit"",""75"",""436838""
","
","
","""event"",""trial"",""time""
""fullscreenenter"",""0"",""1172""
","""event"",""trial"",""time""
""fullscreenexit"",""75"",""436838""
","null","","","","","","","","null","0,0,1","0","highway","2","probe-137","0.7030514714841708","0.16258112773930364","0.09751636360078728","","","","","","","","",""
"","html-keyboard-response","101","557559","0.0-60.0-1.0","""event"",""trial"",""time""
""fullscreenenter"",""0"",""1172""
""fullscreenexit"",""75"",""436838""
","
","
","""event"",""trial"",""time""
""fullscreenenter"",""0"",""1172""
","""event"",""trial"",""time""
""fullscreenexit"",""75"",""436838""
","null","<p></p>","null","","","","","","","","","","","","","","","","","","","","","","",""
"","do_trial","102","562851","0.0-61.0-0.0","""event"",""trial"",""time""
""fullscreenenter"",""0"",""1172""
""fullscreenexit"",""75"",""436838""
","
","
","""event"",""trial"",""time""
""fullscreenenter"",""0"",""1172""
","""event"",""trial"",""time""
""fullscreenexit"",""75"",""436838""
","757.8999998569489","","","","","","","","49","0,0,0","0","highway","3","probe-150","0.5788487892155219","0.26914577239263654","0.08067959872370063","0","","","","","","","",""
"","html-keyboard-response","103","563857","0.0-61.0-1.0","""event"",""trial"",""time""
""fullscreenenter"",""0"",""1172""
""fullscreenexit"",""75"",""436838""
","
","
","""event"",""trial"",""time""
""fullscreenenter"",""0"",""1172""
","""event"",""trial"",""time""
""fullscreenexit"",""75"",""436838""
","null","<p></p>","null","","","","","","","","","","","","","","","","","","","","","","",""
"","do_trial","104","568720","0.0-62.0-0.0","""event"",""trial"",""time""
""fullscreenenter"",""0"",""1172""
""fullscreenexit"",""75"",""436838""
","
","
","""event"",""trial"",""time""
""fullscreenenter"",""0"",""1172""
","""event"",""trial"",""time""
""fullscreenexit"",""75"",""436838""
","331.90000009536743","","","","","","","","50","1,1,1","0","highway","4","probe-86","0.6271181948081737","0.26575540925046554","0.07712627059355864","1","","","","","","","",""
"","html-keyboard-response","105","569723","0.0-62.0-1.0","""event"",""trial"",""time""
""fullscreenenter"",""0"",""1172""
""fullscreenexit"",""75"",""436838""
","
","
","""event"",""trial"",""time""
""fullscreenenter"",""0"",""1172""
","""event"",""trial"",""time""
""fullscreenexit"",""75"",""436838""
","null","<p></p>","null","","","","","","","","","","","","","","","","","","","","","","",""
"","do_trial","106","574574","0.0-63.0-0.0","""event"",""trial"",""time""
""fullscreenenter"",""0"",""1172""
""fullscreenexit"",""75"",""436838""
","
","
","""event"",""trial"",""time""
""fullscreenenter"",""0"",""1172""
","""event"",""trial"",""time""
""fullscreenexit"",""75"",""436838""
","316.2000000476837","","","","","","","","51","1,1,0","0","highway","5","probe-198","0.5111380992810622","0.25901647754793394","0.1126480377856419","0","","","","","","","",""
"","html-keyboard-response","107","575577","0.0-63.0-1.0","""event"",""trial"",""time""
""fullscreenenter"",""0"",""1172""
""fullscreenexit"",""75"",""436838""
","
","
","""event"",""trial"",""time""
""fullscreenenter"",""0"",""1172""
","""event"",""trial"",""time""
""fullscreenexit"",""75"",""436838""
","null","<p></p>","null","","","","","","","","","","","","","","","","","","","","","","",""
"","do_trial","108","580580","0.0-64.0-0.0","""event"",""trial"",""time""
""fullscreenenter"",""0"",""1172""
""fullscreenexit"",""75"",""436838""
","
","
","""event"",""trial"",""time""
""fullscreenenter"",""0"",""1172""
","""event"",""trial"",""time""
""fullscreenexit"",""75"",""436838""
","469.90000009536743","","","","","","","","49","0,0,0","0","highway","6","probe-71","0.44659111889098385","0.4333665725294283","0.07664907765131751","0","","","","","","","",""
"","html-keyboard-response","109","581583","0.0-64.0-1.0","""event"",""trial"",""time""
""fullscreenenter"",""0"",""1172""
""fullscreenexit"",""75"",""436838""
","
","
","""event"",""trial"",""time""
""fullscreenenter"",""0"",""1172""
","""event"",""trial"",""time""
""fullscreenexit"",""75"",""436838""
","null","<p></p>","null","","","","","","","","","","","","","","","","","","","","","","",""
"","do_trial","110","586520","0.0-65.0-0.0","""event"",""trial"",""time""
""fullscreenenter"",""0"",""1172""
""fullscreenexit"",""75"",""436838""
","
","
","""event"",""trial"",""time""
""fullscreenenter"",""0"",""1172""
","""event"",""trial"",""time""
""fullscreenexit"",""75"",""436838""
","404","","","","","","","","50","0,1,0","0","highway","7","probe-88","0.3915968953312829","0.39845511862834954","0.09026028647288768","1","","","","","","","",""
"","html-keyboard-response","111","587526","0.0-65.0-1.0","""event"",""trial"",""time""
""fullscreenenter"",""0"",""1172""
""fullscreenexit"",""75"",""436838""
","
","
","""event"",""trial"",""time""
""fullscreenenter"",""0"",""1172""
","""event"",""trial"",""time""
""fullscreenexit"",""75"",""436838""
","null","<p></p>","null","","","","","","","","","","","","","","","","","","","","","","",""
"","do_trial","112","592391","0.0-66.0-0.0","""event"",""trial"",""time""
""fullscreenenter"",""0"",""1172""
""fullscreenexit"",""75"",""436838""
","
","
","""event"",""trial"",""time""
""fullscreenenter"",""0"",""1172""
","""event"",""trial"",""time""
""fullscreenexit"",""75"",""436838""
","333.2000000476837","","","","","","","","50","0,0,0","0","highway","8","probe-10","0.4877907665830973","0.31333080163560384","0.13124980949506643","0","","","","","","","",""
"","html-keyboard-response","113","593394","0.0-66.0-1.0","""event"",""trial"",""time""
""fullscreenenter"",""0"",""1172""
""fullscreenexit"",""75"",""436838""
","
","
","""event"",""trial"",""time""
""fullscreenenter"",""0"",""1172""
","""event"",""trial"",""time""
""fullscreenexit"",""75"",""436838""
","null","<p></p>","null","","","","","","","","","","","","","","","","","","","","","","",""
"","do_trial","114","598251","0.0-67.0-0.0","""event"",""trial"",""time""
""fullscreenenter"",""0"",""1172""
""fullscreenexit"",""75"",""436838""
","
","
","""event"",""trial"",""time""
""fullscreenenter"",""0"",""1172""
","""event"",""trial"",""time""
""fullscreenexit"",""75"",""436838""
","326.60000014305115","","","","","","","","50","0,0,0","0","highway","9","probe-214","0.45132869103259327","0.1650352051063731","0.12220314605403766","0","","","","","","","",""
"","html-keyboard-response","115","599256","0.0-67.0-1.0","""event"",""trial"",""time""
""fullscreenenter"",""0"",""1172""
""fullscreenexit"",""75"",""436838""
","
","
","""event"",""trial"",""time""
""fullscreenenter"",""0"",""1172""
","""event"",""trial"",""time""
""fullscreenexit"",""75"",""436838""
","null","<p></p>","null","","","","","","","","","","","","","","","","","","","","","","",""
"","do_trial","116","604170","0.0-68.0-0.0","""event"",""trial"",""time""
""fullscreenenter"",""0"",""1172""
""fullscreenexit"",""75"",""436838""
","
","
","""event"",""trial"",""time""
""fullscreenenter"",""0"",""1172""
","""event"",""trial"",""time""
""fullscreenexit"",""75"",""436838""
","382.59999990463257","","","","","","","","50","1,0,0","0","highway","10","probe-179","0.5962744607077876","0.22276267039431064","0.15259155454994408","0","","","","","","","",""
"","html-keyboard-response","117","605173","0.0-68.0-1.0","""event"",""trial"",""time""
""fullscreenenter"",""0"",""1172""
""fullscreenexit"",""75"",""436838""
","
","
","""event"",""trial"",""time""
""fullscreenenter"",""0"",""1172""
","""event"",""trial"",""time""
""fullscreenexit"",""75"",""436838""
","null","<p></p>","null","","","","","","","","","","","","","","","","","","","","","","",""
"","do_trial","118","610068","0.0-69.0-0.0","""event"",""trial"",""time""
""fullscreenenter"",""0"",""1172""
""fullscreenexit"",""75"",""436838""
","
","
","""event"",""trial"",""time""
""fullscreenenter"",""0"",""1172""
","""event"",""trial"",""time""
""fullscreenexit"",""75"",""436838""
","359.7999999523163","","","","","","","","51","0,0,0","0","highway","11","probe-27","0.635335551299615","0.28677560974656824","0.1985239280748808","0","","","","","","","",""
"","html-keyboard-response","119","611072","0.0-69.0-1.0","""event"",""trial"",""time""
""fullscreenenter"",""0"",""1172""
""fullscreenexit"",""75"",""436838""
","
","
","""event"",""trial"",""time""
""fullscreenenter"",""0"",""1172""
","""event"",""trial"",""time""
""fullscreenexit"",""75"",""436838""
","null","<p></p>","null","","","","","","","","","","","","","","","","","","","","","","",""
"","do_trial","120","616007","0.0-70.0-0.0","""event"",""trial"",""time""
""fullscreenenter"",""0"",""1172""
""fullscreenexit"",""75"",""436838""
","
","
","""event"",""trial"",""time""
""fullscreenenter"",""0"",""1172""
","""event"",""trial"",""time""
""fullscreenexit"",""75"",""436838""
","401.5","","","","","","","","49","1,0,0","0","highway","12","probe-57","0.6284728261723018","0.3268954931017719","0.21069504926029292","1","","","","","","","",""
"","html-keyboard-response","121","617010","0.0-70.0-1.0","""event"",""trial"",""time""
""fullscreenenter"",""0"",""1172""
""fullscreenexit"",""75"",""436838""
","
","
","""event"",""trial"",""time""
""fullscreenenter"",""0"",""1172""
","""event"",""trial"",""time""
""fullscreenexit"",""75"",""436838""
","null","<p></p>","null","","","","","","","","","","","","","","","","","","","","","","",""
"","do_trial","122","622150","0.0-71.0-0.0","""event"",""trial"",""time""
""fullscreenenter"",""0"",""1172""
""fullscreenexit"",""75"",""436838""
","
","
","""event"",""trial"",""time""
""fullscreenenter"",""0"",""1172""
","""event"",""trial"",""time""
""fullscreenexit"",""75"",""436838""
","606.2000000476837","","","","","","","","49","1,0,0","0","highway","13","probe-42","0.6778353246319734","0.41121125444754325","0.2932973371310622","1","","","","","","","",""
"","html-keyboard-response","123","623153","0.0-71.0-1.0","""event"",""trial"",""time""
""fullscreenenter"",""0"",""1172""
""fullscreenexit"",""75"",""436838""
","
","
","""event"",""trial"",""time""
""fullscreenenter"",""0"",""1172""
","""event"",""trial"",""time""
""fullscreenexit"",""75"",""436838""
","null","<p></p>","null","","","","","","","","","","","","","","","","","","","","","","",""
"","do_trial","124","628043","0.0-72.0-0.0","""event"",""trial"",""time""
""fullscreenenter"",""0"",""1172""
""fullscreenexit"",""75"",""436838""
","
","
","""event"",""trial"",""time""
""fullscreenenter"",""0"",""1172""
","""event"",""trial"",""time""
""fullscreenexit"",""75"",""436838""
","357.7000000476837","","","","","","","","50","0,0,0","0","highway","14","probe-138","0.6666915499901898","0.3430796803313666","0.3339876633546215","0","","","","","","","",""
"","html-keyboard-response","125","629046","0.0-72.0-1.0","""event"",""trial"",""time""
""fullscreenenter"",""0"",""1172""
""fullscreenexit"",""75"",""436838""
","
","
","""event"",""trial"",""time""
""fullscreenenter"",""0"",""1172""
","""event"",""trial"",""time""
""fullscreenexit"",""75"",""436838""
","null","<p></p>","null","","","","","","","","","","","","","","","","","","","","","","",""
"","do_trial","126","633964","0.0-73.0-0.0","""event"",""trial"",""time""
""fullscreenenter"",""0"",""1172""
""fullscreenexit"",""75"",""436838""
","
","
","""event"",""trial"",""time""
""fullscreenenter"",""0"",""1172""
","""event"",""trial"",""time""
""fullscreenexit"",""75"",""436838""
","382.40000009536743","","","","","","","","49","1,0,0","0","highway","15","probe-143","0.6375638272529529","0.3339547553344665","0.2990788387932265","1","","","","","","","",""
"","html-keyboard-response","127","634967","0.0-73.0-1.0","""event"",""trial"",""time""
""fullscreenenter"",""0"",""1172""
""fullscreenexit"",""75"",""436838""
","
","
","""event"",""trial"",""time""
""fullscreenenter"",""0"",""1172""
","""event"",""trial"",""time""
""fullscreenexit"",""75"",""436838""
","null","<p></p>","null","","","","","","","","","","","","","","","","","","","","","","",""
"","do_trial","128","639831","0.0-74.0-0.0","""event"",""trial"",""time""
""fullscreenenter"",""0"",""1172""
""fullscreenexit"",""75"",""436838""
","
","
","""event"",""trial"",""time""
""fullscreenenter"",""0"",""1172""
","""event"",""trial"",""time""
""fullscreenexit"",""75"",""436838""
","333.90000009536743","","","","","","","","49","0,1,0","0","highway","16","probe-38","0.6324911443568934","0.36161474146734807","0.26487576808536917","0","","","","","","","",""
"","html-keyboard-response","129","640834","0.0-74.0-1.0","""event"",""trial"",""time""
""fullscreenenter"",""0"",""1172""
""fullscreenexit"",""75"",""436838""
","
","
","""event"",""trial"",""time""
""fullscreenenter"",""0"",""1172""
","""event"",""trial"",""time""
""fullscreenexit"",""75"",""436838""
","null","<p></p>","null","","","","","","","","","","","","","","","","","","","","","","",""
"","do_trial","130","646021","0.0-75.0-0.0","""event"",""trial"",""time""
""fullscreenenter"",""0"",""1172""
""fullscreenexit"",""75"",""436838""
","
","
","""event"",""trial"",""time""
""fullscreenenter"",""0"",""1172""
","""event"",""trial"",""time""
""fullscreenexit"",""75"",""436838""
","654.4000000953674","","","","","","","","49","1,0,0","0","highway","17","probe-14","0.7319931199358878","0.3826877809607913","0.2652911827842786","1","","","","","","","",""
"","html-keyboard-response","131","647024","0.0-75.0-1.0","""event"",""trial"",""time""
""fullscreenenter"",""0"",""1172""
""fullscreenexit"",""75"",""436838""
","
","
","""event"",""trial"",""time""
""fullscreenenter"",""0"",""1172""
","""event"",""trial"",""time""
""fullscreenexit"",""75"",""436838""
","null","<p></p>","null","","","","","","","","","","","","","","","","","","","","","","",""
"","do_trial","132","652008","0.0-76.0-0.0","""event"",""trial"",""time""
""fullscreenenter"",""0"",""1172""
""fullscreenexit"",""75"",""436838""
","
","
","""event"",""trial"",""time""
""fullscreenenter"",""0"",""1172""
","""event"",""trial"",""time""
""fullscreenexit"",""75"",""436838""
","449.2999999523163","","","","","","","","49","1,1,0","0","highway","18","probe-227","0.870233873463435","0.32611226204595106","0.1354247943686375","1","","","","","","","",""
"","html-keyboard-response","133","653011","0.0-76.0-1.0","""event"",""trial"",""time""
""fullscreenenter"",""0"",""1172""
""fullscreenexit"",""75"",""436838""
","
","
","""event"",""trial"",""time""
""fullscreenenter"",""0"",""1172""
","""event"",""trial"",""time""
""fullscreenexit"",""75"",""436838""
","null","<p></p>","null","","","","","","","","","","","","","","","","","","","","","","",""
"","do_trial","134","657881","0.0-77.0-0.0","""event"",""trial"",""time""
""fullscreenenter"",""0"",""1172""
""fullscreenexit"",""75"",""436838""
","
","
","""event"",""trial"",""time""
""fullscreenenter"",""0"",""1172""
","""event"",""trial"",""time""
""fullscreenexit"",""75"",""436838""
","334.80000019073486","","","","","","","","49","1,0,0","0","highway","19","probe-37","0.6913763471806774","0.2112174711518136","0.058775133535762976","1","","","","","","","",""
"","html-keyboard-response","135","658884","0.0-77.0-1.0","""event"",""trial"",""time""
""fullscreenenter"",""0"",""1172""
""fullscreenexit"",""75"",""436838""
","
","
","""event"",""trial"",""time""
""fullscreenenter"",""0"",""1172""
","""event"",""trial"",""time""
""fullscreenexit"",""75"",""436838""
","null","<p></p>","null","","","","","","","","","","","","","","","","","","","","","","",""
"","do_trial","136","664593","0.0-78.0-0.0","""event"",""trial"",""time""
""fullscreenenter"",""0"",""1172""
""fullscreenexit"",""75"",""436838""
","
","
","""event"",""trial"",""time""
""fullscreenenter"",""0"",""1172""
","""event"",""trial"",""time""
""fullscreenexit"",""75"",""436838""
","1178.0999999046326","","","","","","","","49","1,0,0","0","highway","20","probe-59","0.5525958146516806","0.15821776941081359","0.13295882644186588","1","","","","","","","",""
"","html-keyboard-response","137","665596","0.0-78.0-1.0","""event"",""trial"",""time""
""fullscreenenter"",""0"",""1172""
""fullscreenexit"",""75"",""436838""
","
","
","""event"",""trial"",""time""
""fullscreenenter"",""0"",""1172""
","""event"",""trial"",""time""
""fullscreenexit"",""75"",""436838""
","null","<p></p>","null","","","","","","","","","","","","","","","","","","","","","","",""
"","do_trial","138","670500","0.0-79.0-0.0","""event"",""trial"",""time""
""fullscreenenter"",""0"",""1172""
""fullscreenexit"",""75"",""436838""
","
","
","""event"",""trial"",""time""
""fullscreenenter"",""0"",""1172""
","""event"",""trial"",""time""
""fullscreenexit"",""75"",""436838""
","373.09999990463257","","","","","","","","49","1,0,0","0","highway","21","probe-216","0.6721585633893276","0.23835261766064267","0.09393083846898709","1","","","","","","","",""
"","html-keyboard-response","139","671503","0.0-79.0-1.0","""event"",""trial"",""time""
""fullscreenenter"",""0"",""1172""
""fullscreenexit"",""75"",""436838""
","
","
","""event"",""trial"",""time""
""fullscreenenter"",""0"",""1172""
","""event"",""trial"",""time""
""fullscreenexit"",""75"",""436838""
","null","<p></p>","null","","","","","","","","","","","","","","","","","","","","","","",""
"","do_trial","140","676319","0.0-80.0-0.0","""event"",""trial"",""time""
""fullscreenenter"",""0"",""1172""
""fullscreenexit"",""75"",""436838""
","
","
","""event"",""trial"",""time""
""fullscreenenter"",""0"",""1172""
","""event"",""trial"",""time""
""fullscreenexit"",""75"",""436838""
","280.39999985694885","","","","","","","","49","1,0,0","0","highway","22","probe-181","0.6753393780948252","0.16938513798017757","0.09500504496066414","1","","","","","","","",""
"","html-keyboard-response","141","677322","0.0-80.0-1.0","""event"",""trial"",""time""
""fullscreenenter"",""0"",""1172""
""fullscreenexit"",""75"",""436838""
","
","
","""event"",""trial"",""time""
""fullscreenenter"",""0"",""1172""
","""event"",""trial"",""time""
""fullscreenexit"",""75"",""436838""
","null","<p></p>","null","","","","","","","","","","","","","","","","","","","","","","",""
"","do_trial","142","682260","0.0-81.0-0.0","""event"",""trial"",""time""
""fullscreenenter"",""0"",""1172""
""fullscreenexit"",""75"",""436838""
","
","
","""event"",""trial"",""time""
""fullscreenenter"",""0"",""1172""
","""event"",""trial"",""time""
""fullscreenexit"",""75"",""436838""
","403.5","","","","","","","","49","0,1,0","0","highway","23","probe-175","0.6837696447853727","0.24733050465198575","0.07247294389488369","0","","","","","","","",""
"","html-keyboard-response","143","683263","0.0-81.0-1.0","""event"",""trial"",""time""
""fullscreenenter"",""0"",""1172""
""fullscreenexit"",""75"",""436838""
","
","
","""event"",""trial"",""time""
""fullscreenenter"",""0"",""1172""
","""event"",""trial"",""time""
""fullscreenexit"",""75"",""436838""
","null","<p></p>","null","","","","","","","","","","","","","","","","","","","","","","",""
"","do_trial","144","688267","0.0-82.0-0.0","""event"",""trial"",""time""
""fullscreenenter"",""0"",""1172""
""fullscreenexit"",""75"",""436838""
","
","
","""event"",""trial"",""time""
""fullscreenenter"",""0"",""1172""
","""event"",""trial"",""time""
""fullscreenexit"",""75"",""436838""
","469.2000000476837","","","","","","","","49","0,0,0","0","highway","24","probe-177","0.6606928713572537","0.2213711993684065","0.19320076831034172","0","","","","","","","",""
"","html-keyboard-response","145","689270","0.0-82.0-1.0","""event"",""trial"",""time""
""fullscreenenter"",""0"",""1172""
""fullscreenexit"",""75"",""436838""
","
","
","""event"",""trial"",""time""
""fullscreenenter"",""0"",""1172""
","""event"",""trial"",""time""
""fullscreenexit"",""75"",""436838""
","null","<p></p>","null","","","","","","","","","","","","","","","","","","","","","","",""
"","do_trial","146","694295","0.0-83.0-0.0","""event"",""trial"",""time""
""fullscreenenter"",""0"",""1172""
""fullscreenexit"",""75"",""436838""
","
","
","""event"",""trial"",""time""
""fullscreenenter"",""0"",""1172""
","""event"",""trial"",""time""
""fullscreenexit"",""75"",""436838""
","491.89999985694885","","","","","","","","49","1,0,0","0","highway","25","probe-113","0.6589165460782473","0.29165032756009013","0.21532013290209606","1","","","","","","","",""
"","html-keyboard-response","147","695300","0.0-83.0-1.0","""event"",""trial"",""time""
""fullscreenenter"",""0"",""1172""
""fullscreenexit"",""75"",""436838""
","
","
","""event"",""trial"",""time""
""fullscreenenter"",""0"",""1172""
","""event"",""trial"",""time""
""fullscreenexit"",""75"",""436838""
","null","<p></p>","null","","","","","","","","","","","","","","","","","","","","","","",""
"","do_trial","148","700158","0.0-84.0-0.0","""event"",""trial"",""time""
""fullscreenenter"",""0"",""1172""
""fullscreenexit"",""75"",""436838""
","
","
","""event"",""trial"",""time""
""fullscreenenter"",""0"",""1172""
","""event"",""trial"",""time""
""fullscreenexit"",""75"",""436838""
","323.2000000476837","","","","","","","","49","0,0,0","0","highway","26","probe-224","0.6243560273666313","0.10426713644362089","0.16185984984826654","0","","","","","","","",""
"","html-keyboard-response","149","701165","0.0-84.0-1.0","""event"",""trial"",""time""
""fullscreenenter"",""0"",""1172""
""fullscreenexit"",""75"",""436838""
","
","
","""event"",""trial"",""time""
""fullscreenenter"",""0"",""1172""
","""event"",""trial"",""time""
""fullscreenexit"",""75"",""436838""
","null","<p></p>","null","","","","","","","","","","","","","","","","","","","","","","",""
"","do_trial","150","706391","0.0-85.0-0.0","""event"",""trial"",""time""
""fullscreenenter"",""0"",""1172""
""fullscreenexit"",""75"",""436838""
","
","
","""event"",""trial"",""time""
""fullscreenenter"",""0"",""1172""
","""event"",""trial"",""time""
""fullscreenexit"",""75"",""436838""
","688.5999999046326","","","","","","","","49","0,0,0","0","highway","27","probe-136","0.6168998362670945","0.13369012453856122","0.09488559783017182","0","","","","","","","",""
"","html-keyboard-response","151","707394","0.0-85.0-1.0","""event"",""trial"",""time""
""fullscreenenter"",""0"",""1172""
""fullscreenexit"",""75"",""436838""
","
","
","""event"",""trial"",""time""
""fullscreenenter"",""0"",""1172""
","""event"",""trial"",""time""
""fullscreenexit"",""75"",""436838""
","null","<p></p>","null","","","","","","","","","","","","","","","","","","","","","","",""
"","do_trial","152","712275","0.0-86.0-0.0","""event"",""trial"",""time""
""fullscreenenter"",""0"",""1172""
""fullscreenexit"",""75"",""436838""
","
","
","""event"",""trial"",""time""
""fullscreenenter"",""0"",""1172""
","""event"",""trial"",""time""
""fullscreenexit"",""75"",""436838""
","345.39999985694885","","","","","","","","50","1,0,0","0","highway","28","probe-54","0.6014934999689545","0.18703442337152978","0.06590820753937762","0","","","","","","","",""
"","html-keyboard-response","153","713280","0.0-86.0-1.0","""event"",""trial"",""time""
""fullscreenenter"",""0"",""1172""
""fullscreenexit"",""75"",""436838""
","
","
","""event"",""trial"",""time""
""fullscreenenter"",""0"",""1172""
","""event"",""trial"",""time""
""fullscreenexit"",""75"",""436838""
","null","<p></p>","null","","","","","","","","","","","","","","","","","","","","","","",""
"","do_trial","154","718122","0.0-87.0-0.0","""event"",""trial"",""time""
""fullscreenenter"",""0"",""1172""
""fullscreenexit"",""75"",""436838""
","
","
","""event"",""trial"",""time""
""fullscreenenter"",""0"",""1172""
","""event"",""trial"",""time""
""fullscreenexit"",""75"",""436838""
","309.7000000476837","","","","","","","","51","1,0,0","0","highway","29","probe-184","0.5517798706764573","0.14124167787201952","0.10510663823011512","0","","","","","","","",""
"","html-keyboard-response","155","719125","0.0-87.0-1.0","""event"",""trial"",""time""
""fullscreenenter"",""0"",""1172""
""fullscreenexit"",""75"",""436838""
","
","
","""event"",""trial"",""time""
""fullscreenenter"",""0"",""1172""
","""event"",""trial"",""time""
""fullscreenexit"",""75"",""436838""
","null","<p></p>","null","","","","","","","","","","","","","","","","","","","","","","",""
"","do_bye","156","720632","0.0-88.0-0.0","""event"",""trial"",""time""
""fullscreenenter"",""0"",""1172""
""fullscreenexit"",""75"",""436838""
","
","
","""event"",""trial"",""time""
""fullscreenenter"",""0"",""1172""
","""event"",""trial"",""time""
""fullscreenexit"",""75"",""436838""
","null","","","","","","","","null","","","","","","","","","","","","","","","","",""
"","break","157","723283","0.0-88.0-1.0","""event"",""trial"",""time""
""fullscreenenter"",""0"",""1172""
""fullscreenexit"",""75"",""436838""
","
","
","""event"",""trial"",""time""
""fullscreenenter"",""0"",""1172""
","""event"",""trial"",""time""
""fullscreenexit"",""75"",""436838""
","2650.800000190735","<div class='center'><p>Time to take a quick break! You have 2 minutes to rest, but you can move on sooner if you'd like.</p><p> Press the <b>space bar</b> to continue.</p></div>","32","","","","","","","","","","","","","","","","","","","","","","",""
"","do_travel","158","732290","0.0-89.0-0.0","""event"",""trial"",""time""
""fullscreenenter"",""0"",""1172""
""fullscreenexit"",""75"",""436838""
","
","
","""event"",""trial"",""time""
""fullscreenenter"",""0"",""1172""
","""event"",""trial"",""time""
""fullscreenexit"",""75"",""436838""
","null","","","","","","","","null","","","","","","","","","","","","","","","","",""
"","do_welcome","159","736293","0.0-89.0-1.0","""event"",""trial"",""time""
""fullscreenenter"",""0"",""1172""
""fullscreenexit"",""75"",""436838""
","
","
","""event"",""trial"",""time""
""fullscreenenter"",""0"",""1172""
","""event"",""trial"",""time""
""fullscreenexit"",""75"",""436838""
","null","","","","","","","","null","","","","","","","","","","","","","","","","",""
"","do_trial","160","741711","0.0-90.0-0.0","""event"",""trial"",""time""
""fullscreenenter"",""0"",""1172""
""fullscreenexit"",""75"",""436838""
","
","
","""event"",""trial"",""time""
""fullscreenenter"",""0"",""1172""
","""event"",""trial"",""time""
""fullscreenexit"",""75"",""436838""
","888.2000000476837","","","","","","","","49","1,0,0","1","mountain","30","probe-30","1","0.05560154513542994","0.0781803825446394","1","","","","","","","",""
"","html-keyboard-response","161","742714","0.0-90.0-1.0","""event"",""trial"",""time""
""fullscreenenter"",""0"",""1172""
""fullscreenexit"",""75"",""436838""
","
","
","""event"",""trial"",""time""
""fullscreenenter"",""0"",""1172""
","""event"",""trial"",""time""
""fullscreenexit"",""75"",""436838""
","null","<p></p>","null","","","","","","","","","","","","","","","","","","","","","","",""
"","do_trial","162","747678","0.0-91.0-0.0","""event"",""trial"",""time""
""fullscreenenter"",""0"",""1172""
""fullscreenexit"",""75"",""436838""
","
","
","""event"",""trial"",""time""
""fullscreenenter"",""0"",""1172""
","""event"",""trial"",""time""
""fullscreenexit"",""75"",""436838""
","429","","","","","","","","50","1,0,0","1","mountain","31","probe-203","1","0.12278984353752012","0.18193385757380084","0","","","","","","","",""
"","html-keyboard-response","163","748680","0.0-91.0-1.0","""event"",""trial"",""time""
""fullscreenenter"",""0"",""1172""
""fullscreenexit"",""75"",""436838""
","
","
","""event"",""trial"",""time""
""fullscreenenter"",""0"",""1172""
","""event"",""trial"",""time""
""fullscreenexit"",""75"",""436838""
","null","<p></p>","null","","","","","","","","","","","","","","","","","","","","","","",""
"","do_trial","164","753591","0.0-92.0-0.0","""event"",""trial"",""time""
""fullscreenenter"",""0"",""1172""
""fullscreenexit"",""75"",""436838""
","
","
","""event"",""trial"",""time""
""fullscreenenter"",""0"",""1172""
","""event"",""trial"",""time""
""fullscreenexit"",""75"",""436838""
","381","","","","","","","","51","1,0,0","1","mountain","32","probe-147","1","0.35767964179467043","0.22171671548496105","0","","","","","","","",""
"","html-keyboard-response","165","754597","0.0-92.0-1.0","""event"",""trial"",""time""
""fullscreenenter"",""0"",""1172""
""fullscreenexit"",""75"",""436838""
","
","
","""event"",""trial"",""time""
""fullscreenenter"",""0"",""1172""
","""event"",""trial"",""time""
""fullscreenexit"",""75"",""436838""
","null","<p></p>","null","","","","","","","","","","","","","","","","","","","","","","",""
"","do_trial","166","759441","0.0-93.0-0.0","""event"",""trial"",""time""
""fullscreenenter"",""0"",""1172""
""fullscreenexit"",""75"",""436838""
","
","
","""event"",""trial"",""time""
""fullscreenenter"",""0"",""1172""
","""event"",""trial"",""time""
""fullscreenexit"",""75"",""436838""
","313.5","","","","","","","","49","1,0,0","1","mountain","33","probe-205","0.9350100307381694","0.29390588069937973","0.20850056645773937","1","","","","","","","",""
"","html-keyboard-response","167","760444","0.0-93.0-1.0","""event"",""trial"",""time""
""fullscreenenter"",""0"",""1172""
""fullscreenexit"",""75"",""436838""
","
","
","""event"",""trial"",""time""
""fullscreenenter"",""0"",""1172""
","""event"",""trial"",""time""
""fullscreenexit"",""75"",""436838""
","null","<p></p>","null","","","","","","","","","","","","","","","","","","","","","","",""
"","do_trial","168","765302","0.0-94.0-0.0","""event"",""trial"",""time""
""fullscreenenter"",""0"",""1172""
""fullscreenexit"",""75"",""436838""
","
","
","""event"",""trial"",""time""
""fullscreenenter"",""0"",""1172""
","""event"",""trial"",""time""
""fullscreenexit"",""75"",""436838""
","327.5","","","","","","","","49","1,1,0","1","mountain","34","probe-36","0.7390813996189043","0.2963759902203968","0.0514288972291774","1","","","","","","","",""
"","html-keyboard-response","169","766305","0.0-94.0-1.0","""event"",""trial"",""time""
""fullscreenenter"",""0"",""1172""
""fullscreenexit"",""75"",""436838""
","
","
","""event"",""trial"",""time""
""fullscreenenter"",""0"",""1172""
","""event"",""trial"",""time""
""fullscreenexit"",""75"",""436838""
","null","<p></p>","null","","","","","","","","","","","","","","","","","","","","","","",""
"","do_trial","170","771141","0.0-95.0-0.0","""event"",""trial"",""time""
""fullscreenenter"",""0"",""1172""
""fullscreenexit"",""75"",""436838""
","
","
","""event"",""trial"",""time""
""fullscreenenter"",""0"",""1172""
","""event"",""trial"",""time""
""fullscreenexit"",""75"",""436838""
","305.7999999523163","","","","","","","","50","1,1,0","1","mountain","35","probe-82","0.8812998827773183","0.3197422425969822","0.10865469580705839","1","","","","","","","",""
"","html-keyboard-response","171","772144","0.0-95.0-1.0","""event"",""trial"",""time""
""fullscreenenter"",""0"",""1172""
""fullscreenexit"",""75"",""436838""
","
","
","""event"",""trial"",""time""
""fullscreenenter"",""0"",""1172""
","""event"",""trial"",""time""
""fullscreenexit"",""75"",""436838""
","null","<p></p>","null","","","","","","","","","","","","","","","","","","","","","","",""
"","do_trial","172","777082","0.0-96.0-0.0","""event"",""trial"",""time""
""fullscreenenter"",""0"",""1172""
""fullscreenexit"",""75"",""436838""
","
","
","""event"",""trial"",""time""
""fullscreenenter"",""0"",""1172""
","""event"",""trial"",""time""
""fullscreenexit"",""75"",""436838""
","407.39999985694885","","","","","","","","51","1,1,0","1","mountain","36","probe-174","0.9101694734470991","0.3588935220670572","0.054973720796490946","0","","","","","","","",""
"","html-keyboard-response","173","778085","0.0-96.0-1.0","""event"",""trial"",""time""
""fullscreenenter"",""0"",""1172""
""fullscreenexit"",""75"",""436838""
","
","
","""event"",""trial"",""time""
""fullscreenenter"",""0"",""1172""
","""event"",""trial"",""time""
""fullscreenexit"",""75"",""436838""
","null","<p></p>","null","","","","","","","","","","","","","","","","","","","","","","",""
"","do_trial","174","782958","0.0-97.0-0.0","""event"",""trial"",""time""
""fullscreenenter"",""0"",""1172""
""fullscreenexit"",""75"",""436838""
","
","
","""event"",""trial"",""time""
""fullscreenenter"",""0"",""1172""
","""event"",""trial"",""time""
""fullscreenexit"",""75"",""436838""
","338.7999999523163","","","","","","","","50","0,1,0","1","mountain","37","probe-220","0.8458218525170252","0.4410577953474551","0.09883450295763141","1","","","","","","","",""
"","html-keyboard-response","175","783963","0.0-97.0-1.0","""event"",""trial"",""time""
""fullscreenenter"",""0"",""1172""
""fullscreenexit"",""75"",""436838""
","
","
","""event"",""trial"",""time""
""fullscreenenter"",""0"",""1172""
","""event"",""trial"",""time""
""fullscreenexit"",""75"",""436838""
","null","<p></p>","null","","","","","","","","","","","","","","","","","","","","","","",""
"","do_trial","176","788865","0.0-98.0-0.0","""event"",""trial"",""time""
""fullscreenenter"",""0"",""1172""
""fullscreenexit"",""75"",""436838""
","
","
","""event"",""trial"",""time""
""fullscreenenter"",""0"",""1172""
","""event"",""trial"",""time""
""fullscreenexit"",""75"",""436838""
","366.19999980926514","","","","","","","","50","1,0,0","1","mountain","38","probe-93","0.8285867693479719","0.5414210953262009","0.06457306289195565","0","","","","","","","",""
"","html-keyboard-response","177","789868","0.0-98.0-1.0","""event"",""trial"",""time""
""fullscreenenter"",""0"",""1172""
""fullscreenexit"",""75"",""436838""
","
","
","""event"",""trial"",""time""
""fullscreenenter"",""0"",""1172""
","""event"",""trial"",""time""
""fullscreenexit"",""75"",""436838""
","null","<p></p>","null","","","","","","","","","","","","","","","","","","","","","","",""
"","do_trial","178","794747","0.0-99.0-0.0","""event"",""trial"",""time""
""fullscreenenter"",""0"",""1172""
""fullscreenexit"",""75"",""436838""
","
","
","""event"",""trial"",""time""
""fullscreenenter"",""0"",""1172""
","""event"",""trial"",""time""
""fullscreenexit"",""75"",""436838""
","345.60000014305115","","","","","","","","49","0,1,0","1","mountain","39","probe-167","0.7810247051032478","0.31717980135709894","0.09417141235960536","0","","","","","","","",""
"","html-keyboard-response","179","795750","0.0-99.0-1.0","""event"",""trial"",""time""
""fullscreenenter"",""0"",""1172""
""fullscreenexit"",""75"",""436838""
","
","
","""event"",""trial"",""time""
""fullscreenenter"",""0"",""1172""
","""event"",""trial"",""time""
""fullscreenexit"",""75"",""436838""
","null","<p></p>","null","","","","","","","","","","","","","","","","","","","","","","",""
"","do_trial","180","800609","0.0-100.0-0.0","""event"",""trial"",""time""
""fullscreenenter"",""0"",""1172""
""fullscreenexit"",""75"",""436838""
","
","
","""event"",""trial"",""time""
""fullscreenenter"",""0"",""1172""
","""event"",""trial"",""time""
""fullscreenexit"",""75"",""436838""
","323.80000019073486","","","","","","","","50","1,1,1","1","mountain","40","probe-39","0.6737983172543526","0.408252030980337","0.21050150758025843","1","","","","","","","",""
"","html-keyboard-response","181","801612","0.0-100.0-1.0","""event"",""trial"",""time""
""fullscreenenter"",""0"",""1172""
""fullscreenexit"",""75"",""436838""
","
","
","""event"",""trial"",""time""
""fullscreenenter"",""0"",""1172""
","""event"",""trial"",""time""
""fullscreenexit"",""75"",""436838""
","null","<p></p>","null","","","","","","","","","","","","","","","","","","","","","","",""
"","do_trial","182","806471","0.0-101.0-0.0","""event"",""trial"",""time""
""fullscreenenter"",""0"",""1172""
""fullscreenexit"",""75"",""436838""
","
","
","""event"",""trial"",""time""
""fullscreenenter"",""0"",""1172""
","""event"",""trial"",""time""
""fullscreenexit"",""75"",""436838""
","323.7000000476837","","","","","","","","50","1,0,0","1","mountain","41","probe-61","0.526515337800153","0.2973875982595514","0.22451460894822656","0","","","","","","","",""
"","html-keyboard-response","183","807474","0.0-101.0-1.0","""event"",""trial"",""time""
""fullscreenenter"",""0"",""1172""
""fullscreenexit"",""75"",""436838""
","
","
","""event"",""trial"",""time""
""fullscreenenter"",""0"",""1172""
","""event"",""trial"",""time""
""fullscreenexit"",""75"",""436838""
","null","<p></p>","null","","","","","","","","","","","","","","","","","","","","","","",""
"","do_trial","184","812433","0.0-102.0-0.0","""event"",""trial"",""time""
""fullscreenenter"",""0"",""1172""
""fullscreenexit"",""75"",""436838""
","
","
","""event"",""trial"",""time""
""fullscreenenter"",""0"",""1172""
","""event"",""trial"",""time""
""fullscreenexit"",""75"",""436838""
","424.10000014305115","","","","","","","","49","0,0,0","1","mountain","42","probe-192","0.3072674944062231","0.4034188170539718","0.3635743651577532","0","","","","","","","",""
"","html-keyboard-response","185","813436","0.0-102.0-1.0","""event"",""trial"",""time""
""fullscreenenter"",""0"",""1172""
""fullscreenexit"",""75"",""436838""
","
","
","""event"",""trial"",""time""
""fullscreenenter"",""0"",""1172""
","""event"",""trial"",""time""
""fullscreenexit"",""75"",""436838""
","null","<p></p>","null","","","","","","","","","","","","","","","","","","","","","","",""
"","do_trial","186","818246","0.0-103.0-0.0","""event"",""trial"",""time""
""fullscreenenter"",""0"",""1172""
""fullscreenexit"",""75"",""436838""
","
","
","""event"",""trial"",""time""
""fullscreenenter"",""0"",""1172""
","""event"",""trial"",""time""
""fullscreenexit"",""75"",""436838""
","279","","","","","","","","51","0,0,0","1","mountain","43","probe-79","0.19111736733444987","0.526905456037861","0.42655946871396133","0","","","","","","","",""
"","html-keyboard-response","187","819249","0.0-103.0-1.0","""event"",""trial"",""time""
""fullscreenenter"",""0"",""1172""
""fullscreenexit"",""75"",""436838""
","
","
","""event"",""trial"",""time""
""fullscreenenter"",""0"",""1172""
","""event"",""trial"",""time""
""fullscreenexit"",""75"",""436838""
","null","<p></p>","null","","","","","","","","","","","","","","","","","","","","","","",""
"","do_trial","188","824321","0.0-104.0-0.0","""event"",""trial"",""time""
""fullscreenenter"",""0"",""1172""
""fullscreenexit"",""75"",""436838""
","
","
","""event"",""trial"",""time""
""fullscreenenter"",""0"",""1172""
","""event"",""trial"",""time""
""fullscreenexit"",""75"",""436838""
","540.9000000953674","","","","","","","","50","0,1,1","1","mountain","44","probe-156","0.07053425209826596","0.3716256784714722","0.5133724165177954","1","","","","","","","",""
"","html-keyboard-response","189","825324","0.0-104.0-1.0","""event"",""trial"",""time""
""fullscreenenter"",""0"",""1172""
""fullscreenexit"",""75"",""436838""
","
","
","""event"",""trial"",""time""
""fullscreenenter"",""0"",""1172""
","""event"",""trial"",""time""
""fullscreenexit"",""75"",""436838""
","null","<p></p>","null","","","","","","","","","","","","","","","","","","","","","","",""
"","do_trial","190","830231","0.0-105.0-0.0","""event"",""trial"",""time""
""fullscreenenter"",""0"",""1172""
""fullscreenexit"",""75"",""436838""
","
","
","""event"",""trial"",""time""
""fullscreenenter"",""0"",""1172""
","""event"",""trial"",""time""
""fullscreenexit"",""75"",""436838""
","371.90000009536743","","","","","","","","50","0,0,0","1","mountain","45","probe-32","0.12306788259122836","0.38412146429363103","0.47483611015572436","0","","","","","","","",""
"","html-keyboard-response","191","831234","0.0-105.0-1.0","""event"",""trial"",""time""
""fullscreenenter"",""0"",""1172""
""fullscreenexit"",""75"",""436838""
","
","
","""event"",""trial"",""time""
""fullscreenenter"",""0"",""1172""
","""event"",""trial"",""time""
""fullscreenexit"",""75"",""436838""
","null","<p></p>","null","","","","","","","","","","","","","","","","","","","","","","",""
"","do_trial","192","836057","0.0-106.0-0.0","""event"",""trial"",""time""
""fullscreenenter"",""0"",""1172""
""fullscreenexit"",""75"",""436838""
","
","
","""event"",""trial"",""time""
""fullscreenenter"",""0"",""1172""
","""event"",""trial"",""time""
""fullscreenexit"",""75"",""436838""
","289.39999985694885","","","","","","","","49","0,0,0","1","mountain","46","probe-112","0.1435897951379302","0.25399642982486476","0.40057246012865977","0","","","","","","","",""
"","html-keyboard-response","193","837060","0.0-106.0-1.0","""event"",""trial"",""time""
""fullscreenenter"",""0"",""1172""
""fullscreenexit"",""75"",""436838""
","
","
","""event"",""trial"",""time""
""fullscreenenter"",""0"",""1172""
","""event"",""trial"",""time""
""fullscreenexit"",""75"",""436838""
","null","<p></p>","null","","","","","","","","","","","","","","","","","","","","","","",""
"","do_trial","194","842008","0.0-107.0-0.0","""event"",""trial"",""time""
""fullscreenenter"",""0"",""1172""
""fullscreenexit"",""75"",""436838""
","
","
","""event"",""trial"",""time""
""fullscreenenter"",""0"",""1172""
","""event"",""trial"",""time""
""fullscreenexit"",""75"",""436838""
","415.09999990463257","","","","","","","","50","0,1,1","1","mountain","47","probe-80","0.12263737563481933","0.3110168399614709","0.5914416842811246","1","","","","","","","",""
"","html-keyboard-response","195","843011","0.0-107.0-1.0","""event"",""trial"",""time""
""fullscreenenter"",""0"",""1172""
""fullscreenexit"",""75"",""436838""
","
","
","""event"",""trial"",""time""
""fullscreenenter"",""0"",""1172""
","""event"",""trial"",""time""
""fullscreenexit"",""75"",""436838""
","null","<p></p>","null","","","","","","","","","","","","","","","","","","","","","","",""
"","do_trial","196","848186","0.0-108.0-0.0","""event"",""trial"",""time""
""fullscreenenter"",""0"",""1172""
""fullscreenexit"",""75"",""436838""
","
","
","""event"",""trial"",""time""
""fullscreenenter"",""0"",""1172""
","""event"",""trial"",""time""
""fullscreenexit"",""75"",""436838""
","640.2999999523163","","","","","","","","50","0,0,1","1","mountain","48","probe-185","0.1261640641703222","0.29753711484270245","0.6045919612533189","0","","","","","","","",""
"","html-keyboard-response","197","849190","0.0-108.0-1.0","""event"",""trial"",""time""
""fullscreenenter"",""0"",""1172""
""fullscreenexit"",""75"",""436838""
","
","
","""event"",""trial"",""time""
""fullscreenenter"",""0"",""1172""
","""event"",""trial"",""time""
""fullscreenexit"",""75"",""436838""
","null","<p></p>","null","","","","","","","","","","","","","","","","","","","","","","",""
"","do_trial","198","854012","0.0-109.0-0.0","""event"",""trial"",""time""
""fullscreenenter"",""0"",""1172""
""fullscreenexit"",""75"",""436838""
","
","
","""event"",""trial"",""time""
""fullscreenenter"",""0"",""1172""
","""event"",""trial"",""time""
""fullscreenexit"",""75"",""436838""
","288.7999999523163","","","","","","","","49","0,1,1","1","mountain","49","probe-97","0.0972767215748405","0.34925468174389485","0.8068798119702522","0","","","","","","","",""
"","html-keyboard-response","199","855015","0.0-109.0-1.0","""event"",""trial"",""time""
""fullscreenenter"",""0"",""1172""
""fullscreenexit"",""75"",""436838""
","
","
","""event"",""trial"",""time""
""fullscreenenter"",""0"",""1172""
","""event"",""trial"",""time""
""fullscreenexit"",""75"",""436838""
","null","<p></p>","null","","","","","","","","","","","","","","","","","","","","","","",""
"","do_trial","200","859908","0.0-110.0-0.0","""event"",""trial"",""time""
""fullscreenenter"",""0"",""1172""
""fullscreenexit"",""75"",""436838""
","
","
","""event"",""trial"",""time""
""fullscreenenter"",""0"",""1172""
","""event"",""trial"",""time""
""fullscreenexit"",""75"",""436838""
","358.7000000476837","","","","","","","","50","0,1,1","1","mountain","50","probe-95","0.06150147802822563","0.41041222741435224","0.8517055006933484","1","","","","","","","",""
"","html-keyboard-response","201","860911","0.0-110.0-1.0","""event"",""trial"",""time""
""fullscreenenter"",""0"",""1172""
""fullscreenexit"",""75"",""436838""
","
","
","""event"",""trial"",""time""
""fullscreenenter"",""0"",""1172""
","""event"",""trial"",""time""
""fullscreenexit"",""75"",""436838""
","null","<p></p>","null","","","","","","","","","","","","","","","","","","","","","","",""
"","do_trial","202","865758","0.0-111.0-0.0","""event"",""trial"",""time""
""fullscreenenter"",""0"",""1172""
""fullscreenexit"",""75"",""436838""
","
","
","""event"",""trial"",""time""
""fullscreenenter"",""0"",""1172""
","""event"",""trial"",""time""
""fullscreenexit"",""75"",""436838""
","312.2000000476837","","","","","","","","50","1,1,0","1","mountain","51","probe-09","0.10370296691358874","0.3872594806554838","0.6849533739925195","1","","","","","","","",""
"","html-keyboard-response","203","866761","0.0-111.0-1.0","""event"",""trial"",""time""
""fullscreenenter"",""0"",""1172""
""fullscreenexit"",""75"",""436838""
","
","
","""event"",""trial"",""time""
""fullscreenenter"",""0"",""1172""
","""event"",""trial"",""time""
""fullscreenexit"",""75"",""436838""
","null","<p></p>","null","","","","","","","","","","","","","","","","","","","","","","",""
"","do_trial","204","871822","0.0-112.0-0.0","""event"",""trial"",""time""
""fullscreenenter"",""0"",""1172""
""fullscreenexit"",""75"",""436838""
","
","
","""event"",""trial"",""time""
""fullscreenenter"",""0"",""1172""
","""event"",""trial"",""time""
""fullscreenexit"",""75"",""436838""
","525.9000000953674","","","","","","","","50","0,0,1","1","mountain","52","probe-164","0.08731429096179756","0.23513630155612725","0.8596930263844169","0","","","","","","","",""
"","html-keyboard-response","205","872824","0.0-112.0-1.0","""event"",""trial"",""time""
""fullscreenenter"",""0"",""1172""
""fullscreenexit"",""75"",""436838""
","
","
","""event"",""trial"",""time""
""fullscreenenter"",""0"",""1172""
","""event"",""trial"",""time""
""fullscreenexit"",""75"",""436838""
","null","<p></p>","null","","","","","","","","","","","","","","","","","","","","","","",""
"","do_trial","206","877796","0.0-113.0-0.0","""event"",""trial"",""time""
""fullscreenenter"",""0"",""1172""
""fullscreenexit"",""75"",""436838""
","
","
","""event"",""trial"",""time""
""fullscreenenter"",""0"",""1172""
","""event"",""trial"",""time""
""fullscreenexit"",""75"",""436838""
","437.2000000476837","","","","","","","","49","0,1,1","1","mountain","53","probe-56","0.13405428126478736","0.2701084964391502","0.7892193959399961","0","","","","","","","",""
"","html-keyboard-response","207","878799","0.0-113.0-1.0","""event"",""trial"",""time""
""fullscreenenter"",""0"",""1172""
""fullscreenexit"",""75"",""436838""
","
","
","""event"",""trial"",""time""
""fullscreenenter"",""0"",""1172""
","""event"",""trial"",""time""
""fullscreenexit"",""75"",""436838""
","null","<p></p>","null","","","","","","","","","","","","","","","","","","","","","","",""
"","do_trial","208","883814","0.0-114.0-0.0","""event"",""trial"",""time""
""fullscreenenter"",""0"",""1172""
""fullscreenexit"",""75"",""436838""
","
","
","""event"",""trial"",""time""
""fullscreenenter"",""0"",""1172""
","""event"",""trial"",""time""
""fullscreenexit"",""75"",""436838""
","480.80000019073486","","","","","","","","50","0,1,0","1","mountain","54","probe-13","0.05140375829831565","0.326092674756247","0.6825412716705879","1","","","","","","","",""
"","html-keyboard-response","209","884817","0.0-114.0-1.0","""event"",""trial"",""time""
""fullscreenenter"",""0"",""1172""
""fullscreenexit"",""75"",""436838""
","
","
","""event"",""trial"",""time""
""fullscreenenter"",""0"",""1172""
","""event"",""trial"",""time""
""fullscreenexit"",""75"",""436838""
","null","<p></p>","null","","","","","","","","","","","","","","","","","","","","","","",""
"","do_trial","210","889822","0.0-115.0-0.0","""event"",""trial"",""time""
""fullscreenenter"",""0"",""1172""
""fullscreenexit"",""75"",""436838""
","
","
","""event"",""trial"",""time""
""fullscreenenter"",""0"",""1172""
","""event"",""trial"",""time""
""fullscreenexit"",""75"",""436838""
","471","","","","","","","","50","0,1,1","1","mountain","55","probe-128","0.0824808009637944","0.27062588596804504","0.6886736650709293","1","","","","","","","",""
"","html-keyboard-response","211","890826","0.0-115.0-1.0","""event"",""trial"",""time""
""fullscreenenter"",""0"",""1172""
""fullscreenexit"",""75"",""436838""
","
","
","""event"",""trial"",""time""
""fullscreenenter"",""0"",""1172""
","""event"",""trial"",""time""
""fullscreenexit"",""75"",""436838""
","null","<p></p>","null","","","","","","","","","","","","","","","","","","","","","","",""
"","do_trial","212","895796","0.0-116.0-0.0","""event"",""trial"",""time""
""fullscreenenter"",""0"",""1172""
""fullscreenexit"",""75"",""436838""
","
","
","""event"",""trial"",""time""
""fullscreenenter"",""0"",""1172""
","""event"",""trial"",""time""
""fullscreenexit"",""75"",""436838""
","435.09999990463257","","","","","","","","50","0,0,1","1","mountain","56","probe-129","0.1528739968281073","0.25702064340773634","0.6362825911377852","0","","","","","","","",""
"","html-keyboard-response","213","896801","0.0-116.0-1.0","""event"",""trial"",""time""
""fullscreenenter"",""0"",""1172""
""fullscreenexit"",""75"",""436838""
","
","
","""event"",""trial"",""time""
""fullscreenenter"",""0"",""1172""
","""event"",""trial"",""time""
""fullscreenexit"",""75"",""436838""
","null","<p></p>","null","","","","","","","","","","","","","","","","","","","","","","",""
"","do_trial","214","901939","0.0-117.0-0.0","""event"",""trial"",""time""
""fullscreenenter"",""0"",""1172""
""fullscreenexit"",""75"",""436838""
","
","
","""event"",""trial"",""time""
""fullscreenenter"",""0"",""1172""
","""event"",""trial"",""time""
""fullscreenexit"",""75"",""436838""
","602.0999999046326","","","","","","","","50","0,0,1","1","mountain","57","probe-92","0.15150654585505746","0.35087108531704836","0.8104999975576983","0","","","","","","","",""
"","html-keyboard-response","215","902942","0.0-117.0-1.0","""event"",""trial"",""time""
""fullscreenenter"",""0"",""1172""
""fullscreenexit"",""75"",""436838""
","
","
","""event"",""trial"",""time""
""fullscreenenter"",""0"",""1172""
","""event"",""trial"",""time""
""fullscreenexit"",""75"",""436838""
","null","<p></p>","null","","","","","","","","","","","","","","","","","","","","","","",""
"","do_trial","216","908104","0.0-118.0-0.0","""event"",""trial"",""time""
""fullscreenenter"",""0"",""1172""
""fullscreenexit"",""75"",""436838""
","
","
","""event"",""trial"",""time""
""fullscreenenter"",""0"",""1172""
","""event"",""trial"",""time""
""fullscreenexit"",""75"",""436838""
","627.2999999523163","","","","","","","","49","1,1,0","1","mountain","58","probe-118","0.21727580655837614","0.18673920944958014","0.534568086341311","1","","","","","","","",""
"","html-keyboard-response","217","909109","0.0-118.0-1.0","""event"",""trial"",""time""
""fullscreenenter"",""0"",""1172""
""fullscreenexit"",""75"",""436838""
","
","
","""event"",""trial"",""time""
""fullscreenenter"",""0"",""1172""
","""event"",""trial"",""time""
""fullscreenexit"",""75"",""436838""
","null","<p></p>","null","","","","","","","","","","","","","","","","","","","","","","",""
"","do_trial","218","913987","0.0-119.0-0.0","""event"",""trial"",""time""
