"success","trial_type","trial_index","time_elapsed","internal_node_id","interactions","blur_events","focus_events","fullscreenenter_events","fullscreenexit_events","rt","stimulus","key_press","subject_id","participant_id","age","gender","prompt","response","choice_outcomes","context_n","context_img_id","trial_n","probe_img_id","pR_red","pR_white","pR_black","outcome"
"true","fullscreen","0","5134","0.0-0.0","""event"",""trial"",""time""
""focus"",""0"",""0""
""fullscreenenter"",""0"",""4401""
","
","""event"",""trial"",""time""
""focus"",""0"",""0""
","""event"",""trial"",""time""
""fullscreenenter"",""0"",""4401""
","
","","","","","","","","","","","","","","","","","",""
"","pavlovia","1","5137","0.0-1.0","""event"",""trial"",""time""
""focus"",""0"",""0""
""fullscreenenter"",""0"",""4401""
""blur"",""2"",""12502""
""focus"",""2"",""12851""
""fullscreenexit"",""2"",""12865""
""blur"",""2"",""50159""
","""event"",""trial"",""time""
""blur"",""2"",""12502""
""blur"",""2"",""50159""
","""event"",""trial"",""time""
""focus"",""0"",""0""
""focus"",""2"",""12851""
","""event"",""trial"",""time""
""fullscreenenter"",""0"",""4401""
","""event"",""trial"",""time""
""fullscreenexit"",""2"",""12865""
","","","","","","","","","","","","","","","","","",""
"","instruc1","2","50259","0.0-2.0","""event"",""trial"",""time""
""focus"",""0"",""0""
""fullscreenenter"",""0"",""4401""
""blur"",""2"",""12502""
""focus"",""2"",""12851""
""fullscreenexit"",""2"",""12865""
""blur"",""2"",""50159""
""focus"",""3"",""51581""
","""event"",""trial"",""time""
""blur"",""2"",""12502""
""blur"",""2"",""50159""
","""event"",""trial"",""time""
""focus"",""0"",""0""
""focus"",""2"",""12851""
""focus"",""3"",""51581""
","""event"",""trial"",""time""
""fullscreenenter"",""0"",""4401""
","""event"",""trial"",""time""
""fullscreenexit"",""2"",""12865""
","null","run_exp/static/audio/clip_1_welcome.m4a","null","","","","","<div class='center'><p>Welcome! This is the first part of the study. It will last ~30 minutes. In part 1 and part 2 of the study, you are the head captain of a pirate ship traveling around the world to different islands. You will play a few different games throughout these two parts. Here is an overview of them:</p><br><p>Part 1 (today)</p><p>1. Instructions, practice game, and quiz</p><p>2. Pick a pirate game on 6 different islands</p><br><p>Part 2 (tomorrow)</p><p>3. Pick a pirate game and memory game</p><p>4. Where did you see this ship? </p></div>","","","","","","","","","",""
"","html-keyboard-response","3","52748","0.0-3.0","""event"",""trial"",""time""
""focus"",""0"",""0""
""fullscreenenter"",""0"",""4401""
""blur"",""2"",""12502""
""focus"",""2"",""12851""
""fullscreenexit"",""2"",""12865""
""blur"",""2"",""50159""
""focus"",""3"",""51581""
""blur"",""4"",""54521""
","""event"",""trial"",""time""
""blur"",""2"",""12502""
""blur"",""2"",""50159""
""blur"",""4"",""54521""
","""event"",""trial"",""time""
""focus"",""0"",""0""
""focus"",""2"",""12851""
""focus"",""3"",""51581""
","""event"",""trial"",""time""
""fullscreenenter"",""0"",""4401""
","""event"",""trial"",""time""
""fullscreenexit"",""2"",""12865""
","2488","<div class='center'><p>Welcome! This is the first part of the study. It will last ~30 minutes. In part 1 and part 2 of the study, you are the head captain of a pirate ship traveling around the world to different islands. You will play a few different games throughout these two parts. Here is an overview of them:</p><br><p>Part 1 (today)</p><p>1. Instructions, practice game, and quiz</p><p>2. Pick a pirate game on 6 different islands</p><br><p>Part 2 (tomorrow)</p><p>3. Pick a pirate game and memory game</p><p>4. Where did you see this ship? </p><p><b>[Press the space bar to continue]</b></p></div>","32","","","","","","","","","","","","","","",""
"","instruc2","4","58105","0.0-4.0","""event"",""trial"",""time""
""focus"",""0"",""0""
""fullscreenenter"",""0"",""4401""
""blur"",""2"",""12502""
""focus"",""2"",""12851""
""fullscreenexit"",""2"",""12865""
""blur"",""2"",""50159""
""focus"",""3"",""51581""
""blur"",""4"",""54521""
""focus"",""5"",""254782""
","""event"",""trial"",""time""
""blur"",""2"",""12502""
""blur"",""2"",""50159""
""blur"",""4"",""54521""
","""event"",""trial"",""time""
""focus"",""0"",""0""
""focus"",""2"",""12851""
""focus"",""3"",""51581""
""focus"",""5"",""254782""
","""event"",""trial"",""time""
""fullscreenenter"",""0"",""4401""
","""event"",""trial"",""time""
""fullscreenexit"",""2"",""12865""
","null","run_exp/static/audio/clip_2_different_places.m4a","null","","","","","<div class='center'><p>Today, you’ll visit these 6 islands on your journey. You'll be able to see these islands from your ship.</p><p><img src='run_exp/static/images/contexts/all_contexts.png' height='500'></p></div>","","","","","","","","","",""
"","html-keyboard-response","5","255869","0.0-5.0","""event"",""trial"",""time""
""focus"",""0"",""0""
""fullscreenenter"",""0"",""4401""
""blur"",""2"",""12502""
""focus"",""2"",""12851""
""fullscreenexit"",""2"",""12865""
""blur"",""2"",""50159""
""focus"",""3"",""51581""
""blur"",""4"",""54521""
""focus"",""5"",""254782""
""blur"",""6"",""258679""
","""event"",""trial"",""time""
""blur"",""2"",""12502""
""blur"",""2"",""50159""
""blur"",""4"",""54521""
""blur"",""6"",""258679""
","""event"",""trial"",""time""
""focus"",""0"",""0""
""focus"",""2"",""12851""
""focus"",""3"",""51581""
""focus"",""5"",""254782""
","""event"",""trial"",""time""
""fullscreenenter"",""0"",""4401""
","""event"",""trial"",""time""
""fullscreenexit"",""2"",""12865""
","197764","<div class='center'><p>Today, you’ll visit these 6 islands on your journey. You'll be able to see these islands from your ship.</p><p><img src='run_exp/static/images/contexts/all_contexts.png' height='500'></p><p><b>[Press the space bar to continue]</b></p></div>","32","","","","","","","","","","","","","","",""
"","instruc3","6","265588","0.0-6.0","""event"",""trial"",""time""
""focus"",""0"",""0""
""fullscreenenter"",""0"",""4401""
""blur"",""2"",""12502""
""focus"",""2"",""12851""
""fullscreenexit"",""2"",""12865""
""blur"",""2"",""50159""
""focus"",""3"",""51581""
""blur"",""4"",""54521""
""focus"",""5"",""254782""
""blur"",""6"",""258679""
""focus"",""7"",""268226""
","""event"",""trial"",""time""
""blur"",""2"",""12502""
""blur"",""2"",""50159""
""blur"",""4"",""54521""
""blur"",""6"",""258679""
","""event"",""trial"",""time""
""focus"",""0"",""0""
""focus"",""2"",""12851""
""focus"",""3"",""51581""
""focus"",""5"",""254782""
""focus"",""7"",""268226""
","""event"",""trial"",""time""
""fullscreenenter"",""0"",""4401""
","""event"",""trial"",""time""
""fullscreenexit"",""2"",""12865""
","null","run_exp/static/audio/clip_3_goal_of_game_1.m4a","null","","","","","<div class='center'><p> The pirates on your ship will rob other ships as they leave the island.</p> These ships have just sold their goods to the islanders, so they will be filled with lots and lots of gold.</p><p><img src='run_exp/static/images/tutorial/ship_center.png' height='400'></p></div>","","","","","","","","","",""
"","html-keyboard-response","7","269343","0.0-7.0","""event"",""trial"",""time""
""focus"",""0"",""0""
""fullscreenenter"",""0"",""4401""
""blur"",""2"",""12502""
""focus"",""2"",""12851""
""fullscreenexit"",""2"",""12865""
""blur"",""2"",""50159""
""focus"",""3"",""51581""
""blur"",""4"",""54521""
""focus"",""5"",""254782""
""blur"",""6"",""258679""
""focus"",""7"",""268226""
""blur"",""8"",""292573""
","""event"",""trial"",""time""
""blur"",""2"",""12502""
""blur"",""2"",""50159""
""blur"",""4"",""54521""
""blur"",""6"",""258679""
""blur"",""8"",""292573""
","""event"",""trial"",""time""
""focus"",""0"",""0""
""focus"",""2"",""12851""
""focus"",""3"",""51581""
""focus"",""5"",""254782""
""focus"",""7"",""268226""
","""event"",""trial"",""time""
""fullscreenenter"",""0"",""4401""
","""event"",""trial"",""time""
""fullscreenexit"",""2"",""12865""
","3754","<div class='center'><p> The pirates on your ship will rob other ships as they leave the island.</p> These ships have just sold their goods to the islanders, so they will be filled with lots and lots of gold.</p><p><img src='run_exp/static/images/tutorial/ship_center.png' height='400'></p><p><b>[Press the space bar to continue]</b></p></div>","32","","","","","","","","","","","","","","",""
"","instruc4","8","297417","0.0-8.0","""event"",""trial"",""time""
""focus"",""0"",""0""
""fullscreenenter"",""0"",""4401""
""blur"",""2"",""12502""
""focus"",""2"",""12851""
""fullscreenexit"",""2"",""12865""
""blur"",""2"",""50159""
""focus"",""3"",""51581""
""blur"",""4"",""54521""
""focus"",""5"",""254782""
""blur"",""6"",""258679""
""focus"",""7"",""268226""
""blur"",""8"",""292573""
""focus"",""9"",""382282""
","""event"",""trial"",""time""
""blur"",""2"",""12502""
""blur"",""2"",""50159""
""blur"",""4"",""54521""
""blur"",""6"",""258679""
""blur"",""8"",""292573""
","""event"",""trial"",""time""
""focus"",""0"",""0""
""focus"",""2"",""12851""
""focus"",""3"",""51581""
""focus"",""5"",""254782""
""focus"",""7"",""268226""
""focus"",""9"",""382282""
","""event"",""trial"",""time""
""fullscreenenter"",""0"",""4401""
","""event"",""trial"",""time""
""fullscreenexit"",""2"",""12865""
","null","run_exp/static/audio/clip_4_goal_of_game_2.m4a","null","","","","","<div class='center'><p>As the head captain, you do not have to rob any ships yourself. Another pirate will be doing the robbing for you. First, you will choose a pirate to rob the next ship.</p><p><img src='run_exp/static/images/tutorial/pirates_all_crop.png' height='200'></p><p>Then, you'll see if the pirate successfully robbed the ship of their gold. If they were successful, then you'll get a stack of gold coins like this:</p><p><img src='run_exp/static/images/tutorial/reward.png' height='150'></p><p> If they were <b>not</b> successful, then you'll get no gold coins, and you'll see a big red x like this: </p><p><img src='run_exp/static/images/tutorial/reward_no.png' height='150'></p><p> How much bonus money you make is based on how many gold coins you collect.</p><div>","","","","","","","","","",""
"","html-keyboard-response","9","382853","0.0-9.0","""event"",""trial"",""time""
""focus"",""0"",""0""
""fullscreenenter"",""0"",""4401""
""blur"",""2"",""12502""
""focus"",""2"",""12851""
""fullscreenexit"",""2"",""12865""
""blur"",""2"",""50159""
""focus"",""3"",""51581""
""blur"",""4"",""54521""
""focus"",""5"",""254782""
""blur"",""6"",""258679""
""focus"",""7"",""268226""
""blur"",""8"",""292573""
""focus"",""9"",""382282""
""blur"",""10"",""384060""
""focus"",""10"",""593916""
","""event"",""trial"",""time""
""blur"",""2"",""12502""
""blur"",""2"",""50159""
""blur"",""4"",""54521""
""blur"",""6"",""258679""
""blur"",""8"",""292573""
""blur"",""10"",""384060""
","""event"",""trial"",""time""
""focus"",""0"",""0""
""focus"",""2"",""12851""
""focus"",""3"",""51581""
""focus"",""5"",""254782""
""focus"",""7"",""268226""
""focus"",""9"",""382282""
""focus"",""10"",""593916""
","""event"",""trial"",""time""
""fullscreenenter"",""0"",""4401""
","""event"",""trial"",""time""
""fullscreenexit"",""2"",""12865""
","85435","<div class='center'><p>As the head captain, you do not have to rob any ships yourself. Another pirate will be doing the robbing for you. First, you will choose a pirate to rob the next ship.</p><p><img src='run_exp/static/images/tutorial/pirates_all_crop.png' height='200'></p><p>Then, you'll see if the pirate successfully robbed the ship of their gold. If they were successful, then you'll get a stack of gold coins like this:</p><p><img src='run_exp/static/images/tutorial/reward.png' height='150'></p><p> If they were <b>not</b> successful, then you'll get no gold coins, and you'll see a big red x like this: </p><p><img src='run_exp/static/images/tutorial/reward_no.png' height='150'></p><p> How much bonus money you make is based on how many gold coins you collect.</p<p><b>[Press the space bar to continue]</b></p></div>","32","","","","","","","","","","","","","","",""
"","instruc5","10","594693","0.0-10.0","""event"",""trial"",""time""
""focus"",""0"",""0""
""fullscreenenter"",""0"",""4401""
""blur"",""2"",""12502""
""focus"",""2"",""12851""
""fullscreenexit"",""2"",""12865""
""blur"",""2"",""50159""
""focus"",""3"",""51581""
""blur"",""4"",""54521""
""focus"",""5"",""254782""
""blur"",""6"",""258679""
""focus"",""7"",""268226""
""blur"",""8"",""292573""
""focus"",""9"",""382282""
""blur"",""10"",""384060""
""focus"",""10"",""593916""
","""event"",""trial"",""time""
""blur"",""2"",""12502""
""blur"",""2"",""50159""
""blur"",""4"",""54521""
""blur"",""6"",""258679""
""blur"",""8"",""292573""
""blur"",""10"",""384060""
","""event"",""trial"",""time""
""focus"",""0"",""0""
""focus"",""2"",""12851""
""focus"",""3"",""51581""
""focus"",""5"",""254782""
""focus"",""7"",""268226""
""focus"",""9"",""382282""
""focus"",""10"",""593916""
","""event"",""trial"",""time""
""fullscreenenter"",""0"",""4401""
","""event"",""trial"",""time""
""fullscreenexit"",""2"",""12865""
","211840","run_exp/static/audio/clip_5_probabilistic.m4a","49","","","","","<div class='center'><p>Even the most skilled pirate can not rob EVERY ship.</p><p> Some ships will have very strong protections against pirate attacks.</p><p> Blue beard, here, is very, very good at robbing ships, but he won't be successful every time he tries to rob one.</p><p> You can press the <b>‘1’</b> key on the keyboard to choose him.</p><p> Try choosing him 10 times to see how often he succeeds at robbing a ship. </p><p><img src='run_exp/static/images/tutorial/blue.png' height='500'></p></div>","","","","","","","","","",""
"","html-keyboard-response","11","596198","0.0-11.0","""event"",""trial"",""time""
""focus"",""0"",""0""
""fullscreenenter"",""0"",""4401""
""blur"",""2"",""12502""
""focus"",""2"",""12851""
""fullscreenexit"",""2"",""12865""
""blur"",""2"",""50159""
""focus"",""3"",""51581""
""blur"",""4"",""54521""
""focus"",""5"",""254782""
""blur"",""6"",""258679""
""focus"",""7"",""268226""
""blur"",""8"",""292573""
""focus"",""9"",""382282""
""blur"",""10"",""384060""
""focus"",""10"",""593916""
","""event"",""trial"",""time""
""blur"",""2"",""12502""
""blur"",""2"",""50159""
""blur"",""4"",""54521""
""blur"",""6"",""258679""
""blur"",""8"",""292573""
""blur"",""10"",""384060""
","""event"",""trial"",""time""
""focus"",""0"",""0""
""focus"",""2"",""12851""
""focus"",""3"",""51581""
""focus"",""5"",""254782""
""focus"",""7"",""268226""
""focus"",""9"",""382282""
""focus"",""10"",""593916""
","""event"",""trial"",""time""
""fullscreenenter"",""0"",""4401""
","""event"",""trial"",""time""
""fullscreenexit"",""2"",""12865""
","null","<div class='center'><p><img src='run_exp/static/images/tutorial/blue_win.png' height='500'></p></div>","null","","","","","","","","","","","","","","",""
"","html-keyboard-response","12","596275","0.0-12.0","""event"",""trial"",""time""
""focus"",""0"",""0""
""fullscreenenter"",""0"",""4401""
""blur"",""2"",""12502""
""focus"",""2"",""12851""
""fullscreenexit"",""2"",""12865""
""blur"",""2"",""50159""
""focus"",""3"",""51581""
""blur"",""4"",""54521""
""focus"",""5"",""254782""
""blur"",""6"",""258679""
""focus"",""7"",""268226""
""blur"",""8"",""292573""
""focus"",""9"",""382282""
""blur"",""10"",""384060""
""focus"",""10"",""593916""
","""event"",""trial"",""time""
""blur"",""2"",""12502""
""blur"",""2"",""50159""
""blur"",""4"",""54521""
""blur"",""6"",""258679""
""blur"",""8"",""292573""
""blur"",""10"",""384060""
","""event"",""trial"",""time""
""focus"",""0"",""0""
""focus"",""2"",""12851""
""focus"",""3"",""51581""
""focus"",""5"",""254782""
""focus"",""7"",""268226""
""focus"",""9"",""382282""
""focus"",""10"",""593916""
","""event"",""trial"",""time""
""fullscreenenter"",""0"",""4401""
","""event"",""trial"",""time""
""fullscreenexit"",""2"",""12865""
","74","<div class='center'><img src='run_exp/static/images/tutorial/blue.png' height='500'></p></div>","49","","","","","","","","","","","","","","",""
"","html-keyboard-response","13","597777","0.0-13.0","""event"",""trial"",""time""
""focus"",""0"",""0""
""fullscreenenter"",""0"",""4401""
""blur"",""2"",""12502""
""focus"",""2"",""12851""
""fullscreenexit"",""2"",""12865""
""blur"",""2"",""50159""
""focus"",""3"",""51581""
""blur"",""4"",""54521""
""focus"",""5"",""254782""
""blur"",""6"",""258679""
""focus"",""7"",""268226""
""blur"",""8"",""292573""
""focus"",""9"",""382282""
""blur"",""10"",""384060""
""focus"",""10"",""593916""
","""event"",""trial"",""time""
""blur"",""2"",""12502""
""blur"",""2"",""50159""
""blur"",""4"",""54521""
""blur"",""6"",""258679""
""blur"",""8"",""292573""
""blur"",""10"",""384060""
","""event"",""trial"",""time""
""focus"",""0"",""0""
""focus"",""2"",""12851""
""focus"",""3"",""51581""
""focus"",""5"",""254782""
""focus"",""7"",""268226""
""focus"",""9"",""382282""
""focus"",""10"",""593916""
","""event"",""trial"",""time""
""fullscreenenter"",""0"",""4401""
","""event"",""trial"",""time""
""fullscreenexit"",""2"",""12865""
","null","<div class='center'><p><img src='run_exp/static/images/tutorial/blue_win.png' height='500'></p></div>","null","","","","","","","","","","","","","","",""
"","html-keyboard-response","14","598003","0.0-14.0","""event"",""trial"",""time""
""focus"",""0"",""0""
""fullscreenenter"",""0"",""4401""
""blur"",""2"",""12502""
""focus"",""2"",""12851""
""fullscreenexit"",""2"",""12865""
""blur"",""2"",""50159""
""focus"",""3"",""51581""
""blur"",""4"",""54521""
""focus"",""5"",""254782""
""blur"",""6"",""258679""
""focus"",""7"",""268226""
""blur"",""8"",""292573""
""focus"",""9"",""382282""
""blur"",""10"",""384060""
""focus"",""10"",""593916""
","""event"",""trial"",""time""
""blur"",""2"",""12502""
""blur"",""2"",""50159""
""blur"",""4"",""54521""
""blur"",""6"",""258679""
""blur"",""8"",""292573""
""blur"",""10"",""384060""
","""event"",""trial"",""time""
""focus"",""0"",""0""
""focus"",""2"",""12851""
""focus"",""3"",""51581""
""focus"",""5"",""254782""
""focus"",""7"",""268226""
""focus"",""9"",""382282""
""focus"",""10"",""593916""
","""event"",""trial"",""time""
""fullscreenenter"",""0"",""4401""
","""event"",""trial"",""time""
""fullscreenexit"",""2"",""12865""
","225","<div class='center'><img src='run_exp/static/images/tutorial/blue.png' height='500'></p></div>","49","","","","","","","","","","","","","","",""
"","html-keyboard-response","15","599507","0.0-15.0","""event"",""trial"",""time""
""focus"",""0"",""0""
""fullscreenenter"",""0"",""4401""
""blur"",""2"",""12502""
""focus"",""2"",""12851""
""fullscreenexit"",""2"",""12865""
""blur"",""2"",""50159""
""focus"",""3"",""51581""
""blur"",""4"",""54521""
""focus"",""5"",""254782""
""blur"",""6"",""258679""
""focus"",""7"",""268226""
""blur"",""8"",""292573""
""focus"",""9"",""382282""
""blur"",""10"",""384060""
""focus"",""10"",""593916""
","""event"",""trial"",""time""
""blur"",""2"",""12502""
""blur"",""2"",""50159""
""blur"",""4"",""54521""
""blur"",""6"",""258679""
""blur"",""8"",""292573""
""blur"",""10"",""384060""
","""event"",""trial"",""time""
""focus"",""0"",""0""
""focus"",""2"",""12851""
""focus"",""3"",""51581""
""focus"",""5"",""254782""
""focus"",""7"",""268226""
""focus"",""9"",""382282""
""focus"",""10"",""593916""
","""event"",""trial"",""time""
""fullscreenenter"",""0"",""4401""
","""event"",""trial"",""time""
""fullscreenexit"",""2"",""12865""
","null","<div class='center'><p><img src='run_exp/static/images/tutorial/blue_win.png' height='500'></p></div>","null","","","","","","","","","","","","","","",""
"","html-keyboard-response","16","599540","0.0-16.0","""event"",""trial"",""time""
""focus"",""0"",""0""
""fullscreenenter"",""0"",""4401""
""blur"",""2"",""12502""
""focus"",""2"",""12851""
""fullscreenexit"",""2"",""12865""
""blur"",""2"",""50159""
""focus"",""3"",""51581""
""blur"",""4"",""54521""
""focus"",""5"",""254782""
""blur"",""6"",""258679""
""focus"",""7"",""268226""
""blur"",""8"",""292573""
""focus"",""9"",""382282""
""blur"",""10"",""384060""
""focus"",""10"",""593916""
","""event"",""trial"",""time""
""blur"",""2"",""12502""
""blur"",""2"",""50159""
""blur"",""4"",""54521""
""blur"",""6"",""258679""
""blur"",""8"",""292573""
""blur"",""10"",""384060""
","""event"",""trial"",""time""
""focus"",""0"",""0""
""focus"",""2"",""12851""
""focus"",""3"",""51581""
""focus"",""5"",""254782""
""focus"",""7"",""268226""
""focus"",""9"",""382282""
""focus"",""10"",""593916""
","""event"",""trial"",""time""
""fullscreenenter"",""0"",""4401""
","""event"",""trial"",""time""
""fullscreenexit"",""2"",""12865""
","33","<div class='center'><img src='run_exp/static/images/tutorial/blue.png' height='500'></p></div>","49","","","","","","","","","","","","","","",""
"","html-keyboard-response","17","601045","0.0-17.0","""event"",""trial"",""time""
""focus"",""0"",""0""
""fullscreenenter"",""0"",""4401""
""blur"",""2"",""12502""
""focus"",""2"",""12851""
""fullscreenexit"",""2"",""12865""
""blur"",""2"",""50159""
""focus"",""3"",""51581""
""blur"",""4"",""54521""
""focus"",""5"",""254782""
""blur"",""6"",""258679""
""focus"",""7"",""268226""
""blur"",""8"",""292573""
""focus"",""9"",""382282""
""blur"",""10"",""384060""
""focus"",""10"",""593916""
","""event"",""trial"",""time""
""blur"",""2"",""12502""
""blur"",""2"",""50159""
""blur"",""4"",""54521""
""blur"",""6"",""258679""
""blur"",""8"",""292573""
""blur"",""10"",""384060""
","""event"",""trial"",""time""
""focus"",""0"",""0""
""focus"",""2"",""12851""
""focus"",""3"",""51581""
""focus"",""5"",""254782""
""focus"",""7"",""268226""
""focus"",""9"",""382282""
""focus"",""10"",""593916""
","""event"",""trial"",""time""
""fullscreenenter"",""0"",""4401""
","""event"",""trial"",""time""
""fullscreenexit"",""2"",""12865""
","null","<div class='center'><p><img src='run_exp/static/images/tutorial/blue_no_win.png' height='500'></p></div>","null","","","","","","","","","","","","","","",""
"","html-keyboard-response","18","601293","0.0-18.0","""event"",""trial"",""time""
""focus"",""0"",""0""
""fullscreenenter"",""0"",""4401""
""blur"",""2"",""12502""
""focus"",""2"",""12851""
""fullscreenexit"",""2"",""12865""
""blur"",""2"",""50159""
""focus"",""3"",""51581""
""blur"",""4"",""54521""
""focus"",""5"",""254782""
""blur"",""6"",""258679""
""focus"",""7"",""268226""
""blur"",""8"",""292573""
""focus"",""9"",""382282""
""blur"",""10"",""384060""
""focus"",""10"",""593916""
","""event"",""trial"",""time""
""blur"",""2"",""12502""
""blur"",""2"",""50159""
""blur"",""4"",""54521""
""blur"",""6"",""258679""
""blur"",""8"",""292573""
""blur"",""10"",""384060""
","""event"",""trial"",""time""
""focus"",""0"",""0""
""focus"",""2"",""12851""
""focus"",""3"",""51581""
""focus"",""5"",""254782""
""focus"",""7"",""268226""
""focus"",""9"",""382282""
""focus"",""10"",""593916""
","""event"",""trial"",""time""
""fullscreenenter"",""0"",""4401""
","""event"",""trial"",""time""
""fullscreenexit"",""2"",""12865""
","246","<div class='center'><img src='run_exp/static/images/tutorial/blue.png' height='500'></p></div>","49","","","","","","","","","","","","","","",""
"","html-keyboard-response","19","602798","0.0-19.0","""event"",""trial"",""time""
""focus"",""0"",""0""
""fullscreenenter"",""0"",""4401""
""blur"",""2"",""12502""
""focus"",""2"",""12851""
""fullscreenexit"",""2"",""12865""
""blur"",""2"",""50159""
""focus"",""3"",""51581""
""blur"",""4"",""54521""
""focus"",""5"",""254782""
""blur"",""6"",""258679""
""focus"",""7"",""268226""
""blur"",""8"",""292573""
""focus"",""9"",""382282""
""blur"",""10"",""384060""
""focus"",""10"",""593916""
","""event"",""trial"",""time""
""blur"",""2"",""12502""
""blur"",""2"",""50159""
""blur"",""4"",""54521""
""blur"",""6"",""258679""
""blur"",""8"",""292573""
""blur"",""10"",""384060""
","""event"",""trial"",""time""
""focus"",""0"",""0""
""focus"",""2"",""12851""
""focus"",""3"",""51581""
""focus"",""5"",""254782""
""focus"",""7"",""268226""
""focus"",""9"",""382282""
""focus"",""10"",""593916""
","""event"",""trial"",""time""
""fullscreenenter"",""0"",""4401""
","""event"",""trial"",""time""
""fullscreenexit"",""2"",""12865""
","null","<div class='center'><p><img src='run_exp/static/images/tutorial/blue_win.png' height='500'></p></div>","null","","","","","","","","","","","","","","",""
"","html-keyboard-response","20","603017","0.0-20.0","""event"",""trial"",""time""
""focus"",""0"",""0""
""fullscreenenter"",""0"",""4401""
""blur"",""2"",""12502""
""focus"",""2"",""12851""
""fullscreenexit"",""2"",""12865""
""blur"",""2"",""50159""
""focus"",""3"",""51581""
""blur"",""4"",""54521""
""focus"",""5"",""254782""
""blur"",""6"",""258679""
""focus"",""7"",""268226""
""blur"",""8"",""292573""
""focus"",""9"",""382282""
""blur"",""10"",""384060""
""focus"",""10"",""593916""
","""event"",""trial"",""time""
""blur"",""2"",""12502""
""blur"",""2"",""50159""
""blur"",""4"",""54521""
""blur"",""6"",""258679""
""blur"",""8"",""292573""
""blur"",""10"",""384060""
","""event"",""trial"",""time""
""focus"",""0"",""0""
""focus"",""2"",""12851""
""focus"",""3"",""51581""
""focus"",""5"",""254782""
""focus"",""7"",""268226""
""focus"",""9"",""382282""
""focus"",""10"",""593916""
","""event"",""trial"",""time""
""fullscreenenter"",""0"",""4401""
","""event"",""trial"",""time""
""fullscreenexit"",""2"",""12865""
","219","<div class='center'><img src='run_exp/static/images/tutorial/blue.png' height='500'></p></div>","49","","","","","","","","","","","","","","",""
"","html-keyboard-response","21","604522","0.0-21.0","""event"",""trial"",""time""
""focus"",""0"",""0""
""fullscreenenter"",""0"",""4401""
""blur"",""2"",""12502""
""focus"",""2"",""12851""
""fullscreenexit"",""2"",""12865""
""blur"",""2"",""50159""
""focus"",""3"",""51581""
""blur"",""4"",""54521""
""focus"",""5"",""254782""
""blur"",""6"",""258679""
""focus"",""7"",""268226""
""blur"",""8"",""292573""
""focus"",""9"",""382282""
""blur"",""10"",""384060""
""focus"",""10"",""593916""
","""event"",""trial"",""time""
""blur"",""2"",""12502""
""blur"",""2"",""50159""
""blur"",""4"",""54521""
""blur"",""6"",""258679""
""blur"",""8"",""292573""
""blur"",""10"",""384060""
","""event"",""trial"",""time""
""focus"",""0"",""0""
""focus"",""2"",""12851""
""focus"",""3"",""51581""
""focus"",""5"",""254782""
""focus"",""7"",""268226""
""focus"",""9"",""382282""
""focus"",""10"",""593916""
","""event"",""trial"",""time""
""fullscreenenter"",""0"",""4401""
","""event"",""trial"",""time""
""fullscreenexit"",""2"",""12865""
","null","<div class='center'><p><img src='run_exp/static/images/tutorial/blue_win.png' height='500'></p></div>","null","","","","","","","","","","","","","","",""
"","html-keyboard-response","22","604739","0.0-22.0","""event"",""trial"",""time""
""focus"",""0"",""0""
""fullscreenenter"",""0"",""4401""
""blur"",""2"",""12502""
""focus"",""2"",""12851""
""fullscreenexit"",""2"",""12865""
""blur"",""2"",""50159""
""focus"",""3"",""51581""
""blur"",""4"",""54521""
""focus"",""5"",""254782""
""blur"",""6"",""258679""
""focus"",""7"",""268226""
""blur"",""8"",""292573""
""focus"",""9"",""382282""
""blur"",""10"",""384060""
""focus"",""10"",""593916""
","""event"",""trial"",""time""
""blur"",""2"",""12502""
""blur"",""2"",""50159""
""blur"",""4"",""54521""
""blur"",""6"",""258679""
""blur"",""8"",""292573""
""blur"",""10"",""384060""
","""event"",""trial"",""time""
""focus"",""0"",""0""
""focus"",""2"",""12851""
""focus"",""3"",""51581""
""focus"",""5"",""254782""
""focus"",""7"",""268226""
""focus"",""9"",""382282""
""focus"",""10"",""593916""
","""event"",""trial"",""time""
""fullscreenenter"",""0"",""4401""
","""event"",""trial"",""time""
""fullscreenexit"",""2"",""12865""
","215","<div class='center'><img src='run_exp/static/images/tutorial/blue.png' height='500'></p></div>","49","","","","","","","","","","","","","","",""
"","html-keyboard-response","23","606243","0.0-23.0","""event"",""trial"",""time""
""focus"",""0"",""0""
""fullscreenenter"",""0"",""4401""
""blur"",""2"",""12502""
""focus"",""2"",""12851""
""fullscreenexit"",""2"",""12865""
""blur"",""2"",""50159""
""focus"",""3"",""51581""
""blur"",""4"",""54521""
""focus"",""5"",""254782""
""blur"",""6"",""258679""
""focus"",""7"",""268226""
""blur"",""8"",""292573""
""focus"",""9"",""382282""
""blur"",""10"",""384060""
""focus"",""10"",""593916""
","""event"",""trial"",""time""
""blur"",""2"",""12502""
""blur"",""2"",""50159""
""blur"",""4"",""54521""
""blur"",""6"",""258679""
""blur"",""8"",""292573""
""blur"",""10"",""384060""
","""event"",""trial"",""time""
""focus"",""0"",""0""
""focus"",""2"",""12851""
""focus"",""3"",""51581""
""focus"",""5"",""254782""
""focus"",""7"",""268226""
""focus"",""9"",""382282""
""focus"",""10"",""593916""
","""event"",""trial"",""time""
""fullscreenenter"",""0"",""4401""
","""event"",""trial"",""time""
""fullscreenexit"",""2"",""12865""
","null","<div class='center'><p><img src='run_exp/static/images/tutorial/blue_win.png' height='500'></p></div>","null","","","","","","","","","","","","","","",""
"","html-keyboard-response","24","606412","0.0-24.0","""event"",""trial"",""time""
""focus"",""0"",""0""
""fullscreenenter"",""0"",""4401""
""blur"",""2"",""12502""
""focus"",""2"",""12851""
""fullscreenexit"",""2"",""12865""
""blur"",""2"",""50159""
""focus"",""3"",""51581""
""blur"",""4"",""54521""
""focus"",""5"",""254782""
""blur"",""6"",""258679""
""focus"",""7"",""268226""
""blur"",""8"",""292573""
""focus"",""9"",""382282""
""blur"",""10"",""384060""
""focus"",""10"",""593916""
","""event"",""trial"",""time""
""blur"",""2"",""12502""
""blur"",""2"",""50159""
""blur"",""4"",""54521""
""blur"",""6"",""258679""
""blur"",""8"",""292573""
""blur"",""10"",""384060""
","""event"",""trial"",""time""
""focus"",""0"",""0""
""focus"",""2"",""12851""
""focus"",""3"",""51581""
""focus"",""5"",""254782""
""focus"",""7"",""268226""
""focus"",""9"",""382282""
""focus"",""10"",""593916""
","""event"",""trial"",""time""
""fullscreenenter"",""0"",""4401""
","""event"",""trial"",""time""
""fullscreenexit"",""2"",""12865""
","168","<div class='center'><img src='run_exp/static/images/tutorial/blue.png' height='500'></p></div>","49","","","","","","","","","","","","","","",""
"","html-keyboard-response","25","607915","0.0-25.0","""event"",""trial"",""time""
""focus"",""0"",""0""
""fullscreenenter"",""0"",""4401""
""blur"",""2"",""12502""
""focus"",""2"",""12851""
""fullscreenexit"",""2"",""12865""
""blur"",""2"",""50159""
""focus"",""3"",""51581""
""blur"",""4"",""54521""
""focus"",""5"",""254782""
""blur"",""6"",""258679""
""focus"",""7"",""268226""
""blur"",""8"",""292573""
""focus"",""9"",""382282""
""blur"",""10"",""384060""
""focus"",""10"",""593916""
","""event"",""trial"",""time""
""blur"",""2"",""12502""
""blur"",""2"",""50159""
""blur"",""4"",""54521""
""blur"",""6"",""258679""
""blur"",""8"",""292573""
""blur"",""10"",""384060""
","""event"",""trial"",""time""
""focus"",""0"",""0""
""focus"",""2"",""12851""
""focus"",""3"",""51581""
""focus"",""5"",""254782""
""focus"",""7"",""268226""
""focus"",""9"",""382282""
""focus"",""10"",""593916""
","""event"",""trial"",""time""
""fullscreenenter"",""0"",""4401""
","""event"",""trial"",""time""
""fullscreenexit"",""2"",""12865""
","null","<div class='center'><p><img src='run_exp/static/images/tutorial/blue_no_win.png' height='500'></p></div>","null","","","","","","","","","","","","","","",""
"","html-keyboard-response","26","608060","0.0-26.0","""event"",""trial"",""time""
""focus"",""0"",""0""
""fullscreenenter"",""0"",""4401""
""blur"",""2"",""12502""
""focus"",""2"",""12851""
""fullscreenexit"",""2"",""12865""
""blur"",""2"",""50159""
""focus"",""3"",""51581""
""blur"",""4"",""54521""
""focus"",""5"",""254782""
""blur"",""6"",""258679""
""focus"",""7"",""268226""
""blur"",""8"",""292573""
""focus"",""9"",""382282""
""blur"",""10"",""384060""
""focus"",""10"",""593916""
","""event"",""trial"",""time""
""blur"",""2"",""12502""
""blur"",""2"",""50159""
""blur"",""4"",""54521""
""blur"",""6"",""258679""
""blur"",""8"",""292573""
""blur"",""10"",""384060""
","""event"",""trial"",""time""
""focus"",""0"",""0""
""focus"",""2"",""12851""
""focus"",""3"",""51581""
""focus"",""5"",""254782""
""focus"",""7"",""268226""
""focus"",""9"",""382282""
""focus"",""10"",""593916""
","""event"",""trial"",""time""
""fullscreenenter"",""0"",""4401""
","""event"",""trial"",""time""
""fullscreenexit"",""2"",""12865""
","145","<div class='center'><img src='run_exp/static/images/tutorial/blue.png' height='500'></p></div>","49","","","","","","","","","","","","","","",""
"","html-keyboard-response","27","609564","0.0-27.0","""event"",""trial"",""time""
""focus"",""0"",""0""
""fullscreenenter"",""0"",""4401""
""blur"",""2"",""12502""
""focus"",""2"",""12851""
""fullscreenexit"",""2"",""12865""
""blur"",""2"",""50159""
""focus"",""3"",""51581""
""blur"",""4"",""54521""
""focus"",""5"",""254782""
""blur"",""6"",""258679""
""focus"",""7"",""268226""
""blur"",""8"",""292573""
""focus"",""9"",""382282""
""blur"",""10"",""384060""
""focus"",""10"",""593916""
","""event"",""trial"",""time""
""blur"",""2"",""12502""
""blur"",""2"",""50159""
""blur"",""4"",""54521""
""blur"",""6"",""258679""
""blur"",""8"",""292573""
""blur"",""10"",""384060""
","""event"",""trial"",""time""
""focus"",""0"",""0""
""focus"",""2"",""12851""
""focus"",""3"",""51581""
""focus"",""5"",""254782""
""focus"",""7"",""268226""
""focus"",""9"",""382282""
""focus"",""10"",""593916""
","""event"",""trial"",""time""
""fullscreenenter"",""0"",""4401""
","""event"",""trial"",""time""
""fullscreenexit"",""2"",""12865""
","null","<div class='center'><p><img src='run_exp/static/images/tutorial/blue_win.png' height='500'></p></div>","null","","","","","","","","","","","","","","",""
"","html-keyboard-response","28","609584","0.0-28.0","""event"",""trial"",""time""
""focus"",""0"",""0""
""fullscreenenter"",""0"",""4401""
""blur"",""2"",""12502""
""focus"",""2"",""12851""
""fullscreenexit"",""2"",""12865""
""blur"",""2"",""50159""
""focus"",""3"",""51581""
""blur"",""4"",""54521""
""focus"",""5"",""254782""
""blur"",""6"",""258679""
""focus"",""7"",""268226""
""blur"",""8"",""292573""
""focus"",""9"",""382282""
""blur"",""10"",""384060""
""focus"",""10"",""593916""
","""event"",""trial"",""time""
""blur"",""2"",""12502""
""blur"",""2"",""50159""
""blur"",""4"",""54521""
""blur"",""6"",""258679""
""blur"",""8"",""292573""
""blur"",""10"",""384060""
","""event"",""trial"",""time""
""focus"",""0"",""0""
""focus"",""2"",""12851""
""focus"",""3"",""51581""
""focus"",""5"",""254782""
""focus"",""7"",""268226""
""focus"",""9"",""382282""
""focus"",""10"",""593916""
","""event"",""trial"",""time""
""fullscreenenter"",""0"",""4401""
","""event"",""trial"",""time""
""fullscreenexit"",""2"",""12865""
","20","<div class='center'><img src='run_exp/static/images/tutorial/blue.png' height='500'></p></div>","49","","","","","","","","","","","","","","",""
"","html-keyboard-response","29","611090","0.0-29.0","""event"",""trial"",""time""
""focus"",""0"",""0""
""fullscreenenter"",""0"",""4401""
""blur"",""2"",""12502""
""focus"",""2"",""12851""
""fullscreenexit"",""2"",""12865""
""blur"",""2"",""50159""
""focus"",""3"",""51581""
""blur"",""4"",""54521""
""focus"",""5"",""254782""
""blur"",""6"",""258679""
""focus"",""7"",""268226""
""blur"",""8"",""292573""
""focus"",""9"",""382282""
""blur"",""10"",""384060""
""focus"",""10"",""593916""
","""event"",""trial"",""time""
""blur"",""2"",""12502""
""blur"",""2"",""50159""
""blur"",""4"",""54521""
""blur"",""6"",""258679""
""blur"",""8"",""292573""
""blur"",""10"",""384060""
","""event"",""trial"",""time""
""focus"",""0"",""0""
""focus"",""2"",""12851""
""focus"",""3"",""51581""
""focus"",""5"",""254782""
""focus"",""7"",""268226""
""focus"",""9"",""382282""
""focus"",""10"",""593916""
","""event"",""trial"",""time""
""fullscreenenter"",""0"",""4401""
","""event"",""trial"",""time""
""fullscreenexit"",""2"",""12865""
","null","<div class='center'><p><img src='run_exp/static/images/tutorial/blue_win.png' height='500'></p></div>","null","","","","","","","","","","","","","","",""
"","instruc6","30","616503","0.0-30.0","""event"",""trial"",""time""
""focus"",""0"",""0""
""fullscreenenter"",""0"",""4401""
""blur"",""2"",""12502""
""focus"",""2"",""12851""
""fullscreenexit"",""2"",""12865""
""blur"",""2"",""50159""
""focus"",""3"",""51581""
""blur"",""4"",""54521""
""focus"",""5"",""254782""
""blur"",""6"",""258679""
""focus"",""7"",""268226""
""blur"",""8"",""292573""
""focus"",""9"",""382282""
""blur"",""10"",""384060""
""focus"",""10"",""593916""
","""event"",""trial"",""time""
""blur"",""2"",""12502""
""blur"",""2"",""50159""
""blur"",""4"",""54521""
""blur"",""6"",""258679""
""blur"",""8"",""292573""
""blur"",""10"",""384060""
","""event"",""trial"",""time""
""focus"",""0"",""0""
""focus"",""2"",""12851""
""focus"",""3"",""51581""
""focus"",""5"",""254782""
""focus"",""7"",""268226""
""focus"",""9"",""382282""
""focus"",""10"",""593916""
","""event"",""trial"",""time""
""fullscreenenter"",""0"",""4401""
","""event"",""trial"",""time""
""fullscreenexit"",""2"",""12865""
","null","run_exp/static/audio/clip_6_blue_beard_outcome.m4a","null","","","","","<div class='center'><p> See, he succeeded in robbing the ships most of the time but not every time. </p></div>","","","","","","","","","",""
"","html-keyboard-response","31","617202","0.0-31.0","""event"",""trial"",""time""
""focus"",""0"",""0""
""fullscreenenter"",""0"",""4401""
""blur"",""2"",""12502""
""focus"",""2"",""12851""
""fullscreenexit"",""2"",""12865""
""blur"",""2"",""50159""
""focus"",""3"",""51581""
""blur"",""4"",""54521""
""focus"",""5"",""254782""
""blur"",""6"",""258679""
""focus"",""7"",""268226""
""blur"",""8"",""292573""
""focus"",""9"",""382282""
""blur"",""10"",""384060""
""focus"",""10"",""593916""
","""event"",""trial"",""time""
""blur"",""2"",""12502""
""blur"",""2"",""50159""
""blur"",""4"",""54521""
""blur"",""6"",""258679""
""blur"",""8"",""292573""
""blur"",""10"",""384060""
","""event"",""trial"",""time""
""focus"",""0"",""0""
""focus"",""2"",""12851""
""focus"",""3"",""51581""
""focus"",""5"",""254782""
""focus"",""7"",""268226""
""focus"",""9"",""382282""
""focus"",""10"",""593916""
","""event"",""trial"",""time""
""fullscreenenter"",""0"",""4401""
","""event"",""trial"",""time""
""fullscreenexit"",""2"",""12865""
","699","<div class='center'><p> See, he succeeded in robbing the ships most of the time but not every time. </p><p><b>[Press the space bar to continue]</b></p></div>","32","","","","","","","","","","","","","","",""
"","audio-keyboard-response","32","618249","0.0-32.0","""event"",""trial"",""time""
""focus"",""0"",""0""
""fullscreenenter"",""0"",""4401""
""blur"",""2"",""12502""
""focus"",""2"",""12851""
""fullscreenexit"",""2"",""12865""
""blur"",""2"",""50159""
""focus"",""3"",""51581""
""blur"",""4"",""54521""
""focus"",""5"",""254782""
""blur"",""6"",""258679""
""focus"",""7"",""268226""
""blur"",""8"",""292573""
""focus"",""9"",""382282""
""blur"",""10"",""384060""
""focus"",""10"",""593916""
","""event"",""trial"",""time""
""blur"",""2"",""12502""
""blur"",""2"",""50159""
""blur"",""4"",""54521""
""blur"",""6"",""258679""
""blur"",""8"",""292573""
""blur"",""10"",""384060""
","""event"",""trial"",""time""
""focus"",""0"",""0""
""focus"",""2"",""12851""
""focus"",""3"",""51581""
""focus"",""5"",""254782""
""focus"",""7"",""268226""
""focus"",""9"",""382282""
""focus"",""10"",""593916""
","""event"",""trial"",""time""
""fullscreenenter"",""0"",""4401""
","""event"",""trial"",""time""
""fullscreenexit"",""2"",""12865""
","1046","run_exp/static/audio/clip_7_pick_pirate.m4a","49","","","","","","","","","","","","","","",""
"","audio-keyboard-response","33","618768","0.0-33.0-0.0","""event"",""trial"",""time""
""focus"",""0"",""0""
""fullscreenenter"",""0"",""4401""
""blur"",""2"",""12502""
""focus"",""2"",""12851""
""fullscreenexit"",""2"",""12865""
""blur"",""2"",""50159""
""focus"",""3"",""51581""
""blur"",""4"",""54521""
""focus"",""5"",""254782""
""blur"",""6"",""258679""
""focus"",""7"",""268226""
""blur"",""8"",""292573""
""focus"",""9"",""382282""
""blur"",""10"",""384060""
""focus"",""10"",""593916""
","""event"",""trial"",""time""
""blur"",""2"",""12502""
""blur"",""2"",""50159""
""blur"",""4"",""54521""
""blur"",""6"",""258679""
""blur"",""8"",""292573""
""blur"",""10"",""384060""
","""event"",""trial"",""time""
""focus"",""0"",""0""
""focus"",""2"",""12851""
""focus"",""3"",""51581""
""focus"",""5"",""254782""
""focus"",""7"",""268226""
""focus"",""9"",""382282""
""focus"",""10"",""593916""
","""event"",""trial"",""time""
""fullscreenenter"",""0"",""4401""
","""event"",""trial"",""time""
""fullscreenexit"",""2"",""12865""
","517","run_exp/static/audio/clip_8_chosen_pirate_win.m4a","32","","","","","","","","","","","","","","",""
"","audio-keyboard-response","34","619396","0.0-33.0-1.0","""event"",""trial"",""time""
""focus"",""0"",""0""
""fullscreenenter"",""0"",""4401""
""blur"",""2"",""12502""
""focus"",""2"",""12851""
""fullscreenexit"",""2"",""12865""
""blur"",""2"",""50159""
""focus"",""3"",""51581""
""blur"",""4"",""54521""
""focus"",""5"",""254782""
""blur"",""6"",""258679""
""focus"",""7"",""268226""
""blur"",""8"",""292573""
""focus"",""9"",""382282""
""blur"",""10"",""384060""
""focus"",""10"",""593916""
","""event"",""trial"",""time""
""blur"",""2"",""12502""
""blur"",""2"",""50159""
""blur"",""4"",""54521""
""blur"",""6"",""258679""
""blur"",""8"",""292573""
""blur"",""10"",""384060""
","""event"",""trial"",""time""
""focus"",""0"",""0""
""focus"",""2"",""12851""
""focus"",""3"",""51581""
""focus"",""5"",""254782""
""focus"",""7"",""268226""
""focus"",""9"",""382282""
""focus"",""10"",""593916""
","""event"",""trial"",""time""
""fullscreenenter"",""0"",""4401""
","""event"",""trial"",""time""
""fullscreenexit"",""2"",""12865""
","626","run_exp/static/audio/clip_9_pick_a_pirate_again.m4a","50","","","","","","","","","","","","","","",""
"","audio-keyboard-response","35","619890","0.0-34.0-0.0","""event"",""trial"",""time""
""focus"",""0"",""0""
""fullscreenenter"",""0"",""4401""
""blur"",""2"",""12502""
""focus"",""2"",""12851""
""fullscreenexit"",""2"",""12865""
""blur"",""2"",""50159""
""focus"",""3"",""51581""
""blur"",""4"",""54521""
""focus"",""5"",""254782""
""blur"",""6"",""258679""
""focus"",""7"",""268226""
""blur"",""8"",""292573""
""focus"",""9"",""382282""
""blur"",""10"",""384060""
""focus"",""10"",""593916""
","""event"",""trial"",""time""
""blur"",""2"",""12502""
""blur"",""2"",""50159""
""blur"",""4"",""54521""
""blur"",""6"",""258679""
""blur"",""8"",""292573""
""blur"",""10"",""384060""
","""event"",""trial"",""time""
""focus"",""0"",""0""
""focus"",""2"",""12851""
""focus"",""3"",""51581""
""focus"",""5"",""254782""
""focus"",""7"",""268226""
""focus"",""9"",""382282""
""focus"",""10"",""593916""
","""event"",""trial"",""time""
""fullscreenenter"",""0"",""4401""
","""event"",""trial"",""time""
""fullscreenexit"",""2"",""12865""
","492","run_exp/static/audio/clip_10_chosen_pirate_loss.m4a","32","","","","","","","","","","","","","","",""
"","instruc9","36","625437","0.0-35.0-0.0","""event"",""trial"",""time""
""focus"",""0"",""0""
""fullscreenenter"",""0"",""4401""
""blur"",""2"",""12502""
""focus"",""2"",""12851""
""fullscreenexit"",""2"",""12865""
""blur"",""2"",""50159""
""focus"",""3"",""51581""
""blur"",""4"",""54521""
""focus"",""5"",""254782""
""blur"",""6"",""258679""
""focus"",""7"",""268226""
""blur"",""8"",""292573""
""focus"",""9"",""382282""
""blur"",""10"",""384060""
""focus"",""10"",""593916""
","""event"",""trial"",""time""
""blur"",""2"",""12502""
""blur"",""2"",""50159""
""blur"",""4"",""54521""
""blur"",""6"",""258679""
""blur"",""8"",""292573""
""blur"",""10"",""384060""
","""event"",""trial"",""time""
""focus"",""0"",""0""
""focus"",""2"",""12851""
""focus"",""3"",""51581""
""focus"",""5"",""254782""
""focus"",""7"",""268226""
""focus"",""9"",""382282""
""focus"",""10"",""593916""
","""event"",""trial"",""time""
""fullscreenenter"",""0"",""4401""
","""event"",""trial"",""time""
""fullscreenexit"",""2"",""12865""
","null","run_exp/static/audio/clip_11_time_out.m4a","null","","","","","<div class='center'><p>If you don’t make your choice fast enough, you’ll have to wait a few seconds before you can make another one. </p><p><img src='run_exp/static/images/miscellaneous/hurry_up.png' height='500'></p></div>","","","","","","","","","",""
"","html-keyboard-response","37","626154","0.0-35.0-1.0","""event"",""trial"",""time""
""focus"",""0"",""0""
""fullscreenenter"",""0"",""4401""
""blur"",""2"",""12502""
""focus"",""2"",""12851""
""fullscreenexit"",""2"",""12865""
""blur"",""2"",""50159""
""focus"",""3"",""51581""
""blur"",""4"",""54521""
""focus"",""5"",""254782""
""blur"",""6"",""258679""
""focus"",""7"",""268226""
""blur"",""8"",""292573""
""focus"",""9"",""382282""
""blur"",""10"",""384060""
""focus"",""10"",""593916""
""blur"",""38"",""628267""
","""event"",""trial"",""time""
""blur"",""2"",""12502""
""blur"",""2"",""50159""
""blur"",""4"",""54521""
""blur"",""6"",""258679""
""blur"",""8"",""292573""
""blur"",""10"",""384060""
""blur"",""38"",""628267""
","""event"",""trial"",""time""
""focus"",""0"",""0""
""focus"",""2"",""12851""
""focus"",""3"",""51581""
""focus"",""5"",""254782""
""focus"",""7"",""268226""
""focus"",""9"",""382282""
""focus"",""10"",""593916""
","""event"",""trial"",""time""
""fullscreenenter"",""0"",""4401""
","""event"",""trial"",""time""
""fullscreenexit"",""2"",""12865""
","715","<div class='center'><p>If you don’t make your choice fast enough, you’ll have to wait a few seconds before you can make another one. </p><p><img src='run_exp/static/images/miscellaneous/hurry_up.png' height='500'></p><p><b>[Press the space bar to continue]</b></p></div>","32","","","","","","","","","","","","","","",""
"","instruc10","38","665285","0.0-35.0-2.0","""event"",""trial"",""time""
""focus"",""0"",""0""
""fullscreenenter"",""0"",""4401""
""blur"",""2"",""12502""
""focus"",""2"",""12851""
""fullscreenexit"",""2"",""12865""
""blur"",""2"",""50159""
""focus"",""3"",""51581""
""blur"",""4"",""54521""
""focus"",""5"",""254782""
""blur"",""6"",""258679""
""focus"",""7"",""268226""
""blur"",""8"",""292573""
""focus"",""9"",""382282""
""blur"",""10"",""384060""
""focus"",""10"",""593916""
""blur"",""38"",""628267""
""focus"",""39"",""891247""
","""event"",""trial"",""time""
""blur"",""2"",""12502""
""blur"",""2"",""50159""
""blur"",""4"",""54521""
""blur"",""6"",""258679""
""blur"",""8"",""292573""
""blur"",""10"",""384060""
""blur"",""38"",""628267""
","""event"",""trial"",""time""
""focus"",""0"",""0""
""focus"",""2"",""12851""
""focus"",""3"",""51581""
""focus"",""5"",""254782""
""focus"",""7"",""268226""
""focus"",""9"",""382282""
""focus"",""10"",""593916""
""focus"",""39"",""891247""
","""event"",""trial"",""time""
""fullscreenenter"",""0"",""4401""
","""event"",""trial"",""time""
""fullscreenexit"",""2"",""12865""
","null","run_exp/static/audio/clip_12_probe.m4a","null","","","","","<div class='center'><p>Once you've chosen a pirate, you’ll be shown the ship they are robbing. You will never rob the same ship twice. Ships can be told apart from one another by the image on them. These are the goods that they sell. See, this ship has a travel mug on it. </p><p> You’ll have to remember which island you saw each ship on. You will win more gold coins and hence more bonus money if you remember correctly! To help you remember, you can imagine a story. For example, here, you could imagine a mug full of water in the desert. Or, as another example, if on the forest island, your pirate robbed a ship with an apple on it, you could imagine an apple falling from a tree in the forest. </p><p><img src='run_exp/static/images/tutorial/example_probe.png' height='500'></p></div>","","","","","","","","","",""
"","html-keyboard-response","39","892285","0.0-35.0-3.0","""event"",""trial"",""time""
""focus"",""0"",""0""
""fullscreenenter"",""0"",""4401""
""blur"",""2"",""12502""
""focus"",""2"",""12851""
""fullscreenexit"",""2"",""12865""
""blur"",""2"",""50159""
""focus"",""3"",""51581""
""blur"",""4"",""54521""
""focus"",""5"",""254782""
""blur"",""6"",""258679""
""focus"",""7"",""268226""
""blur"",""8"",""292573""
""focus"",""9"",""382282""
""blur"",""10"",""384060""
""focus"",""10"",""593916""
""blur"",""38"",""628267""
""focus"",""39"",""891247""
""blur"",""40"",""893792""
","""event"",""trial"",""time""
""blur"",""2"",""12502""
""blur"",""2"",""50159""
""blur"",""4"",""54521""
""blur"",""6"",""258679""
""blur"",""8"",""292573""
""blur"",""10"",""384060""
""blur"",""38"",""628267""
""blur"",""40"",""893792""
","""event"",""trial"",""time""
""focus"",""0"",""0""
""focus"",""2"",""12851""
""focus"",""3"",""51581""
""focus"",""5"",""254782""
""focus"",""7"",""268226""
""focus"",""9"",""382282""
""focus"",""10"",""593916""
""focus"",""39"",""891247""
","""event"",""trial"",""time""
""fullscreenenter"",""0"",""4401""
","""event"",""trial"",""time""
""fullscreenexit"",""2"",""12865""
","226998","<div class='center'><p>Once you've chosen a pirate, you’ll be shown the ship they are robbing. You will never rob the same ship twice. Ships can be told apart from one another by the image on them. These are the goods that they sell. See, this ship has a travel mug on it. </p><p> You’ll have to remember which island you saw each ship on. You will win more gold coins and hence more bonus money if you remember correctly! To help you remember, you can imagine a story. For example, here, you could imagine a mug full of water in the desert. Or, as another example, if on the forest island, your pirate robbed a ship with an apple on it, you could imagine an apple falling from a tree in the forest. </p><p><img src='run_exp/static/images/tutorial/example_probe.png' height='500'></p><p><b>[Press the space bar to continue]</b></p></div>","32","","","","","","","","","","","","","","",""
"","instruc11","40","908709","0.0-35.0-4.0","""event"",""trial"",""time""
""focus"",""0"",""0""
""fullscreenenter"",""0"",""4401""
""blur"",""2"",""12502""
""focus"",""2"",""12851""
""fullscreenexit"",""2"",""12865""
""blur"",""2"",""50159""
""focus"",""3"",""51581""
""blur"",""4"",""54521""
""focus"",""5"",""254782""
""blur"",""6"",""258679""
""focus"",""7"",""268226""
""blur"",""8"",""292573""
""focus"",""9"",""382282""
""blur"",""10"",""384060""
""focus"",""10"",""593916""
""blur"",""38"",""628267""
""focus"",""39"",""891247""
""blur"",""40"",""893792""
""focus"",""41"",""964104""
","""event"",""trial"",""time""
""blur"",""2"",""12502""
""blur"",""2"",""50159""
""blur"",""4"",""54521""
""blur"",""6"",""258679""
""blur"",""8"",""292573""
""blur"",""10"",""384060""
""blur"",""38"",""628267""
""blur"",""40"",""893792""
","""event"",""trial"",""time""
""focus"",""0"",""0""
""focus"",""2"",""12851""
""focus"",""3"",""51581""
""focus"",""5"",""254782""
""focus"",""7"",""268226""
""focus"",""9"",""382282""
""focus"",""10"",""593916""
""focus"",""39"",""891247""
""focus"",""41"",""964104""
","""event"",""trial"",""time""
""fullscreenenter"",""0"",""4401""
","""event"",""trial"",""time""
""fullscreenexit"",""2"",""12865""
","null","run_exp/static/audio/clip_13_changepoint.m4a","null","","","","","<div class='center'><p>How successful a pirate is at robbing ships will depend on the island you’re on.</p><p> A pirate may have visited this island many times before and gained a lot of practice robbing ships there.</p><p>So, they’re more likely to be successful than a pirate who has never visited the island before.</p></div>","","","","","","","","","",""
"","html-keyboard-response","41","964537","0.0-35.0-5.0","""event"",""trial"",""time""
""focus"",""0"",""0""
""fullscreenenter"",""0"",""4401""
""blur"",""2"",""12502""
""focus"",""2"",""12851""
""fullscreenexit"",""2"",""12865""
""blur"",""2"",""50159""
""focus"",""3"",""51581""
""blur"",""4"",""54521""
""focus"",""5"",""254782""
""blur"",""6"",""258679""
""focus"",""7"",""268226""
""blur"",""8"",""292573""
""focus"",""9"",""382282""
""blur"",""10"",""384060""
""focus"",""10"",""593916""
""blur"",""38"",""628267""
""focus"",""39"",""891247""
""blur"",""40"",""893792""
""focus"",""41"",""964104""
""blur"",""42"",""965796""
","""event"",""trial"",""time""
""blur"",""2"",""12502""
""blur"",""2"",""50159""
""blur"",""4"",""54521""
""blur"",""6"",""258679""
""blur"",""8"",""292573""
""blur"",""10"",""384060""
""blur"",""38"",""628267""
""blur"",""40"",""893792""
""blur"",""42"",""965796""
","""event"",""trial"",""time""
""focus"",""0"",""0""
""focus"",""2"",""12851""
""focus"",""3"",""51581""
""focus"",""5"",""254782""
""focus"",""7"",""268226""
""focus"",""9"",""382282""
""focus"",""10"",""593916""
""focus"",""39"",""891247""
""focus"",""41"",""964104""
","""event"",""trial"",""time""
""fullscreenenter"",""0"",""4401""
","""event"",""trial"",""time""
""fullscreenexit"",""2"",""12865""
","55829","<div class='center'><p>How successful a pirate is at robbing ships will depend on the island you’re on.</p><p> A pirate may have visited this island many times before and gained a lot of practice robbing ships there.</p><p>So, they’re more likely to be successful than a pirate who has never visited the island before.</p><p><b>[Press the space bar to continue]</b></p></div>","32","","","","","","","","","","","","","","",""
"","instruc12","42","1005675","0.0-35.0-6.0","""event"",""trial"",""time""
""focus"",""0"",""0""
""fullscreenenter"",""0"",""4401""
""blur"",""2"",""12502""
""focus"",""2"",""12851""
""fullscreenexit"",""2"",""12865""
""blur"",""2"",""50159""
""focus"",""3"",""51581""
""blur"",""4"",""54521""
""focus"",""5"",""254782""
""blur"",""6"",""258679""
""focus"",""7"",""268226""
""blur"",""8"",""292573""
""focus"",""9"",""382282""
""blur"",""10"",""384060""
""focus"",""10"",""593916""
""blur"",""38"",""628267""
""focus"",""39"",""891247""
""blur"",""40"",""893792""
""focus"",""41"",""964104""
""blur"",""42"",""965796""
""focus"",""43"",""1051374""
","""event"",""trial"",""time""
""blur"",""2"",""12502""
""blur"",""2"",""50159""
""blur"",""4"",""54521""
""blur"",""6"",""258679""
""blur"",""8"",""292573""
""blur"",""10"",""384060""
""blur"",""38"",""628267""
""blur"",""40"",""893792""
""blur"",""42"",""965796""
","""event"",""trial"",""time""
""focus"",""0"",""0""
""focus"",""2"",""12851""
""focus"",""3"",""51581""
""focus"",""5"",""254782""
""focus"",""7"",""268226""
""focus"",""9"",""382282""
""focus"",""10"",""593916""
""focus"",""39"",""891247""
""focus"",""41"",""964104""
""focus"",""43"",""1051374""
","""event"",""trial"",""time""
""fullscreenenter"",""0"",""4401""
","""event"",""trial"",""time""
""fullscreenexit"",""2"",""12865""
","null","run_exp/static/audio/clip_14_drift.m4a","null","","","","","<div class='center'><p>How successful a pirate is at robbing ships can also change over the time spent on the island. </p><p> Ships may hear from islanders about the pirates coming and will improve their protections against the attack. This may make it harder to rob them.</p><p> Ships may also become lazy and weaken the strength of their protections. This may make it easier to rob them.</p><br><p>Things are always changing on the high seas! So, try your best to pay attention!</p><p><img src='run_exp/static/images/tutorial/contingency.png' height='500'></p></div>","","","","","","","","","",""
"","html-keyboard-response","43","1051755","0.0-35.0-7.0","""event"",""trial"",""time""
""focus"",""0"",""0""
""fullscreenenter"",""0"",""4401""
""blur"",""2"",""12502""
""focus"",""2"",""12851""
""fullscreenexit"",""2"",""12865""
""blur"",""2"",""50159""
""focus"",""3"",""51581""
""blur"",""4"",""54521""
""focus"",""5"",""254782""
""blur"",""6"",""258679""
""focus"",""7"",""268226""
""blur"",""8"",""292573""
""focus"",""9"",""382282""
""blur"",""10"",""384060""
""focus"",""10"",""593916""
""blur"",""38"",""628267""
""focus"",""39"",""891247""
""blur"",""40"",""893792""
""focus"",""41"",""964104""
""blur"",""42"",""965796""
""focus"",""43"",""1051374""
""blur"",""44"",""1054223""
""focus"",""44"",""1065967""
""blur"",""44"",""1067411""
","""event"",""trial"",""time""
""blur"",""2"",""12502""
""blur"",""2"",""50159""
""blur"",""4"",""54521""
""blur"",""6"",""258679""
""blur"",""8"",""292573""
""blur"",""10"",""384060""
""blur"",""38"",""628267""
""blur"",""40"",""893792""
""blur"",""42"",""965796""
""blur"",""44"",""1054223""
""blur"",""44"",""1067411""
","""event"",""trial"",""time""
""focus"",""0"",""0""
""focus"",""2"",""12851""
""focus"",""3"",""51581""
""focus"",""5"",""254782""
""focus"",""7"",""268226""
""focus"",""9"",""382282""
""focus"",""10"",""593916""
""focus"",""39"",""891247""
""focus"",""41"",""964104""
""focus"",""43"",""1051374""
""focus"",""44"",""1065967""
","""event"",""trial"",""time""
""fullscreenenter"",""0"",""4401""
","""event"",""trial"",""time""
""fullscreenexit"",""2"",""12865""
","46079","<div class='center'><p>How successful a pirate is at robbing ships can also change over the time spent on the island. </p><p> Ships may hear from islanders about the pirates coming and will improve their protections against the attack. This may make it harder to rob them.</p><p> Ships may also become lazy and weaken the strength of their protections. This may make it easier to rob them.</p><br><p>Things are always changing on the high seas! So, try your best to pay attention!</p><p><img src='run_exp/static/images/tutorial/contingency.png' height='500'></p><p><b>[Press the space bar to continue]</b></p></div>","32","","","","","","","","","","","","","","",""
"","instruc13","44","1086966","0.0-35.0-8.0","""event"",""trial"",""time""
""focus"",""0"",""0""
""fullscreenenter"",""0"",""4401""
""blur"",""2"",""12502""
""focus"",""2"",""12851""
""fullscreenexit"",""2"",""12865""
""blur"",""2"",""50159""
""focus"",""3"",""51581""
""blur"",""4"",""54521""
""focus"",""5"",""254782""
""blur"",""6"",""258679""
""focus"",""7"",""268226""
""blur"",""8"",""292573""
""focus"",""9"",""382282""
""blur"",""10"",""384060""
""focus"",""10"",""593916""
""blur"",""38"",""628267""
""focus"",""39"",""891247""
""blur"",""40"",""893792""
""focus"",""41"",""964104""
""blur"",""42"",""965796""
""focus"",""43"",""1051374""
""blur"",""44"",""1054223""
""focus"",""44"",""1065967""
""blur"",""44"",""1067411""
""focus"",""45"",""1124069""
","""event"",""trial"",""time""
""blur"",""2"",""12502""
""blur"",""2"",""50159""
""blur"",""4"",""54521""
""blur"",""6"",""258679""
""blur"",""8"",""292573""
""blur"",""10"",""384060""
""blur"",""38"",""628267""
""blur"",""40"",""893792""
""blur"",""42"",""965796""
""blur"",""44"",""1054223""
""blur"",""44"",""1067411""
","""event"",""trial"",""time""
""focus"",""0"",""0""
""focus"",""2"",""12851""
""focus"",""3"",""51581""
""focus"",""5"",""254782""
""focus"",""7"",""268226""
""focus"",""9"",""382282""
""focus"",""10"",""593916""
""focus"",""39"",""891247""
""focus"",""41"",""964104""
""focus"",""43"",""1051374""
""focus"",""44"",""1065967""
""focus"",""45"",""1124069""
","""event"",""trial"",""time""
""fullscreenenter"",""0"",""4401""
","""event"",""trial"",""time""
""fullscreenexit"",""2"",""12865""
","null","run_exp/static/audio/clip_15_summary.m4a","null","","","","","<div class='center'><p>Let's go over the instructions quickly again. You have two important things to do: </p><b><p> 1. Pick the pirate who is the best at robbing ships on the current island. </p></b><b><p> 2. Remember on which island a ship was robbed.</p> </b><p>The amount of bonus money you can win depends on both.</p><p><br><p>Let’s try a practice game. The game will start by showing you the pirates. First, pick a pirate using the <b> 1, 2, 3 </b> keys on your keyboard. When you are shown a ship, try to remember which island you’re on by making up a story.</p><p>This is just a practice game, so you’re not playing for money. </p><p> Good luck! This game will be very difficult but try your best!</p></div>","","","","","","","","","",""
"","html-keyboard-response","45","1129325","0.0-35.0-9.0","""event"",""trial"",""time""
""focus"",""0"",""0""
""fullscreenenter"",""0"",""4401""
""blur"",""2"",""12502""
""focus"",""2"",""12851""
""fullscreenexit"",""2"",""12865""
""blur"",""2"",""50159""
""focus"",""3"",""51581""
""blur"",""4"",""54521""
""focus"",""5"",""254782""
""blur"",""6"",""258679""
""focus"",""7"",""268226""
""blur"",""8"",""292573""
""focus"",""9"",""382282""
""blur"",""10"",""384060""
""focus"",""10"",""593916""
""blur"",""38"",""628267""
""focus"",""39"",""891247""
""blur"",""40"",""893792""
""focus"",""41"",""964104""
""blur"",""42"",""965796""
""focus"",""43"",""1051374""
""blur"",""44"",""1054223""
""focus"",""44"",""1065967""
""blur"",""44"",""1067411""
""focus"",""45"",""1124069""
","""event"",""trial"",""time""
""blur"",""2"",""12502""
""blur"",""2"",""50159""
""blur"",""4"",""54521""
""blur"",""6"",""258679""
""blur"",""8"",""292573""
""blur"",""10"",""384060""
""blur"",""38"",""628267""
""blur"",""40"",""893792""
""blur"",""42"",""965796""
""blur"",""44"",""1054223""
""blur"",""44"",""1067411""
","""event"",""trial"",""time""
""focus"",""0"",""0""
""focus"",""2"",""12851""
""focus"",""3"",""51581""
""focus"",""5"",""254782""
""focus"",""7"",""268226""
""focus"",""9"",""382282""
""focus"",""10"",""593916""
""focus"",""39"",""891247""
""focus"",""41"",""964104""
""focus"",""43"",""1051374""
""focus"",""44"",""1065967""
""focus"",""45"",""1124069""
","""event"",""trial"",""time""
""fullscreenenter"",""0"",""4401""
","""event"",""trial"",""time""
""fullscreenexit"",""2"",""12865""
","42358","<div class='center'><p>Let's go over the instructions quickly again. You have two important things to do: </p><b><p> 1. Pick the pirate who is the best at robbing ships on the current island. </p></b><b><p> 2. Remember on which island a ship was robbed.</p> </b><p>The amount of bonus money you can win depends on both.</p><p><br><p>Let’s try a practice game. The game will start by showing you the pirates. First, pick a pirate using the <b> 1, 2, 3 </b> keys on your keyboard. When you are shown a ship, try to remember which island you’re on by making up a story.</p><p>This is just a practice game, so you’re not playing for money. </p><p> Good luck! This game will be very difficult but try your best!</p><p><b>[Press the space bar to continue]</b></p></div>","32","","","","","","","","","","","","","","",""
"","do_welcome","46","1133343","0.0-35.0-10.0","""event"",""trial"",""time""
""focus"",""0"",""0""
""fullscreenenter"",""0"",""4401""
""blur"",""2"",""12502""
""focus"",""2"",""12851""
""fullscreenexit"",""2"",""12865""
""blur"",""2"",""50159""
""focus"",""3"",""51581""
""blur"",""4"",""54521""
""focus"",""5"",""254782""
""blur"",""6"",""258679""
""focus"",""7"",""268226""
""blur"",""8"",""292573""
""focus"",""9"",""382282""
""blur"",""10"",""384060""
""focus"",""10"",""593916""
""blur"",""38"",""628267""
""focus"",""39"",""891247""
""blur"",""40"",""893792""
""focus"",""41"",""964104""
""blur"",""42"",""965796""
""focus"",""43"",""1051374""
""blur"",""44"",""1054223""
""focus"",""44"",""1065967""
""blur"",""44"",""1067411""
""focus"",""45"",""1124069""
","""event"",""trial"",""time""
""blur"",""2"",""12502""
""blur"",""2"",""50159""
""blur"",""4"",""54521""
""blur"",""6"",""258679""
""blur"",""8"",""292573""
""blur"",""10"",""384060""
""blur"",""38"",""628267""
""blur"",""40"",""893792""
""blur"",""42"",""965796""
""blur"",""44"",""1054223""
""blur"",""44"",""1067411""
","""event"",""trial"",""time""
""focus"",""0"",""0""
""focus"",""2"",""12851""
""focus"",""3"",""51581""
""focus"",""5"",""254782""
""focus"",""7"",""268226""
""focus"",""9"",""382282""
""focus"",""10"",""593916""
""focus"",""39"",""891247""
""focus"",""41"",""964104""
""focus"",""43"",""1051374""
""focus"",""44"",""1065967""
""focus"",""45"",""1124069""
","""event"",""trial"",""time""
""fullscreenenter"",""0"",""4401""
","""event"",""trial"",""time""
""fullscreenexit"",""2"",""12865""
","null","","","","","","","","null","","","","","","","","",""
"","do_trial","47","1138246","0.0-35.0-11.0","""event"",""trial"",""time""
""focus"",""0"",""0""
""fullscreenenter"",""0"",""4401""
""blur"",""2"",""12502""
""focus"",""2"",""12851""
""fullscreenexit"",""2"",""12865""
""blur"",""2"",""50159""
""focus"",""3"",""51581""
""blur"",""4"",""54521""
""focus"",""5"",""254782""
""blur"",""6"",""258679""
""focus"",""7"",""268226""
""blur"",""8"",""292573""
""focus"",""9"",""382282""
""blur"",""10"",""384060""
""focus"",""10"",""593916""
""blur"",""38"",""628267""
""focus"",""39"",""891247""
""blur"",""40"",""893792""
""focus"",""41"",""964104""
""blur"",""42"",""965796""
""focus"",""43"",""1051374""
""blur"",""44"",""1054223""
""focus"",""44"",""1065967""
""blur"",""44"",""1067411""
""focus"",""45"",""1124069""
","""event"",""trial"",""time""
""blur"",""2"",""12502""
""blur"",""2"",""50159""
""blur"",""4"",""54521""
""blur"",""6"",""258679""
""blur"",""8"",""292573""
""blur"",""10"",""384060""
""blur"",""38"",""628267""
""blur"",""40"",""893792""
""blur"",""42"",""965796""
""blur"",""44"",""1054223""
""blur"",""44"",""1067411""
","""event"",""trial"",""time""
""focus"",""0"",""0""
""focus"",""2"",""12851""
""focus"",""3"",""51581""
""focus"",""5"",""254782""
""focus"",""7"",""268226""
""focus"",""9"",""382282""
""focus"",""10"",""593916""
""focus"",""39"",""891247""
""focus"",""41"",""964104""
""focus"",""43"",""1051374""
""focus"",""44"",""1065967""
""focus"",""45"",""1124069""
","""event"",""trial"",""time""
""fullscreenenter"",""0"",""4401""
","""event"",""trial"",""time""
""fullscreenexit"",""2"",""12865""
","394","","","","","","","","49","1,0,0","","","","","","","",""
"","html-keyboard-response","48","1139247","0.0-36.0-0.0","""event"",""trial"",""time""
""focus"",""0"",""0""
""fullscreenenter"",""0"",""4401""
""blur"",""2"",""12502""
""focus"",""2"",""12851""
""fullscreenexit"",""2"",""12865""
""blur"",""2"",""50159""
""focus"",""3"",""51581""
""blur"",""4"",""54521""
""focus"",""5"",""254782""
""blur"",""6"",""258679""
""focus"",""7"",""268226""
""blur"",""8"",""292573""
""focus"",""9"",""382282""
""blur"",""10"",""384060""
""focus"",""10"",""593916""
""blur"",""38"",""628267""
""focus"",""39"",""891247""
""blur"",""40"",""893792""
""focus"",""41"",""964104""
""blur"",""42"",""965796""
""focus"",""43"",""1051374""
""blur"",""44"",""1054223""
""focus"",""44"",""1065967""
""blur"",""44"",""1067411""
""focus"",""45"",""1124069""
","""event"",""trial"",""time""
""blur"",""2"",""12502""
""blur"",""2"",""50159""
""blur"",""4"",""54521""
""blur"",""6"",""258679""
""blur"",""8"",""292573""
""blur"",""10"",""384060""
""blur"",""38"",""628267""
""blur"",""40"",""893792""
""blur"",""42"",""965796""
""blur"",""44"",""1054223""
""blur"",""44"",""1067411""
","""event"",""trial"",""time""
""focus"",""0"",""0""
""focus"",""2"",""12851""
""focus"",""3"",""51581""
""focus"",""5"",""254782""
""focus"",""7"",""268226""
""focus"",""9"",""382282""
""focus"",""10"",""593916""
""focus"",""39"",""891247""
""focus"",""41"",""964104""
""focus"",""43"",""1051374""
""focus"",""44"",""1065967""
""focus"",""45"",""1124069""
","""event"",""trial"",""time""
""fullscreenenter"",""0"",""4401""
","""event"",""trial"",""time""
""fullscreenexit"",""2"",""12865""
","null","<p></p>","null","","","","","","","","","","","","","","",""
"","do_trial","49","1144097","0.0-36.0-1.0","""event"",""trial"",""time""
""focus"",""0"",""0""
""fullscreenenter"",""0"",""4401""
""blur"",""2"",""12502""
""focus"",""2"",""12851""
""fullscreenexit"",""2"",""12865""
""blur"",""2"",""50159""
""focus"",""3"",""51581""
""blur"",""4"",""54521""
""focus"",""5"",""254782""
""blur"",""6"",""258679""
""focus"",""7"",""268226""
""blur"",""8"",""292573""
""focus"",""9"",""382282""
""blur"",""10"",""384060""
""focus"",""10"",""593916""
""blur"",""38"",""628267""
""focus"",""39"",""891247""
""blur"",""40"",""893792""
""focus"",""41"",""964104""
""blur"",""42"",""965796""
""focus"",""43"",""1051374""
""blur"",""44"",""1054223""
""focus"",""44"",""1065967""
""blur"",""44"",""1067411""
""focus"",""45"",""1124069""
","""event"",""trial"",""time""
""blur"",""2"",""12502""
""blur"",""2"",""50159""
""blur"",""4"",""54521""
""blur"",""6"",""258679""
""blur"",""8"",""292573""
""blur"",""10"",""384060""
""blur"",""38"",""628267""
""blur"",""40"",""893792""
""blur"",""42"",""965796""
""blur"",""44"",""1054223""
""blur"",""44"",""1067411""
","""event"",""trial"",""time""
""focus"",""0"",""0""
""focus"",""2"",""12851""
""focus"",""3"",""51581""
""focus"",""5"",""254782""
""focus"",""7"",""268226""
""focus"",""9"",""382282""
""focus"",""10"",""593916""
""focus"",""39"",""891247""
""focus"",""41"",""964104""
""focus"",""43"",""1051374""
""focus"",""44"",""1065967""
""focus"",""45"",""1124069""
","""event"",""trial"",""time""
""fullscreenenter"",""0"",""4401""
","""event"",""trial"",""time""
""fullscreenexit"",""2"",""12865""
","342","","","","","","","","49","1,1,0","","","","","","","",""
"","html-keyboard-response","50","1145103","0.0-37.0-0.0","""event"",""trial"",""time""
""focus"",""0"",""0""
""fullscreenenter"",""0"",""4401""
""blur"",""2"",""12502""
""focus"",""2"",""12851""
""fullscreenexit"",""2"",""12865""
""blur"",""2"",""50159""
""focus"",""3"",""51581""
""blur"",""4"",""54521""
""focus"",""5"",""254782""
""blur"",""6"",""258679""
""focus"",""7"",""268226""
""blur"",""8"",""292573""
""focus"",""9"",""382282""
""blur"",""10"",""384060""
""focus"",""10"",""593916""
""blur"",""38"",""628267""
""focus"",""39"",""891247""
""blur"",""40"",""893792""
""focus"",""41"",""964104""
""blur"",""42"",""965796""
""focus"",""43"",""1051374""
""blur"",""44"",""1054223""
""focus"",""44"",""1065967""
""blur"",""44"",""1067411""
""focus"",""45"",""1124069""
","""event"",""trial"",""time""
""blur"",""2"",""12502""
""blur"",""2"",""50159""
""blur"",""4"",""54521""
""blur"",""6"",""258679""
""blur"",""8"",""292573""
""blur"",""10"",""384060""
""blur"",""38"",""628267""
""blur"",""40"",""893792""
""blur"",""42"",""965796""
""blur"",""44"",""1054223""
""blur"",""44"",""1067411""
","""event"",""trial"",""time""
""focus"",""0"",""0""
""focus"",""2"",""12851""
""focus"",""3"",""51581""
""focus"",""5"",""254782""
""focus"",""7"",""268226""
""focus"",""9"",""382282""
""focus"",""10"",""593916""
""focus"",""39"",""891247""
""focus"",""41"",""964104""
""focus"",""43"",""1051374""
""focus"",""44"",""1065967""
""focus"",""45"",""1124069""
","""event"",""trial"",""time""
""fullscreenenter"",""0"",""4401""
","""event"",""trial"",""time""
""fullscreenexit"",""2"",""12865""
","null","<p></p>","null","","","","","","","","","","","","","","",""
"","do_trial","51","1150097","0.0-37.0-1.0","""event"",""trial"",""time""
""focus"",""0"",""0""
""fullscreenenter"",""0"",""4401""
""blur"",""2"",""12502""
""focus"",""2"",""12851""
""fullscreenexit"",""2"",""12865""
""blur"",""2"",""50159""
""focus"",""3"",""51581""
""blur"",""4"",""54521""
""focus"",""5"",""254782""
""blur"",""6"",""258679""
""focus"",""7"",""268226""
""blur"",""8"",""292573""
""focus"",""9"",""382282""
""blur"",""10"",""384060""
""focus"",""10"",""593916""
""blur"",""38"",""628267""
""focus"",""39"",""891247""
""blur"",""40"",""893792""
""focus"",""41"",""964104""
""blur"",""42"",""965796""
""focus"",""43"",""1051374""
""blur"",""44"",""1054223""
""focus"",""44"",""1065967""
""blur"",""44"",""1067411""
""focus"",""45"",""1124069""
","""event"",""trial"",""time""
""blur"",""2"",""12502""
""blur"",""2"",""50159""
""blur"",""4"",""54521""
""blur"",""6"",""258679""
""blur"",""8"",""292573""
""blur"",""10"",""384060""
""blur"",""38"",""628267""
""blur"",""40"",""893792""
""blur"",""42"",""965796""
""blur"",""44"",""1054223""
""blur"",""44"",""1067411""
","""event"",""trial"",""time""
""focus"",""0"",""0""
""focus"",""2"",""12851""
""focus"",""3"",""51581""
""focus"",""5"",""254782""
""focus"",""7"",""268226""
""focus"",""9"",""382282""
""focus"",""10"",""593916""
""focus"",""39"",""891247""
""focus"",""41"",""964104""
""focus"",""43"",""1051374""
""focus"",""44"",""1065967""
""focus"",""45"",""1124069""
","""event"",""trial"",""time""
""fullscreenenter"",""0"",""4401""
","""event"",""trial"",""time""
""fullscreenexit"",""2"",""12865""
","489","","","","","","","","49","1,0,1","","","","","","","",""
"","html-keyboard-response","52","1151098","0.0-38.0-0.0","""event"",""trial"",""time""
""focus"",""0"",""0""
""fullscreenenter"",""0"",""4401""
""blur"",""2"",""12502""
""focus"",""2"",""12851""
""fullscreenexit"",""2"",""12865""
""blur"",""2"",""50159""
""focus"",""3"",""51581""
""blur"",""4"",""54521""
""focus"",""5"",""254782""
""blur"",""6"",""258679""
""focus"",""7"",""268226""
""blur"",""8"",""292573""
""focus"",""9"",""382282""
""blur"",""10"",""384060""
""focus"",""10"",""593916""
""blur"",""38"",""628267""
""focus"",""39"",""891247""
""blur"",""40"",""893792""
""focus"",""41"",""964104""
""blur"",""42"",""965796""
""focus"",""43"",""1051374""
""blur"",""44"",""1054223""
""focus"",""44"",""1065967""
""blur"",""44"",""1067411""
""focus"",""45"",""1124069""
","""event"",""trial"",""time""
""blur"",""2"",""12502""
""blur"",""2"",""50159""
""blur"",""4"",""54521""
""blur"",""6"",""258679""
""blur"",""8"",""292573""
""blur"",""10"",""384060""
""blur"",""38"",""628267""
""blur"",""40"",""893792""
""blur"",""42"",""965796""
""blur"",""44"",""1054223""
""blur"",""44"",""1067411""
","""event"",""trial"",""time""
""focus"",""0"",""0""
""focus"",""2"",""12851""
""focus"",""3"",""51581""
""focus"",""5"",""254782""
""focus"",""7"",""268226""
""focus"",""9"",""382282""
""focus"",""10"",""593916""
""focus"",""39"",""891247""
""focus"",""41"",""964104""
""focus"",""43"",""1051374""
""focus"",""44"",""1065967""
""focus"",""45"",""1124069""
","""event"",""trial"",""time""
""fullscreenenter"",""0"",""4401""
","""event"",""trial"",""time""
""fullscreenexit"",""2"",""12865""
","null","<p></p>","null","","","","","","","","","","","","","","",""
"","do_trial","53","1155928","0.0-38.0-1.0","""event"",""trial"",""time""
""focus"",""0"",""0""
""fullscreenenter"",""0"",""4401""
""blur"",""2"",""12502""
""focus"",""2"",""12851""
""fullscreenexit"",""2"",""12865""
""blur"",""2"",""50159""
""focus"",""3"",""51581""
""blur"",""4"",""54521""
""focus"",""5"",""254782""
""blur"",""6"",""258679""
""focus"",""7"",""268226""
""blur"",""8"",""292573""
""focus"",""9"",""382282""
""blur"",""10"",""384060""
""focus"",""10"",""593916""
""blur"",""38"",""628267""
""focus"",""39"",""891247""
""blur"",""40"",""893792""
""focus"",""41"",""964104""
""blur"",""42"",""965796""
""focus"",""43"",""1051374""
""blur"",""44"",""1054223""
""focus"",""44"",""1065967""
""blur"",""44"",""1067411""
""focus"",""45"",""1124069""
","""event"",""trial"",""time""
""blur"",""2"",""12502""
""blur"",""2"",""50159""
""blur"",""4"",""54521""
""blur"",""6"",""258679""
""blur"",""8"",""292573""
""blur"",""10"",""384060""
""blur"",""38"",""628267""
""blur"",""40"",""893792""
""blur"",""42"",""965796""
""blur"",""44"",""1054223""
""blur"",""44"",""1067411""
","""event"",""trial"",""time""
""focus"",""0"",""0""
""focus"",""2"",""12851""
""focus"",""3"",""51581""
""focus"",""5"",""254782""
""focus"",""7"",""268226""
""focus"",""9"",""382282""
""focus"",""10"",""593916""
""focus"",""39"",""891247""
""focus"",""41"",""964104""
""focus"",""43"",""1051374""
""focus"",""44"",""1065967""
""focus"",""45"",""1124069""
","""event"",""trial"",""time""
""fullscreenenter"",""0"",""4401""
","""event"",""trial"",""time""
""fullscreenexit"",""2"",""12865""
","323","","","","","","","","49","0,1,0","","","","","","","",""
"","html-keyboard-response","54","1156929","0.0-39.0-0.0","""event"",""trial"",""time""
""focus"",""0"",""0""
""fullscreenenter"",""0"",""4401""
""blur"",""2"",""12502""
""focus"",""2"",""12851""
""fullscreenexit"",""2"",""12865""
""blur"",""2"",""50159""
""focus"",""3"",""51581""
""blur"",""4"",""54521""
""focus"",""5"",""254782""
""blur"",""6"",""258679""
""focus"",""7"",""268226""
""blur"",""8"",""292573""
""focus"",""9"",""382282""
""blur"",""10"",""384060""
""focus"",""10"",""593916""
""blur"",""38"",""628267""
""focus"",""39"",""891247""
""blur"",""40"",""893792""
""focus"",""41"",""964104""
""blur"",""42"",""965796""
""focus"",""43"",""1051374""
""blur"",""44"",""1054223""
""focus"",""44"",""1065967""
""blur"",""44"",""1067411""
""focus"",""45"",""1124069""
","""event"",""trial"",""time""
""blur"",""2"",""12502""
""blur"",""2"",""50159""
""blur"",""4"",""54521""
""blur"",""6"",""258679""
""blur"",""8"",""292573""
""blur"",""10"",""384060""
""blur"",""38"",""628267""
""blur"",""40"",""893792""
""blur"",""42"",""965796""
""blur"",""44"",""1054223""
""blur"",""44"",""1067411""
","""event"",""trial"",""time""
""focus"",""0"",""0""
""focus"",""2"",""12851""
""focus"",""3"",""51581""
""focus"",""5"",""254782""
""focus"",""7"",""268226""
""focus"",""9"",""382282""
""focus"",""10"",""593916""
""focus"",""39"",""891247""
""focus"",""41"",""964104""
""focus"",""43"",""1051374""
""focus"",""44"",""1065967""
""focus"",""45"",""1124069""
","""event"",""trial"",""time""
""fullscreenenter"",""0"",""4401""
","""event"",""trial"",""time""
""fullscreenexit"",""2"",""12865""
","null","<p></p>","null","","","","","","","","","","","","","","",""
"","do_trial","55","1161872","0.0-39.0-1.0","""event"",""trial"",""time""
""focus"",""0"",""0""
""fullscreenenter"",""0"",""4401""
""blur"",""2"",""12502""
""focus"",""2"",""12851""
""fullscreenexit"",""2"",""12865""
""blur"",""2"",""50159""
""focus"",""3"",""51581""
""blur"",""4"",""54521""
""focus"",""5"",""254782""
""blur"",""6"",""258679""
""focus"",""7"",""268226""
""blur"",""8"",""292573""
""focus"",""9"",""382282""
""blur"",""10"",""384060""
""focus"",""10"",""593916""
""blur"",""38"",""628267""
""focus"",""39"",""891247""
""blur"",""40"",""893792""
""focus"",""41"",""964104""
""blur"",""42"",""965796""
""focus"",""43"",""1051374""
""blur"",""44"",""1054223""
""focus"",""44"",""1065967""
""blur"",""44"",""1067411""
""focus"",""45"",""1124069""
","""event"",""trial"",""time""
""blur"",""2"",""12502""
""blur"",""2"",""50159""
""blur"",""4"",""54521""
""blur"",""6"",""258679""
""blur"",""8"",""292573""
""blur"",""10"",""384060""
""blur"",""38"",""628267""
""blur"",""40"",""893792""
""blur"",""42"",""965796""
""blur"",""44"",""1054223""
""blur"",""44"",""1067411""
","""event"",""trial"",""time""
""focus"",""0"",""0""
""focus"",""2"",""12851""
""focus"",""3"",""51581""
""focus"",""5"",""254782""
""focus"",""7"",""268226""
""focus"",""9"",""382282""
""focus"",""10"",""593916""
""focus"",""39"",""891247""
""focus"",""41"",""964104""
""focus"",""43"",""1051374""
""focus"",""44"",""1065967""
""focus"",""45"",""1124069""
","""event"",""trial"",""time""
""fullscreenenter"",""0"",""4401""
","""event"",""trial"",""time""
""fullscreenexit"",""2"",""12865""
","435","","","","","","","","49","1,0,0","","","","","","","",""
"","do_bye","56","1163378","0.0-40.0-0.0","""event"",""trial"",""time""
""focus"",""0"",""0""
""fullscreenenter"",""0"",""4401""
""blur"",""2"",""12502""
""focus"",""2"",""12851""
""fullscreenexit"",""2"",""12865""
""blur"",""2"",""50159""
""focus"",""3"",""51581""
""blur"",""4"",""54521""
""focus"",""5"",""254782""
""blur"",""6"",""258679""
""focus"",""7"",""268226""
""blur"",""8"",""292573""
""focus"",""9"",""382282""
""blur"",""10"",""384060""
""focus"",""10"",""593916""
""blur"",""38"",""628267""
""focus"",""39"",""891247""
""blur"",""40"",""893792""
""focus"",""41"",""964104""
""blur"",""42"",""965796""
""focus"",""43"",""1051374""
""blur"",""44"",""1054223""
""focus"",""44"",""1065967""
""blur"",""44"",""1067411""
""focus"",""45"",""1124069""
","""event"",""trial"",""time""
""blur"",""2"",""12502""
""blur"",""2"",""50159""
""blur"",""4"",""54521""
""blur"",""6"",""258679""
""blur"",""8"",""292573""
""blur"",""10"",""384060""
""blur"",""38"",""628267""
""blur"",""40"",""893792""
""blur"",""42"",""965796""
""blur"",""44"",""1054223""
""blur"",""44"",""1067411""
","""event"",""trial"",""time""
""focus"",""0"",""0""
""focus"",""2"",""12851""
""focus"",""3"",""51581""
""focus"",""5"",""254782""
""focus"",""7"",""268226""
""focus"",""9"",""382282""
""focus"",""10"",""593916""
""focus"",""39"",""891247""
""focus"",""41"",""964104""
""focus"",""43"",""1051374""
""focus"",""44"",""1065967""
""focus"",""45"",""1124069""
","""event"",""trial"",""time""
""fullscreenenter"",""0"",""4401""
","""event"",""trial"",""time""
""fullscreenexit"",""2"",""12865""
","null","","","","","","","","null","","","","","","","","",""
"","do_travel","57","1172388","0.0-40.0-1.0","""event"",""trial"",""time""
""focus"",""0"",""0""
""fullscreenenter"",""0"",""4401""
""blur"",""2"",""12502""
""focus"",""2"",""12851""
""fullscreenexit"",""2"",""12865""
""blur"",""2"",""50159""
""focus"",""3"",""51581""
""blur"",""4"",""54521""
""focus"",""5"",""254782""
""blur"",""6"",""258679""
""focus"",""7"",""268226""
""blur"",""8"",""292573""
""focus"",""9"",""382282""
""blur"",""10"",""384060""
""focus"",""10"",""593916""
""blur"",""38"",""628267""
""focus"",""39"",""891247""
""blur"",""40"",""893792""
""focus"",""41"",""964104""
""blur"",""42"",""965796""
""focus"",""43"",""1051374""
""blur"",""44"",""1054223""
""focus"",""44"",""1065967""
""blur"",""44"",""1067411""
""focus"",""45"",""1124069""
","""event"",""trial"",""time""
""blur"",""2"",""12502""
""blur"",""2"",""50159""
""blur"",""4"",""54521""
""blur"",""6"",""258679""
""blur"",""8"",""292573""
""blur"",""10"",""384060""
""blur"",""38"",""628267""
""blur"",""40"",""893792""
""blur"",""42"",""965796""
""blur"",""44"",""1054223""
""blur"",""44"",""1067411""
","""event"",""trial"",""time""
""focus"",""0"",""0""
""focus"",""2"",""12851""
""focus"",""3"",""51581""
""focus"",""5"",""254782""
""focus"",""7"",""268226""
""focus"",""9"",""382282""
""focus"",""10"",""593916""
""focus"",""39"",""891247""
""focus"",""41"",""964104""
""focus"",""43"",""1051374""
""focus"",""44"",""1065967""
""focus"",""45"",""1124069""
","""event"",""trial"",""time""
""fullscreenenter"",""0"",""4401""
","""event"",""trial"",""time""
""fullscreenexit"",""2"",""12865""
","null","","","","","","","","null","","","","","","","","",""
"","do_welcome","58","1176396","0.0-40.0-2.0","""event"",""trial"",""time""
""focus"",""0"",""0""
""fullscreenenter"",""0"",""4401""
""blur"",""2"",""12502""
""focus"",""2"",""12851""
""fullscreenexit"",""2"",""12865""
""blur"",""2"",""50159""
""focus"",""3"",""51581""
""blur"",""4"",""54521""
""focus"",""5"",""254782""
""blur"",""6"",""258679""
""focus"",""7"",""268226""
""blur"",""8"",""292573""
""focus"",""9"",""382282""
""blur"",""10"",""384060""
""focus"",""10"",""593916""
""blur"",""38"",""628267""
""focus"",""39"",""891247""
""blur"",""40"",""893792""
""focus"",""41"",""964104""
""blur"",""42"",""965796""
""focus"",""43"",""1051374""
""blur"",""44"",""1054223""
""focus"",""44"",""1065967""
""blur"",""44"",""1067411""
""focus"",""45"",""1124069""
","""event"",""trial"",""time""
""blur"",""2"",""12502""
""blur"",""2"",""50159""
""blur"",""4"",""54521""
""blur"",""6"",""258679""
""blur"",""8"",""292573""
""blur"",""10"",""384060""
""blur"",""38"",""628267""
""blur"",""40"",""893792""
""blur"",""42"",""965796""
""blur"",""44"",""1054223""
""blur"",""44"",""1067411""
","""event"",""trial"",""time""
""focus"",""0"",""0""
""focus"",""2"",""12851""
""focus"",""3"",""51581""
""focus"",""5"",""254782""
""focus"",""7"",""268226""
""focus"",""9"",""382282""
""focus"",""10"",""593916""
""focus"",""39"",""891247""
""focus"",""41"",""964104""
""focus"",""43"",""1051374""
""focus"",""44"",""1065967""
""focus"",""45"",""1124069""
","""event"",""trial"",""time""
""fullscreenenter"",""0"",""4401""
","""event"",""trial"",""time""
""fullscreenexit"",""2"",""12865""
","null","","","","","","","","null","","","","","","","","",""
"","do_trial","59","1181415","0.0-40.0-3.0","""event"",""trial"",""time""
""focus"",""0"",""0""
""fullscreenenter"",""0"",""4401""
""blur"",""2"",""12502""
""focus"",""2"",""12851""
""fullscreenexit"",""2"",""12865""
""blur"",""2"",""50159""
""focus"",""3"",""51581""
""blur"",""4"",""54521""
""focus"",""5"",""254782""
""blur"",""6"",""258679""
""focus"",""7"",""268226""
""blur"",""8"",""292573""
""focus"",""9"",""382282""
""blur"",""10"",""384060""
""focus"",""10"",""593916""
""blur"",""38"",""628267""
""focus"",""39"",""891247""
""blur"",""40"",""893792""
""focus"",""41"",""964104""
""blur"",""42"",""965796""
""focus"",""43"",""1051374""
""blur"",""44"",""1054223""
""focus"",""44"",""1065967""
""blur"",""44"",""1067411""
""focus"",""45"",""1124069""
","""event"",""trial"",""time""
""blur"",""2"",""12502""
""blur"",""2"",""50159""
""blur"",""4"",""54521""
""blur"",""6"",""258679""
""blur"",""8"",""292573""
""blur"",""10"",""384060""
""blur"",""38"",""628267""
""blur"",""40"",""893792""
""blur"",""42"",""965796""
""blur"",""44"",""1054223""
""blur"",""44"",""1067411""
","""event"",""trial"",""time""
""focus"",""0"",""0""
""focus"",""2"",""12851""
""focus"",""3"",""51581""
""focus"",""5"",""254782""
""focus"",""7"",""268226""
""focus"",""9"",""382282""
""focus"",""10"",""593916""
""focus"",""39"",""891247""
""focus"",""41"",""964104""
""focus"",""43"",""1051374""
""focus"",""44"",""1065967""
""focus"",""45"",""1124069""
","""event"",""trial"",""time""
""fullscreenenter"",""0"",""4401""
","""event"",""trial"",""time""
""fullscreenexit"",""2"",""12865""
","515","","","","","","","","49","1,0,0","","","","","","","",""
"","html-keyboard-response","60","1182418","0.0-41.0-0.0","""event"",""trial"",""time""
""focus"",""0"",""0""
""fullscreenenter"",""0"",""4401""
""blur"",""2"",""12502""
""focus"",""2"",""12851""
""fullscreenexit"",""2"",""12865""
""blur"",""2"",""50159""
""focus"",""3"",""51581""
""blur"",""4"",""54521""
""focus"",""5"",""254782""
""blur"",""6"",""258679""
""focus"",""7"",""268226""
""blur"",""8"",""292573""
""focus"",""9"",""382282""
""blur"",""10"",""384060""
""focus"",""10"",""593916""
""blur"",""38"",""628267""
""focus"",""39"",""891247""
""blur"",""40"",""893792""
""focus"",""41"",""964104""
""blur"",""42"",""965796""
""focus"",""43"",""1051374""
""blur"",""44"",""1054223""
""focus"",""44"",""1065967""
""blur"",""44"",""1067411""
""focus"",""45"",""1124069""
","""event"",""trial"",""time""
""blur"",""2"",""12502""
""blur"",""2"",""50159""
""blur"",""4"",""54521""
""blur"",""6"",""258679""
""blur"",""8"",""292573""
""blur"",""10"",""384060""
""blur"",""38"",""628267""
""blur"",""40"",""893792""
""blur"",""42"",""965796""
""blur"",""44"",""1054223""
""blur"",""44"",""1067411""
","""event"",""trial"",""time""
""focus"",""0"",""0""
""focus"",""2"",""12851""
""focus"",""3"",""51581""
""focus"",""5"",""254782""
""focus"",""7"",""268226""
""focus"",""9"",""382282""
""focus"",""10"",""593916""
""focus"",""39"",""891247""
""focus"",""41"",""964104""
""focus"",""43"",""1051374""
""focus"",""44"",""1065967""
""focus"",""45"",""1124069""
","""event"",""trial"",""time""
""fullscreenenter"",""0"",""4401""
","""event"",""trial"",""time""
""fullscreenexit"",""2"",""12865""
","null","<p></p>","null","","","","","","","","","","","","","","",""
"","do_trial","61","1187225","0.0-41.0-1.0","""event"",""trial"",""time""
""focus"",""0"",""0""
""fullscreenenter"",""0"",""4401""
""blur"",""2"",""12502""
""focus"",""2"",""12851""
""fullscreenexit"",""2"",""12865""
""blur"",""2"",""50159""
""focus"",""3"",""51581""
""blur"",""4"",""54521""
""focus"",""5"",""254782""
""blur"",""6"",""258679""
""focus"",""7"",""268226""
""blur"",""8"",""292573""
""focus"",""9"",""382282""
""blur"",""10"",""384060""
""focus"",""10"",""593916""
""blur"",""38"",""628267""
""focus"",""39"",""891247""
""blur"",""40"",""893792""
""focus"",""41"",""964104""
""blur"",""42"",""965796""
""focus"",""43"",""1051374""
""blur"",""44"",""1054223""
""focus"",""44"",""1065967""
""blur"",""44"",""1067411""
""focus"",""45"",""1124069""
","""event"",""trial"",""time""
""blur"",""2"",""12502""
""blur"",""2"",""50159""
""blur"",""4"",""54521""
""blur"",""6"",""258679""
""blur"",""8"",""292573""
""blur"",""10"",""384060""
""blur"",""38"",""628267""
""blur"",""40"",""893792""
""blur"",""42"",""965796""
""blur"",""44"",""1054223""
""blur"",""44"",""1067411""
","""event"",""trial"",""time""
""focus"",""0"",""0""
""focus"",""2"",""12851""
""focus"",""3"",""51581""
""focus"",""5"",""254782""
""focus"",""7"",""268226""
""focus"",""9"",""382282""
""focus"",""10"",""593916""
""focus"",""39"",""891247""
""focus"",""41"",""964104""
""focus"",""43"",""1051374""
""focus"",""44"",""1065967""
""focus"",""45"",""1124069""
","""event"",""trial"",""time""
""fullscreenenter"",""0"",""4401""
","""event"",""trial"",""time""
""fullscreenexit"",""2"",""12865""
","302","","","","","","","","49","1,0,1","","","","","","","",""
"","html-keyboard-response","62","1188227","0.0-42.0-0.0","""event"",""trial"",""time""
""focus"",""0"",""0""
""fullscreenenter"",""0"",""4401""
""blur"",""2"",""12502""
""focus"",""2"",""12851""
""fullscreenexit"",""2"",""12865""
""blur"",""2"",""50159""
""focus"",""3"",""51581""
""blur"",""4"",""54521""
""focus"",""5"",""254782""
""blur"",""6"",""258679""
""focus"",""7"",""268226""
""blur"",""8"",""292573""
""focus"",""9"",""382282""
""blur"",""10"",""384060""
""focus"",""10"",""593916""
""blur"",""38"",""628267""
""focus"",""39"",""891247""
""blur"",""40"",""893792""
""focus"",""41"",""964104""
""blur"",""42"",""965796""
""focus"",""43"",""1051374""
""blur"",""44"",""1054223""
""focus"",""44"",""1065967""
""blur"",""44"",""1067411""
""focus"",""45"",""1124069""
","""event"",""trial"",""time""
""blur"",""2"",""12502""
""blur"",""2"",""50159""
""blur"",""4"",""54521""
""blur"",""6"",""258679""
""blur"",""8"",""292573""
""blur"",""10"",""384060""
""blur"",""38"",""628267""
""blur"",""40"",""893792""
""blur"",""42"",""965796""
""blur"",""44"",""1054223""
""blur"",""44"",""1067411""
","""event"",""trial"",""time""
""focus"",""0"",""0""
""focus"",""2"",""12851""
""focus"",""3"",""51581""
""focus"",""5"",""254782""
""focus"",""7"",""268226""
""focus"",""9"",""382282""
""focus"",""10"",""593916""
""focus"",""39"",""891247""
""focus"",""41"",""964104""
""focus"",""43"",""1051374""
""focus"",""44"",""1065967""
""focus"",""45"",""1124069""
","""event"",""trial"",""time""
""fullscreenenter"",""0"",""4401""
","""event"",""trial"",""time""
""fullscreenexit"",""2"",""12865""
","null","<p></p>","null","","","","","","","","","","","","","","",""
"","do_trial","63","1193164","0.0-42.0-1.0","""event"",""trial"",""time""
""focus"",""0"",""0""
""fullscreenenter"",""0"",""4401""
""blur"",""2"",""12502""
""focus"",""2"",""12851""
""fullscreenexit"",""2"",""12865""
""blur"",""2"",""50159""
""focus"",""3"",""51581""
""blur"",""4"",""54521""
""focus"",""5"",""254782""
""blur"",""6"",""258679""
""focus"",""7"",""268226""
""blur"",""8"",""292573""
""focus"",""9"",""382282""
""blur"",""10"",""384060""
""focus"",""10"",""593916""
""blur"",""38"",""628267""
""focus"",""39"",""891247""
""blur"",""40"",""893792""
""focus"",""41"",""964104""
""blur"",""42"",""965796""
""focus"",""43"",""1051374""
""blur"",""44"",""1054223""
""focus"",""44"",""1065967""
""blur"",""44"",""1067411""
""focus"",""45"",""1124069""
","""event"",""trial"",""time""
""blur"",""2"",""12502""
""blur"",""2"",""50159""
""blur"",""4"",""54521""
""blur"",""6"",""258679""
""blur"",""8"",""292573""
""blur"",""10"",""384060""
""blur"",""38"",""628267""
""blur"",""40"",""893792""
""blur"",""42"",""965796""
""blur"",""44"",""1054223""
""blur"",""44"",""1067411""
","""event"",""trial"",""time""
""focus"",""0"",""0""
""focus"",""2"",""12851""
""focus"",""3"",""51581""
""focus"",""5"",""254782""
""focus"",""7"",""268226""
""focus"",""9"",""382282""
""focus"",""10"",""593916""
""focus"",""39"",""891247""
""focus"",""41"",""964104""
""focus"",""43"",""1051374""
""focus"",""44"",""1065967""
""focus"",""45"",""1124069""
","""event"",""trial"",""time""
""fullscreenenter"",""0"",""4401""
","""event"",""trial"",""time""
""fullscreenexit"",""2"",""12865""
","431","","","","","","","","49","1,1,0","","","","","","","",""
"","html-keyboard-response","64","1194168","0.0-43.0-0.0","""event"",""trial"",""time""
""focus"",""0"",""0""
""fullscreenenter"",""0"",""4401""
""blur"",""2"",""12502""
""focus"",""2"",""12851""
""fullscreenexit"",""2"",""12865""
""blur"",""2"",""50159""
""focus"",""3"",""51581""
""blur"",""4"",""54521""
""focus"",""5"",""254782""
""blur"",""6"",""258679""
""focus"",""7"",""268226""
""blur"",""8"",""292573""
""focus"",""9"",""382282""
""blur"",""10"",""384060""
""focus"",""10"",""593916""
""blur"",""38"",""628267""
""focus"",""39"",""891247""
""blur"",""40"",""893792""
""focus"",""41"",""964104""
""blur"",""42"",""965796""
""focus"",""43"",""1051374""
""blur"",""44"",""1054223""
""focus"",""44"",""1065967""
""blur"",""44"",""1067411""
""focus"",""45"",""1124069""
","""event"",""trial"",""time""
""blur"",""2"",""12502""
""blur"",""2"",""50159""
""blur"",""4"",""54521""
""blur"",""6"",""258679""
""blur"",""8"",""292573""
""blur"",""10"",""384060""
""blur"",""38"",""628267""
""blur"",""40"",""893792""
""blur"",""42"",""965796""
""blur"",""44"",""1054223""
""blur"",""44"",""1067411""
","""event"",""trial"",""time""
""focus"",""0"",""0""
""focus"",""2"",""12851""
""focus"",""3"",""51581""
""focus"",""5"",""254782""
""focus"",""7"",""268226""
""focus"",""9"",""382282""
""focus"",""10"",""593916""
""focus"",""39"",""891247""
""focus"",""41"",""964104""
""focus"",""43"",""1051374""
""focus"",""44"",""1065967""
""focus"",""45"",""1124069""
","""event"",""trial"",""time""
""fullscreenenter"",""0"",""4401""
","""event"",""trial"",""time""
""fullscreenexit"",""2"",""12865""
","null","<p></p>","null","","","","","","","","","","","","","","",""
"","do_trial","65","1198981","0.0-43.0-1.0","""event"",""trial"",""time""
""focus"",""0"",""0""
""fullscreenenter"",""0"",""4401""
""blur"",""2"",""12502""
""focus"",""2"",""12851""
""fullscreenexit"",""2"",""12865""
""blur"",""2"",""50159""
""focus"",""3"",""51581""
""blur"",""4"",""54521""
""focus"",""5"",""254782""
""blur"",""6"",""258679""
""focus"",""7"",""268226""
""blur"",""8"",""292573""
""focus"",""9"",""382282""
""blur"",""10"",""384060""
""focus"",""10"",""593916""
""blur"",""38"",""628267""
""focus"",""39"",""891247""
""blur"",""40"",""893792""
""focus"",""41"",""964104""
""blur"",""42"",""965796""
""focus"",""43"",""1051374""
""blur"",""44"",""1054223""
""focus"",""44"",""1065967""
""blur"",""44"",""1067411""
""focus"",""45"",""1124069""
","""event"",""trial"",""time""
""blur"",""2"",""12502""
""blur"",""2"",""50159""
""blur"",""4"",""54521""
""blur"",""6"",""258679""
""blur"",""8"",""292573""
""blur"",""10"",""384060""
""blur"",""38"",""628267""
""blur"",""40"",""893792""
""blur"",""42"",""965796""
""blur"",""44"",""1054223""
""blur"",""44"",""1067411""
","""event"",""trial"",""time""
""focus"",""0"",""0""
""focus"",""2"",""12851""
""focus"",""3"",""51581""
""focus"",""5"",""254782""
""focus"",""7"",""268226""
""focus"",""9"",""382282""
""focus"",""10"",""593916""
""focus"",""39"",""891247""
""focus"",""41"",""964104""
""focus"",""43"",""1051374""
""focus"",""44"",""1065967""
""focus"",""45"",""1124069""
","""event"",""trial"",""time""
""fullscreenenter"",""0"",""4401""
","""event"",""trial"",""time""
""fullscreenexit"",""2"",""12865""
","305","","","","","","","","49","0,0,1","","","","","","","",""
"","html-keyboard-response","66","1199982","0.0-44.0-0.0","""event"",""trial"",""time""
""focus"",""0"",""0""
""fullscreenenter"",""0"",""4401""
""blur"",""2"",""12502""
""focus"",""2"",""12851""
""fullscreenexit"",""2"",""12865""
""blur"",""2"",""50159""
""focus"",""3"",""51581""
""blur"",""4"",""54521""
""focus"",""5"",""254782""
""blur"",""6"",""258679""
""focus"",""7"",""268226""
""blur"",""8"",""292573""
""focus"",""9"",""382282""
""blur"",""10"",""384060""
""focus"",""10"",""593916""
""blur"",""38"",""628267""
""focus"",""39"",""891247""
""blur"",""40"",""893792""
""focus"",""41"",""964104""
""blur"",""42"",""965796""
""focus"",""43"",""1051374""
""blur"",""44"",""1054223""
""focus"",""44"",""1065967""
""blur"",""44"",""1067411""
""focus"",""45"",""1124069""
","""event"",""trial"",""time""
""blur"",""2"",""12502""
""blur"",""2"",""50159""
""blur"",""4"",""54521""
""blur"",""6"",""258679""
""blur"",""8"",""292573""
""blur"",""10"",""384060""
""blur"",""38"",""628267""
""blur"",""40"",""893792""
""blur"",""42"",""965796""
""blur"",""44"",""1054223""
""blur"",""44"",""1067411""
","""event"",""trial"",""time""
""focus"",""0"",""0""
""focus"",""2"",""12851""
""focus"",""3"",""51581""
""focus"",""5"",""254782""
""focus"",""7"",""268226""
""focus"",""9"",""382282""
""focus"",""10"",""593916""
""focus"",""39"",""891247""
""focus"",""41"",""964104""
""focus"",""43"",""1051374""
""focus"",""44"",""1065967""
""focus"",""45"",""1124069""
","""event"",""trial"",""time""
""fullscreenenter"",""0"",""4401""
","""event"",""trial"",""time""
""fullscreenexit"",""2"",""12865""
