"success","trial_type","trial_index","time_elapsed","internal_node_id","rt","stimulus","key_press","subject_id","response","choice_outcomes","context_n","context_img_id","trial_n","probe_img_id","pR_red","pR_white","pR_black","outcome","is_valid","image_to_show","probed_trial","probed_context","correct","context_id"
"true","fullscreen","0","3988","0.0-0.0","","","","","","","","","","","","","","","","","","","",""
"","pavlovia","1","3994","0.0-1.0","","","","","","","","","","","","","","","","","","","",""
"","html-keyboard-response","2","56617","0.0-2.0","52619.000000000015","<div class='center'><p>Welcome! This experiment will last ~1 hour. In this experiment, you are the head captain of a pirate ship traveling around the world to different places. You will complete several different tasks during this experiment. Here is an overview of these tasks:</p><br><p>1. Tutorial and quiz</p><p>2. Pick a pirate game in 6 different places</p><p>3. Pick a pirate game and memory game</p><p>4. Final questions and payment</p><br><p>If you complete the entire experiment, you will receive $15 and a possible bonus payment.</p><p><b>[Press the space bar to begin the tutorial]</b></p></div>","32","60ff0c0cb29307056ece0369","","","","","","","","","","","","","","","",""
"","html-keyboard-response","3","74995","0.0-3.0","18377.000000000015","<div class='center'><p>You are the head captain of a pirate ship.</p><p> Your pirates rob other ships as they leave the marketplace port.</p> These ships have just sold all their goods at the marketplace, so they have lots and lots of gold on them.</p><p><img src='run_exp/static/images/ship_center.png' height='400'></p><p><b>[Press the space bar to continue]</b></p></div>","32","","","","","","","","","","","","","","","","",""
"","html-keyboard-response","4","83201","0.0-4.0","8204","<div class='center'><p>As the head captain, you do not have to rob any ships yourself.</p><p>You get to choose which pirate you want to rob the next ship. </p><p>If they are successful at robbing the ship, then you will get gold coins.</p><p> If they are not successful, then you will get no gold coins.</p><p> The more coins you collect, the more bonus money you will win. So, choose your pirate wisely.</p><p><img src='run_exp/static/images/goal.png' height='400'></p><p><b>[Press the space bar to continue]</b></p><div>","32","","","","","","","","","","","","","","","","",""
"","html-keyboard-response","5","90607","0.0-5.0","7404.999999999985","<div class='center'><p>Even the most skilled pirate will not be able to rob EVERY ship.</p><p> Some ships will have very strong defenses against attacks.</p><p> For example, blue beard, here,  is very good at robbing ships.</p><p> You can press the <b>‘1’</b> button on the keyboard to choose him.</p><p> Try choosing him 10 times to see how often he is successful at robbing ships. </p><p><img src='run_exp/static/images/blue.png' height='500'></p></div>","49","","","","","","","","","","","","","","","","",""
"","html-keyboard-response","6","92110","0.0-6.0","null","<br><br><br><br><p><img src='run_exp/static/images/blue_win.png' height='500'></p>","null","","","","","","","","","","","","","","","","",""
"","html-keyboard-response","7","93233","0.0-7.0","1121.9999999999854","<br><br><br><br><p><img src='run_exp/static/images/blue.png' height='500'></p>","49","","","","","","","","","","","","","","","","",""
"","html-keyboard-response","8","94735","0.0-8.0","null","<br><br><br><br><p><img src='run_exp/static/images/blue_win.png' height='500'></p>","null","","","","","","","","","","","","","","","","",""
"","html-keyboard-response","9","95481","0.0-9.0","745","<br><br><br><br><p><img src='run_exp/static/images/blue.png' height='500'></p>","49","","","","","","","","","","","","","","","","",""
"","html-keyboard-response","10","96982","0.0-10.0","null","<br><br><br><br><p><img src='run_exp/static/images/blue_win.png' height='500'></p>","null","","","","","","","","","","","","","","","","",""
"","html-keyboard-response","11","97674","0.0-11.0","690","<br><br><br><br><p><img src='run_exp/static/images/blue.png' height='500'></p>","49","","","","","","","","","","","","","","","","",""
"","html-keyboard-response","12","99175","0.0-12.0","null","<br><br><br><br><p><img src='run_exp/static/images/blue_no_win.png' height='500'></p>","null","","","","","","","","","","","","","","","","",""
"","html-keyboard-response","13","99903","0.0-13.0","727","<br><br><br><br><p><img src='run_exp/static/images/blue.png' height='500'></p>","49","","","","","","","","","","","","","","","","",""
"","html-keyboard-response","14","101406","0.0-14.0","null","<br><br><br><br><p><img src='run_exp/static/images/blue_win.png' height='500'></p>","null","","","","","","","","","","","","","","","","",""
"","html-keyboard-response","15","102036","0.0-15.0","630","<br><br><br><br><p><img src='run_exp/static/images/blue.png' height='500'></p>","49","","","","","","","","","","","","","","","","",""
"","html-keyboard-response","16","103539","0.0-16.0","null","<br><br><br><br><p><img src='run_exp/static/images/blue_win.png' height='500'></p>","null","","","","","","","","","","","","","","","","",""
"","html-keyboard-response","17","104584","0.0-17.0","1043","<br><br><br><br><p><img src='run_exp/static/images/blue.png' height='500'></p>","49","","","","","","","","","","","","","","","","",""
"","html-keyboard-response","18","106086","0.0-18.0","null","<br><br><br><br><p><img src='run_exp/static/images/blue_win.png' height='500'></p>","null","","","","","","","","","","","","","","","","",""
"","html-keyboard-response","19","106830","0.0-19.0","743","<br><br><br><br><p><img src='run_exp/static/images/blue.png' height='500'></p>","49","","","","","","","","","","","","","","","","",""
"","html-keyboard-response","20","108332","0.0-20.0","null","<br><br><br><br><p><img src='run_exp/static/images/blue_no_win.png' height='500'></p>","null","","","","","","","","","","","","","","","","",""
"","html-keyboard-response","21","109084","0.0-21.0","751.0000000000291","<br><br><br><br><p><img src='run_exp/static/images/blue.png' height='500'></p>","49","","","","","","","","","","","","","","","","",""
"","html-keyboard-response","22","110586","0.0-22.0","null","<br><br><br><br><p><img src='run_exp/static/images/blue_win.png' height='500'></p>","null","","","","","","","","","","","","","","","","",""
"","html-keyboard-response","23","111314","0.0-23.0","727","<br><br><br><br><p><img src='run_exp/static/images/blue.png' height='500'></p>","49","","","","","","","","","","","","","","","","",""
"","html-keyboard-response","24","112816","0.0-24.0","null","<br><br><br><br><p><img src='run_exp/static/images/blue_win.png' height='500'></p>","null","","","","","","","","","","","","","","","","",""
"","html-keyboard-response","25","115442","0.0-25.0","2624","<div class='center'><p> See, he was successful at robbing the ships most of the time but not every time. </p><p><b>[Press the space bar to continue]</b></p></div>","32","","","","","","","","","","","","","","","","",""
"","html-keyboard-response","26","120124","0.0-26.0","4679","<div class='center'><p>In the game, you will get to choose which of three pirates you want to rob the next ship. <p>Press the <b>‘1’</b> button on your keyboard to pick the pirate with the red beard.</p><p> Press <b>‘2’</b> to pick the pirate with the white beard.</p><p> Press <b>‘3’</b> to pick the pirate with the black beard.</p><p>Try picking a pirate now!</p><p><img src='run_exp/static/images/all_pirates.png' height='500'></p></div>","51","","","","","","","","","","","","","","","","",""
"","html-keyboard-response","27","121875","0.0-27.0-0.0","1749","<div class='center'><p>This pirate was successful at robbing the ship!</p><p><img src='run_exp/static/images/black_win.png' height='500'></p><p><b>[Press the space bar to continue]</b></p></div>","32","","","","","","","","","","","","","","","","",""
"","html-keyboard-response","28","124240","0.0-27.0-1.0","2363.000000000029","<div class='center'><p>Now try choosing another</p><p><img src='run_exp/static/images/all_pirates.png' height='500'></p></div>","49","","","","","","","","","","","","","","","","",""
"","html-keyboard-response","29","125457","0.0-28.0-0.0","1215","<div class='center'><p>This pirate was not successful at robbing the ship!</p><p><img src='run_exp/static/images/red_no_win.png' height='500'></p><p><b>[Press the space bar to continue]</b></p></div>","32","","","","","","","","","","","","","","","","",""
"","html-keyboard-response","30","128267","0.0-29.0-0.0","2810","<div class='center'><p>You’ll stop at these 6 places on your journey.</p><p><img src='run_exp/static/images/all_contexts.png' height='500'></p><p><b>[Press the space bar to continue]</b></p></div>","32","","","","","","","","","","","","","","","","",""
"","html-keyboard-response","31","133040","0.0-29.0-1.0","4772","<div class='center'><p>How good a pirate is at robbing ships will depend on the current place.</p><p> Some pirates will have been to the place before, and will have more experience robbing ships there.</p><p>So, they will be more successful at stealing gold and bringing it back to you.</p><p><b>[Press the space bar to continue]</b></p></div>","32","","","","","","","","","","","","","","","","",""
"","html-keyboard-response","32","140494","0.0-29.0-2.0","7453","<div class='center'><p>How successful a pirate is at robbing ships can also change in a place.<p> Ships may hear about the pirates coming and will improve their defenses. This may make it more difficult to rob them.</p><p> Ships may also grow lazy and lower their defenses. This may make it easier to rob them.</p><br><p>Things are always changing on the high seas! So, try your best to pay attention!</p><p><img src='run_exp/static/images/contingency.png' height='500'></p><p><b>[Press the space bar to continue]</b></p></div>","32","","","","","","","","","","","","","","","","",""
"","html-keyboard-response","33","160011","0.0-29.0-3.0","19513.99999999997","<div class='center'><p>Once you choose a pirate to rob a ship, you’ll be shown the ship they are robbing.</p><p>The ship will have a picture of the item they sold at the marketplace.</p><p> Try your best to remember the ship and where you saw the ship.</p><p> You’ll have to remember this for later, and remembering this correctly will help you win more bonus money!</p><p>You can remember the ship by remembering the item they sold at the marketplace</p><p>A helpful strategy is to try to come up with a story of the chosen pirate and ship’s item interacting with the scene.</p><p> For example, a ship might have sold travel mugs and you could imagine red beard walking through the city with a travel mug. </p><p>Or imagine an apple falling from a tree into white beard's hands in the forest.</p><p><img src='run_exp/static/images/example_probe.png' height='500'></p><p><b>[Press the space bar to continue]</b></p></div>","32","","","","","","","","","","","","","","","","",""
"","html-keyboard-response","34","164216","0.0-29.0-4.0","4203","<div class='center'><p>If you don’t make your choice fast enough, you’ll have to wait a few seconds before you can make another one. </p><p>You can’t win more gold. You just have to sit and wait.</p><p><img src='run_exp/static/images/hurry_up.png' height='500'></p><p><b>[Press the space bar to continue]</b></p></div>","32","","","","","","","","","","","","","","","","",""
"","html-keyboard-response","35","185938","0.0-29.0-5.0","21720","<div class='center'><p>Again, you have two important things to do: </p><b><p> 1. Pick the pirate who you think will be most successful at robbing the next ship.</p></b><b><p> 2. Remember where a pirate robbed a ship.</p> </b><p>Both are important in determining how much bonus money you’ll win.</p><br><p>Let’s try a practice game. The game will start by showing you the pirates. First pick a pirate using the <b> 1, 2, 3 </b> buttons on your keyboard. When you are shown a ship, try to remember the place you’re in by making up a story.</p><p> You only have 3 seconds to pick a pirate, so please make a choice quickly! If you are too slow, you’ll have to wait a bit during the time out.</p><p> Don’t feel rushed, but please do try to make a choice every time.</p><p>How good a pirate is at robbing a ship will change depending on the place they are in and how good the defenses are of the ship.</p> <p>This is just a practice game, so you’re not playing for money. </p><p>You’ll receive a bag which may or may not contain gold coins.</p><p> In the real game, though, you’ll be able to see whether or not you received the gold coins.</p><p> Good luck, remember press <b>'1'</b> to choose red beard, <b>'2'</b> to choose white beard, and <b>'3'</b> to choose black beard</p><p><b>[Press the space bar to begin the practice game]</b></p></div>","32","","","","","","","","","","","","","","","","",""
"","do_trial_prac","36","191296","0.0-29.0-6.0","851","","","","51","","","","","","","","","","","","","","",""
"","do_trial_prac","37","197303","0.0-29.0-7.0","null","","","","null","","","","","","","","","","","","","","",""
"","do_trial_prac","38","202849","0.0-29.0-8.0","1040","","","","50","","","","","","","","","","","","","","",""
"","do_trial_prac","39","208857","0.0-29.0-9.0","null","","","","null","","","","","","","","","","","","","","",""
"","do_trial_prac","40","214069","0.0-29.0-10.0","706","","","","51","","","","","","","","","","","","","","",""
"","html-keyboard-response","41","218870","0.0-29.0-11.0","4799.000000000029","<div class='center'><p>Great job on the practice game!</p><p> Now, you will be asked you some true or false questions to make sure you really understand the rules of the game.</p><p> Press <b>'1'</b> on the keyboard for true and press <b>'2'</b> for false.</p><p><b>[Press the space bar to begin the quiz]</b></p></div>","32","","","","","","","","","","","","","","","","",""
"","html-keyboard-response","42","222548","0.0-29.0-12.0","3676","<div class='center'><p>You win bonus money by making choices as fast as possible.</p><p>Press 1 for true and press  2 for false.</p></div>","49","","","","","","","","","","","","","","","","",""
"","html-keyboard-response","43","224411","0.0-30.0-0.0","1861","<br><br><br><br><p>That’s incorrect! You win bonus money by collecting as many gold coins as possible!</p><p><b>[press the space bar to continue with the quiz]</b></p>","32","","","","","","","","","","","","","","","","",""
"","html-keyboard-response","44","227658","0.0-30.0-1.0","3245","<div class='center'><p>You press the <b>‘3’</b> button on the keyboard to choose the red bearded pirate? </p><p>Press 1 for true and press  2 for false.</p></div>","50","","","","","","","","","","","","","","","","",""
"","html-keyboard-response","45","228492","0.0-31.0-0.0","833","<br><br><br><br><p>That's correct!</p> <p><b>[press the space bar to continue with the quiz]</b></p>","32","","","","","","","","","","","","","","","","",""
"","html-keyboard-response","46","230486","0.0-31.0-1.0","1993","<div class='center'><p>A pirate will always be equally successful at robbing ships in each place</p><p>Press 1 for true and press  2 for false.</p></div>","50","","","","","","","","","","","","","","","","",""
"","html-keyboard-response","47","231127","0.0-32.0-0.0","640","<br><br><br><br><p>That's correct!</p> <p><b>[press the space bar to continue with the quiz]</b></p>","32","","","","","","","","","","","","","","","","",""
"","html-keyboard-response","48","232630","0.0-32.0-1.0","1501","<div class='center'><p>You should remember the place where a pirate robbed a ship.</p><p>Press 1 for true and press  2 for false.</p></div>","49","","","","","","","","","","","","","","","","",""
"","html-keyboard-response","49","233093","0.0-33.0-0.0","462","<br><br><br><br><p>That's correct!</p> <p><b>[press the space bar to continue with the quiz]</b></p>","32","","","","","","","","","","","","","","","","",""
"","html-keyboard-response","50","235796","0.0-34.0-0.0","2702","<br><br><br><br><p>Oops, you missed some questions. Now that you’ve heard the correct answers. Try the quiz again! If you fail the quiz too many times, you won’t be able to do the experiment. </p> <p><br>[press the space bar to repeat the quiz]</br></p>","32","","","","","","","","","","","","","","","","",""
"","html-keyboard-response","51","237458","0.0-34.0-1.0","1660","<div class='center'><p>You win bonus money by making choices as fast as possible.</p><p>Press 1 for true and press  2 for false.</p></div>","50","","","","","","","","","","","","","","","","",""
"","html-keyboard-response","52","238126","0.0-35.0-0.0","667","<br><br><br><br><p>That's correct!</p> <p><b>[press the space bar to continue with the quiz]</b></p>","32","","","","","","","","","","","","","","","","",""
"","html-keyboard-response","53","241068","0.0-35.0-1.0","2940","<div class='center'><p>You press the <b>‘3’</b> button on the keyboard to choose the red bearded pirate? </p><p>Press 1 for true and press  2 for false.</p></div>","50","","","","","","","","","","","","","","","","",""
"","html-keyboard-response","54","241428","0.0-36.0-0.0","359","<br><br><br><br><p>That's correct!</p> <p><b>[press the space bar to continue with the quiz]</b></p>","32","","","","","","","","","","","","","","","","",""
"","html-keyboard-response","55","242444","0.0-36.0-1.0","1013","<div class='center'><p>A pirate will always be equally successful at robbing ships in each place</p><p>Press 1 for true and press  2 for false.</p></div>","50","","","","","","","","","","","","","","","","",""
"","html-keyboard-response","56","242706","0.0-37.0-0.0","262","<br><br><br><br><p>That's correct!</p> <p><b>[press the space bar to continue with the quiz]</b></p>","32","","","","","","","","","","","","","","","","",""
"","html-keyboard-response","57","244470","0.0-37.0-1.0","1763","<div class='center'><p>You should remember the place where a pirate robbed a ship.</p><p>Press 1 for true and press  2 for false.</p></div>","49","","","","","","","","","","","","","","","","",""
"","html-keyboard-response","58","244950","0.0-38.0-0.0","470","<br><br><br><br><p>That's correct!</p> <p><b>[press the space bar to continue with the quiz]</b></p>","32","","","","","","","","","","","","","","","","",""
"","html-keyboard-response","59","246151","0.0-39.0-0.0","1200","<br><br><br><br><p>Good job! You’re now ready to move on to the real game!</p> <p><br>[press the space bar to begin!]</br></p>","32","","","","","","","","","","","","","","","","",""
"","do_welcome","60","247656","0.0-40.0-0.0","null","","","","null","","","","","","","","","","","","","","",""
"","do_trial","61","254417","0.0-41.0-0.0","1222","","","","50","1,1,0","0","coast","0","probe-57","1","0.4","0.1","1","","","","","",""
"","do_trial","62","261063","0.0-42.0-0.0","1107.0000000000582","","","","51","1,0,0","0","coast","1","probe-218","1","0.36366776540973916","0.0752026975356623","0","","","","","",""
"","do_trial","63","267389","0.0-43.0-0.0","790.9999999999418","","","","49","1,0,0","0","coast","2","probe-107","1","0.40240769035122215","0.08262561854547132","1","","","","","",""
"","do_trial","64","273972","0.0-44.0-0.0","1042","","","","51","1,0,0","0","coast","3","probe-180","1","0.30960629110889587","0.05927203042119339","0","","","","","",""
"","do_trial","65","279884","0.0-45.0-0.0","376","","","","50","1,1,0","0","coast","4","probe-24","0.9260342769905748","0.18777464133059282","0.10453065038787891","1","","","","","",""
"","do_trial","66","286030","0.0-46.0-0.0","611","","","","50","1,0,0","0","coast","5","probe-183","0.9444354423178142","0.17063049813188896","0.1475933818134162","0","","","","","",""
"","do_trial","67","291984","0.0-47.0-0.0","417","","","","49","1,0,1","0","coast","6","probe-16","0.9381197016528973","0.2906267015912793","0.2461304358555834","1","","","","","",""
"","do_trial","68","298101","0.0-48.0-0.0","577","","","","50","1,0,1","0","coast","7","probe-113","0.9342324504101697","0.4419240935131412","0.21138279831866943","0","","","","","",""
"","do_trial","69","304060","0.0-49.0-0.0","419","","","","51","0,0,0","0","coast","8","probe-20","0.7708126401662283","0.2856876343720662","0.2454541247804521","0","","","","","",""
"","do_trial","70","310052","0.0-50.0-0.0","443","","","","49","1,0,0","0","coast","9","probe-26","0.8125939978955206","0.3354667951605245","0.19770572536227776","1","","","","","",""
"","do_trial","71","316004","0.0-51.0-0.0","399.9999999999418","","","","50","0,0,0","0","coast","10","probe-162","0.6261646109765155","0.24461399310388662","0.37557941175423215","0","","","","","",""
"","do_trial","72","321886","0.0-52.0-0.0","336","","","","49","0,1,0","0","coast","11","probe-66","0.5749555402337063","0.3071199064038645","0.5005958737438672","0","","","","","",""
"","do_trial","73","327803","0.0-53.0-0.0","371","","","","51","1,0,1","0","coast","12","probe-51","0.5255812505470797","0.13854120958663566","0.5060900965742043","1","","","","","",""
"","do_trial","74","333785","0.0-54.0-0.0","430","","","","49","0,0,0","0","coast","13","probe-134","0.35952057834452233","0.07309179475165141","0.646523352913026","0","","","","","",""
"","do_trial","75","339873","0.0-55.0-0.0","542","","","","50","0,0,0","0","coast","14","probe-39","0.22851404090625935","0.09314690196765564","0.7152164439709668","0","","","","","",""
"","do_trial","76","345847","0.0-56.0-0.0","429","","","","49","0,0,1","0","coast","15","probe-221","0.30262965031872396","0.09910923592903366","0.8392402330584243","0","","","","","",""
"","do_trial","77","351912","0.0-57.0-0.0","524","","","","50","0,0,1","0","coast","16","probe-124","0.2801233385221702","0.1549097978339096","0.6950769553695286","0","","","","","",""
"","do_trial","78","357853","0.0-58.0-0.0","404","","","","51","1,0,1","0","coast","17","probe-166","0.45901636690080405","0.07876428250062617","0.8158879187520327","1","","","","","",""
"","do_trial","79","364085","0.0-59.0-0.0","692.0000000000582","","","","50","0,0,0","0","coast","18","probe-240","0.3309172884068211","0.09850691724224171","0.800204883682735","0","","","","","",""
"","do_trial","80","370015","0.0-60.0-0.0","391","","","","51","0,0,1","0","coast","19","probe-192","0.4029548391242586","0.1298430775531276","0.7954627767000009","1","","","","","",""
"","do_trial","81","375971","0.0-61.0-0.0","418","","","","49","0,1,1","0","coast","20","probe-77","0.3257995473849168","0.17634589021345196","0.7539576801541893","0","","","","","",""
"","do_trial","82","381970","0.0-62.0-0.0","462","","","","51","0,0,1","0","coast","21","probe-41","0.33542032290803236","0.05816203883275629","0.806309720340509","1","","","","","",""
"","do_trial","83","387841","0.0-63.0-0.0","333.0000000000582","","","","50","0,0,1","0","coast","22","probe-239","0.5224186467722239","0.05566830009842139","0.9442775605809988","0","","","","","",""
"","do_trial","84","393800","0.0-64.0-0.0","418.0000000000582","","","","51","1,0,1","0","coast","23","probe-110","0.4217524601303657","0.10885550339894363","0.8332138384306399","1","","","","","",""
"","do_trial","85","400092","0.0-65.0-0.0","755","","","","49","0,0,1","0","coast","24","probe-115","0.3968665405552023","0.06967389868700608","0.8881556071141435","0","","","","","",""
"","do_trial","86","406105","0.0-66.0-0.0","477","","","","51","0,0,1","0","coast","25","probe-54","0.28522876026089256","0.14686223496390746","0.8817023054414002","1","","","","","",""
"","do_trial","87","412133","0.0-67.0-0.0","491","","","","51","0,0,0","0","coast","26","probe-206","0.2751798625060539","0.2699100206893463","0.8369117173967066","0","","","","","",""
"","do_trial","88","418075","0.0-68.0-0.0","404.0000000000582","","","","50","0,1,1","0","coast","27","probe-11","0.36460707618276295","0.11556807991386546","0.8137858431526503","1","","","","","",""
"","do_trial","89","424359","0.0-69.0-0.0","746","","","","49","0,0,1","0","coast","28","probe-159","0.42661083883495543","0.12439639530802395","0.8053986270690158","0","","","","","",""
"","do_trial","90","430312","0.0-70.0-0.0","413","","","","51","0,0,0","0","coast","29","probe-130","0.5313250408658389","0.10342955930634444","0.7693937416063227","0","","","","","",""
"","do_trial","91","436230","0.0-71.0-0.0","380","","","","50","0,0,0","0","coast","30","probe-03","0.4859435848843605","0.050784368712806574","0.7491543440520653","0","","","","","",""
"","do_trial","92","442135","0.0-72.0-0.0","367.0000000000582","","","","51","1,0,1","0","coast","31","probe-213","0.5061375572772219","0.06319380705502639","0.8068716979386481","1","","","","","",""
"","do_trial","93","448198","0.0-73.0-0.0","525","","","","49","1,0,1","0","coast","32","probe-152","0.41591946076136266","0.15324214558980295","0.8426026191913657","1","","","","","",""
"","do_trial","94","454189","0.0-74.0-0.0","449.9999999999418","","","","51","0,1,1","0","coast","33","probe-158","0.5341668988682463","0.08859204659053287","0.9039567770088277","1","","","","","",""
"","do_trial","95","460168","0.0-75.0-0.0","442.9999999999418","","","","50","1,0,1","0","coast","34","probe-29","0.5954901781649352","0.06525553779935285","0.8689173242430589","0","","","","","",""
"","do_trial","96","466074","0.0-76.0-0.0","369","","","","51","0,1,1","0","coast","35","probe-28","0.6040549671552754","0.1052792545782355","0.9196758477496879","1","","","","","",""
"","do_trial","97","472197","0.0-77.0-0.0","582","","","","51","1,0,1","0","coast","36","probe-202","0.46364868361858047","0.09613672767008974","0.7664874488360658","1","","","","","",""
"","do_trial","98","478174","0.0-78.0-0.0","438","","","","51","1,0,1","0","coast","37","probe-127","0.4007971661425721","0.05375998026664787","0.6992570834558001","1","","","","","",""
"","do_trial","99","484246","0.0-79.0-0.0","537","","","","50","0,0,1","0","coast","38","probe-228","0.4305905788296157","0.1132806065242125","0.7646265053978283","0","","","","","",""
"","do_trial","100","490301","0.0-80.0-0.0","519","","","","51","0,0,0","0","coast","39","probe-232","0.3070052934158497","0.18753046513260707","0.7804543760918063","0","","","","","",""
"","do_bye","101","491808","0.0-81.0-0.0","null","","","","null","","","","","","","","","","","","","","",""
"","do_travel","102","497811","0.0-82.0-0.0","null","","","","null","","","","","","","","","","","","","","",""
"","do_welcome","103","499316","0.0-82.0-1.0","null","","","","null","","","","","","","","","","","","","","",""
"","do_trial","104","506047","0.0-83.0-0.0","1194.0000000001164","","","","51","0,0,1","1","city","40","probe-122","0.31981260675481316","0.1945500012221738","1","1","","","","","",""
"","do_trial","105","512115","0.0-84.0-0.0","532","","","","49","0,0,1","1","city","41","probe-175","0.32778629814631155","0.11703538006660043","1","0","","","","","",""
"","do_trial","106","518143","0.0-85.0-0.0","490","","","","50","1,0,1","1","city","42","probe-186","0.37532545847086213","0.09319062657628437","1","0","","","","","",""
"","do_trial","107","524148","0.0-86.0-0.0","469","","","","51","1,0,1","1","city","43","probe-189","0.40868115889873863","0.07588581049063903","1","1","","","","","",""
"","do_trial","108","530183","0.0-87.0-0.0","499","","","","51","0,0,0","1","city","44","probe-141","0.3041176596871839","0.08521797148298657","0.8686190290465985","0","","","","","",""
"","do_trial","109","536452","0.0-88.0-0.0","732","","","","50","0,0,1","1","city","45","probe-48","0.3378671719541926","0.11820982378917448","0.741174278451959","0","","","","","",""
"","do_trial","110","542586","0.0-89.0-0.0","597","","","","51","1,0,1","1","city","46","probe-69","0.3704597797248359","0.07587442504556362","0.8472038062853724","1","","","","","",""
"","do_trial","111","548586","0.0-90.0-0.0","463","","","","51","0,0,1","1","city","47","probe-67","0.32317969982312256","0.10216152105981131","0.7928738725768781","1","","","","","",""
"","do_trial","112","554807","0.0-91.0-0.0","677","","","","51","0,0,1","1","city","48","probe-36","0.4612472468274813","0.14881748977145126","0.7233073311635322","1","","","","","",""
"","do_trial","113","561039","0.0-92.0-0.0","695","","","","51","1,0,1","1","city","49","probe-140","0.4384264982024246","0.0552981321455669","0.8209037727627313","1","","","","","",""
"","do_trial","114","567194","0.0-93.0-0.0","619","","","","51","0,1,0","1","city","50","probe-56","0.5221375503317732","0.48091018077551567","0.35934574309711637","0","","","","","",""
"","do_trial","115","573200","0.0-94.0-0.0","469","","","","50","1,0,0","1","city","51","probe-238","0.4973265793108253","0.42264074674241825","0.12804682158027839","0","","","","","",""
"","do_trial","116","579100","0.0-95.0-0.0","363","","","","51","1,1,0","1","city","52","probe-38","0.40861098956261876","0.5370593525904785","0.14911182662654388","0","","","","","",""
"","do_trial","117","585010","0.0-96.0-0.0","373","","","","49","1,1,0","1","city","53","probe-199","0.39645592182689826","0.6034195302208449","0.20978870773667269","1","","","","","",""
"","do_trial","118","591229","0.0-97.0-0.0","683","","","","51","0,1,0","1","city","54","probe-171","0.33340539502662936","0.6940767346854082","0.21935325061627498","0","","","","","",""
"","do_trial","119","597153","0.0-98.0-0.0","387","","","","50","1,1,0","1","city","55","probe-217","0.2842594706637152","0.6166743435299219","0.30459963830267495","1","","","","","",""
"","do_trial","120","603095","0.0-99.0-0.0","407","","","","50","1,1,0","1","city","56","probe-148","0.35928482861373234","0.7994078377567189","0.13070711979067925","1","","","","","",""
"","do_trial","121","608974","0.0-100.0-0.0","344","","","","50","1,1,1","1","city","57","probe-172","0.48618030187091893","0.8020845153299891","0.10469646501244437","1","","","","","",""
"","do_trial","122","614915","0.0-101.0-0.0","407","","","","51","0,1,0","1","city","58","probe-91","0.36407441162490317","0.8151254306746947","0.08214720290416182","0","","","","","",""
"","do_trial","123","620830","0.0-102.0-0.0","384","","","","49","0,1,0","1","city","59","probe-33","0.3792824226419645","0.8555968514896946","0.10971713206847392","0","","","","","",""
"","do_trial","124","626990","0.0-103.0-0.0","619","","","","51","1,1,0","1","city","60","probe-129","0.3404343007096176","0.7887994976156606","0.10286325498476627","0","","","","","",""
"","do_trial","125","632868","0.0-104.0-0.0","332.0000000001164","","","","50","0,1,0","1","city","61","probe-205","0.3078928430993187","0.6792876194533429","0.06867612694129002","1","","","","","",""
"","do_trial","126","638917","0.0-105.0-0.0","511","","","","50","1,1,0","1","city","62","probe-233","0.11481580760453713","0.885709243307052","0.07599508173691259","1","","","","","",""
"","do_trial","127","644873","0.0-106.0-0.0","414.0000000001164","","","","51","1,0,0","1","city","63","probe-52","0.27482802661714095","0.9233792403446716","0.10758273634330232","0","","","","","",""
"","do_trial","128","650964","0.0-107.0-0.0","553","","","","50","1,1,1","1","city","64","probe-150","0.31690216965751417","0.7962229267150177","0.17883254666348003","1","","","","","",""
"","do_trial","129","656971","0.0-108.0-0.0","469","","","","50","1,1,0","1","city","65","probe-173","0.323828432454587","0.770683553920275","0.1927922794685464","1","","","","","",""
"","do_trial","130","663466","0.0-109.0-0.0","955","","","","51","0,0,0","1","city","66","probe-62","0.2586767666900228","0.7990085616968857","0.07868155472473333","0","","","","","",""
"","do_trial","131","669394","0.0-110.0-0.0","393","","","","51","0,1,0","1","city","67","probe-139","0.21922044613454383","0.5781543601549852","0.05517867271542383","0","","","","","",""
"","do_trial","132","675389","0.0-111.0-0.0","456","","","","50","0,1,0","1","city","68","probe-12","0.3480554470808787","0.6602610173845244","0.06971548517423216","1","","","","","",""
"","do_trial","133","681306","0.0-112.0-0.0","380","","","","50","0,1,0","1","city","69","probe-226","0.354461599724819","0.6277646353886037","0.09374981733704128","1","","","","","",""
"","do_trial","134","687337","0.0-113.0-0.0","493","","","","49","1,1,0","1","city","70","probe-13","0.49270020370946227","0.71463046247306","0.09627495219426133","1","","","","","",""
"","do_trial","135","693476","0.0-114.0-0.0","602.0000000001164","","","","49","0,1,1","1","city","71","probe-170","0.4450016680428441","0.8963682578584364","0.1131100767018408","0","","","","","",""
"","do_trial","136","699836","0.0-115.0-0.0","818","","","","51","0,1,1","1","city","72","probe-09","0.4221989931079277","0.9378071369416197","0.055166454242045956","1","","","","","",""
"","do_trial","137","705732","0.0-116.0-0.0","359","","","","51","1,1,1","1","city","73","probe-89","0.3742635418899395","0.9437876068128244","0.17825787559822595","1","","","","","",""
"","do_trial","138","711654","0.0-117.0-0.0","385","","","","50","0,1,0","1","city","74","probe-229","0.4919922737311693","0.9360344495238156","0.07804445804510944","1","","","","","",""
"","do_trial","139","717705","0.0-118.0-0.0","515","","","","51","0,1,0","1","city","75","probe-234","0.4802025001670508","0.8866609936121078","0.13090874075481213","0","","","","","",""
"","do_trial","140","723619","0.0-119.0-0.0","376","","","","49","0,1,1","1","city","76","probe-195","0.5480916372732364","0.8232779256015195","0.10192588158447213","0","","","","","",""
"","do_trial","141","729488","0.0-120.0-0.0","332","","","","50","1,1,0","1","city","77","probe-177","0.5710171087149051","0.7008281186309586","0.14862744654775134","1","","","","","",""
"","do_trial","142","735425","0.0-121.0-0.0","400.9999999998836","","","","51","0,1,0","1","city","78","probe-112","0.5070649983447334","0.5877924528106079","0.17705157321496756","0","","","","","",""
"","do_trial","143","741298","0.0-122.0-0.0","342","","","","50","0,1,0","1","city","79","probe-10","0.5621460678480245","0.692219808667531","0.18416206455284734","1","","","","","",""
"","do_bye","144","742802","0.0-123.0-0.0","null","","","","null","","","","","","","","","","","","","","",""
"","do_travel","145","748808","0.0-124.0-0.0","null","","","","null","","","","","","","","","","","","","","",""
"","do_welcome","146","750313","0.0-124.0-1.0","null","","","","null","","","","","","","","","","","","","","",""
"","do_trial","147","756704","0.0-125.0-0.0","852.9999999998836","","","","51","0,1,0","2","mountain","80","probe-136","0.5858645143429674","1","0.2748313459915556","0","","","","","",""
"","do_trial","148","762646","0.0-126.0-0.0","404","","","","49","1,1,0","2","mountain","81","probe-30","0.6383364219400686","1","0.2286545123613993","1","","","","","",""
"","do_trial","149","768562","0.0-127.0-0.0","378","","","","50","1,1,0","2","mountain","82","probe-43","0.5939587074061062","1","0.2857074155015868","1","","","","","",""
"","do_trial","150","775272","0.0-128.0-0.0","1172","","","","49","0,1,0","2","mountain","83","probe-160","0.550379144626581","1","0.12928040209059563","0","","","","","",""
"","do_trial","151","781320","0.0-129.0-0.0","511","","","","51","0,0,0","2","mountain","84","probe-117","0.4855719291420605","0.8499295726554434","0.19516586234631825","0","","","","","",""
"","do_trial","152","787257","0.0-130.0-0.0","401","","","","50","0,0,0","2","mountain","85","probe-05","0.4410825079783839","0.7452010215253165","0.2095907251553486","0","","","","","",""
"","do_trial","153","793358","0.0-131.0-0.0","560.0000000001164","","","","49","0,1,1","2","mountain","86","probe-73","0.5712190821217077","0.7477644642752787","0.18337446085756387","0","","","","","",""
"","do_trial","154","799202","0.0-132.0-0.0","307","","","","50","0,1,0","2","mountain","87","probe-138","0.4622797731175842","0.8151391725021333","0.13073946600292427","1","","","","","",""
"","do_trial","155","805231","0.0-133.0-0.0","492.0000000001164","","","","50","0,1,0","2","mountain","88","probe-169","0.42745266122733233","0.8876307350823279","0.28421145476444554","1","","","","","",""
"","do_trial","156","811400","0.0-134.0-0.0","633","","","","50","1,1,0","2","mountain","89","probe-231","0.4253527876765571","0.7914628137375342","0.2587058133644041","1","","","","","",""
"","do_trial","157","817387","0.0-135.0-0.0","450","","","","50","1,1,1","2","mountain","90","probe-98","0.5973371884877722","0.5792839082989234","0.3605716866991525","1","","","","","",""
"","do_trial","158","823392","0.0-136.0-0.0","469","","","","50","1,1,0","2","mountain","91","probe-18","0.6367972908118739","0.3312152365670065","0.43481873642503965","1","","","","","",""
"","do_trial","159","829378","0.0-137.0-0.0","449","","","","50","1,0,0","2","mountain","92","probe-99","0.7828098529694936","0.248235749635501","0.5011176267048135","0","","","","","",""
"","do_trial","160","835397","0.0-138.0-0.0","482.0000000001164","","","","49","0,0,1","2","mountain","93","probe-174","0.8591877226209682","0.10679140113824896","0.5137285928752812","0","","","","","",""
"","do_trial","161","841554","0.0-139.0-0.0","621","","","","51","1,0,1","2","mountain","94","probe-109","0.8129207796339933","0.14719521725063098","0.6672261531482765","1","","","","","",""
"","do_trial","162","847658","0.0-140.0-0.0","569","","","","51","1,0,1","2","mountain","95","probe-236","0.7127642915942021","0.1319146456616562","0.6068902990740999","1","","","","","",""
"","do_trial","163","853742","0.0-141.0-0.0","548","","","","51","1,0,1","2","mountain","96","probe-21","0.8753007096416501","0.14967243605446626","0.3960342631372044","1","","","","","",""
"","do_trial","164","859733","0.0-142.0-0.0","450","","","","51","0,0,0","2","mountain","97","probe-201","0.7278364747803938","0.13135936270820595","0.587480477479939","0","","","","","",""
"","do_trial","165","865560","0.0-143.0-0.0","292.0000000001164","","","","50","1,0,1","2","mountain","98","probe-196","0.8221436565817644","0.11144704934332764","0.5384801391556914","0","","","","","",""
"","do_trial","166","871580","0.0-144.0-0.0","484","","","","49","1,0,0","2","mountain","99","probe-179","0.8676133050080123","0.1279039130963377","0.3817726640515013","1","","","","","",""
"","do_trial","167","877730","0.0-145.0-0.0","610.9999999998836","","","","49","1,0,0","2","mountain","100","probe-153","0.8547955858860808","0.07617092083589828","0.3440324561337303","1","","","","","",""
"","do_trial","168","883749","0.0-146.0-0.0","483.0000000001164","","","","49","1,0,1","2","mountain","101","probe-203","0.905073001831307","0.157108275016469","0.4175133717736664","1","","","","","",""
"","do_trial","169","889828","0.0-147.0-0.0","543","","","","49","1,0,1","2","mountain","102","probe-58","0.9481513030008856","0.20816903831326702","0.40962632974072044","1","","","","","",""
"","do_trial","170","895797","0.0-148.0-0.0","433","","","","49","1,0,1","2","mountain","103","probe-70","0.8399417359243835","0.18000671462560333","0.4716500562844987","1","","","","","",""
"","do_trial","171","901852","0.0-149.0-0.0","518","","","","49","1,0,0","2","mountain","104","probe-164","0.7743335564831059","0.10590165414509357","0.429966497483212","1","","","","","",""
"","do_trial","172","907760","0.0-150.0-0.0","369","","","","49","1,0,0","2","mountain","105","probe-60","0.6807993152950236","0.1701664071387522","0.42070400094689836","1","","","","","",""
"","do_trial","173","913790","0.0-151.0-0.0","494","","","","49","1,0,1","2","mountain","106","probe-182","0.6399625209175172","0.1631238637272559","0.4817201455448802","1","","","","","",""
"","do_trial","174","919750","0.0-152.0-0.0","421","","","","49","1,0,0","2","mountain","107","probe-237","0.6703422980944892","0.13201045182496837","0.5242312126662714","1","","","","","",""
"","do_trial","175","925629","0.0-153.0-0.0","344","","","","49","1,0,1","2","mountain","108","probe-108","0.8303703289905778","0.06940726890621902","0.48942076681716745","1","","","","","",""
"","do_trial","176","931540","0.0-154.0-0.0","375","","","","49","1,0,1","2","mountain","109","probe-78","0.8465517837849802","0.11489122340235625","0.41635618942199404","1","","","","","",""
"","do_trial","177","937793","0.0-155.0-0.0","717.0000000001164","","","","49","1,0,0","2","mountain","110","probe-44","0.9444286052296683","0.08277898358922917","0.5966260770423811","1","","","","","",""
"","do_trial","178","943757","0.0-156.0-0.0","423","","","","49","0,1,0","2","mountain","111","probe-87","0.668308141750321","0.06193398886402622","0.4705898146471264","0","","","","","",""
"","do_trial","179","949642","0.0-157.0-0.0","349","","","","50","1,0,0","2","mountain","112","probe-143","0.6811310768139726","0.1578516530668586","0.2453518062428002","0","","","","","",""
"","do_trial","180","955498","0.0-158.0-0.0","321","","","","49","1,0,1","2","mountain","113","probe-167","0.6541982708666534","0.05022095691331065","0.510291442605419","1","","","","","",""
"","do_trial","181","961478","0.0-159.0-0.0","443.9999999998836","","","","49","1,0,1","2","mountain","114","probe-94","0.7751089755165418","0.06422721198462115","0.4516006198975035","1","","","","","",""
"","do_trial","182","967503","0.0-160.0-0.0","486","","","","49","0,0,1","2","mountain","115","probe-210","0.8686501341576909","0.1821227972998795","0.3616974464956151","0","","","","","",""
"","do_trial","183","973440","0.0-161.0-0.0","398","","","","51","1,0,0","2","mountain","116","probe-223","0.8333959449230426","0.06577771187062079","0.3368717054560471","0","","","","","",""
"","do_trial","184","979404","0.0-162.0-0.0","425","","","","49","1,1,0","2","mountain","117","probe-126","0.9226194903107943","0.23579515856834682","0.3317858931426877","1","","","","","",""
"","do_trial","185","985374","0.0-163.0-0.0","434","","","","49","1,0,1","2","mountain","118","probe-14","0.9006823691638208","0.19882799043579222","0.2610488625917442","1","","","","","",""
"","do_trial","186","991253","0.0-164.0-0.0","338","","","","49","1,0,0","2","mountain","119","probe-55","0.8345998929578233","0.20006532613556302","0.41179912207495023","1","","","","","",""
"","do_bye","187","992758","0.0-165.0-0.0","null","","","","null","","","","","","","","","","","","","","",""
"","do_travel","188","998761","0.0-166.0-0.0","null","","","","null","","","","","","","","","","","","","","",""
"","do_welcome","189","1000267","0.0-166.0-1.0","null","","","","null","","","","","","","","","","","","","","",""
"","do_trial","190","1006663","0.0-167.0-0.0","851.0000000001164","","","","50","1,0,0","3","highway","120","probe-212","1","0.22746578710442678","0.46890311814144037","0","","","","","",""
"","do_trial","191","1012718","0.0-168.0-0.0","517.0000000001164","","","","51","1,0,1","3","highway","121","probe-235","1","0.20080648784347374","0.42387120400556294","1","","","","","",""
"","do_trial","192","1018580","0.0-169.0-0.0","324","","","","51","1,0,1","3","highway","122","probe-95","1","0.298717981015783","0.5239884447460936","1","","","","","",""
"","do_trial","193","1024649","0.0-170.0-0.0","532","","","","51","1,0,0","3","highway","123","probe-111","1","0.28874741012648986","0.3608783502796529","0","","","","","",""
"","do_trial","194","1030542","0.0-171.0-0.0","354","","","","49","1,0,0","3","highway","124","probe-92","0.936942544523121","0.2921752429884286","0.44134493370080835","1","","","","","",""
"","do_trial","195","1036605","0.0-172.0-0.0","520.9999999997672","","","","49","1,1,0","3","highway","125","probe-145","0.8477687110527142","0.2649294947266183","0.3919132791274961","1","","","","","",""
"","do_trial","196","1042824","0.0-173.0-0.0","680","","","","49","1,0,1","3","highway","126","probe-181","0.8891136829053486","0.28045983746354436","0.4106513296205783","1","","","","","",""
"","do_trial","197","1048840","0.0-174.0-0.0","471","","","","49","1,0,0","3","highway","127","probe-23","0.822476851702701","0.1892931768152895","0.4660961864167215","1","","","","","",""
"","do_trial","198","1054851","0.0-175.0-0.0","464","","","","49","1,0,0","3","highway","128","probe-32","0.9198572364576261","0.16387778157549077","0.5085544031805003","1","","","","","",""
"","do_trial","199","1060928","0.0-176.0-0.0","534","","","","49","0,0,0","3","highway","129","probe-93","0.9373410494995451","0.1980709015402616","0.5040077924503912","0","","","","","",""
"","do_trial","200","1066794","0.0-177.0-0.0","331","","","","50","0,0,1","3","highway","130","probe-207","0.5001964873110486","0.2827371889110077","0.6610140041711496","0","","","","","",""
"","do_trial","201","1072736","0.0-178.0-0.0","406","","","","51","1,0,0","3","highway","131","probe-114","0.34986104271695156","0.26579811506880435","0.7115615699838123","0","","","","","",""
"","do_trial","202","1078695","0.0-179.0-0.0","423","","","","49","0,0,1","3","highway","132","probe-27","0.26981662456351374","0.26149945221973064","0.6552095295406659","0","","","","","",""
"","do_trial","203","1084625","0.0-180.0-0.0","389","","","","49","0,0,0","3","highway","133","probe-144","0.19572222554715216","0.33229201966729527","0.6070933517425824","0","","","","","",""
"","do_trial","204","1090162","0.0-181.0-0.0","0","","","","50","0,0,1","3","highway","134","probe-193","0.062191617008564765","0.3934897251074058","0.7697428536380475","0","","","","","",""
"","do_trial","205","1096296","0.0-182.0-0.0","598","","","","49","0,0,1","3","highway","135","probe-204","0.07799880340757198","0.3909996902174472","0.8844674740363183","0","","","","","",""
"","do_trial","206","1102214","0.0-183.0-0.0","383","","","","51","0,0,1","3","highway","136","probe-230","0.055763521309313634","0.33445346675145277","0.7637624440593319","1","","","","","",""
"","do_trial","207","1108376","0.0-184.0-0.0","626","","","","51","0,1,1","3","highway","137","probe-40","0.1374200876185648","0.3647608558460674","0.7608658432442104","1","","","","","",""
"","do_trial","208","1114857","0.0-185.0-0.0","944","","","","51","1,1,1","3","highway","138","probe-97","0.18932411873021449","0.5196323145898775","0.7604651738387886","1","","","","","",""
"","do_trial","209","1120878","0.0-186.0-0.0","482","","","","51","0,1,1","3","highway","139","probe-96","0.12849650300328233","0.48810527876669496","0.6478214092176572","1","","","","","",""
"","do_trial","210","1127026","0.0-187.0-0.0","613","","","","51","0,0,1","3","highway","140","probe-168","0.06465263612267876","0.3630144127336228","0.6726955454792958","1","","","","","",""
"","do_trial","211","1132986","0.0-188.0-0.0","423","","","","51","0,0,1","3","highway","141","probe-125","0.09156849448822037","0.33427282571140987","0.7930626312433542","1","","","","","",""
"","do_trial","212","1139432","0.0-189.0-0.0","910","","","","51","1,0,1","3","highway","142","probe-76","0.13603119234917557","0.4782003280110932","0.7975917570550268","1","","","","","",""
"","do_trial","213","1145821","0.0-190.0-0.0","853","","","","51","0,0,1","3","highway","143","probe-198","0.14715265342585335","0.34747107814263234","0.6315662709846316","1","","","","","",""
"","do_trial","214","1151922","0.0-191.0-0.0","564.0000000002328","","","","51","0,0,0","3","highway","144","probe-187","0.13118480203545596","0.3698753296565404","0.571928327937689","0","","","","","",""
"","do_trial","215","1157518","0.0-192.0-0.0","58","","","","49","0,0,1","3","highway","145","probe-131","0.05423905088978688","0.41977678550211556","0.7652210684682821","0","","","","","",""
"","do_trial","216","1163545","0.0-193.0-0.0","490","","","","49","0,0,0","3","highway","146","probe-163","0.12008457736771497","0.5162125013346052","0.8069509841423259","0","","","","","",""
"","do_trial","217","1169435","0.0-194.0-0.0","353","","","","51","0,1,1","3","highway","147","probe-161","0.128350902551078","0.5572995747807847","0.7228563805030105","1","","","","","",""
"","do_trial","218","1175473","0.0-195.0-0.0","500","","","","51","0,1,1","3","highway","148","probe-25","0.0763088135079029","0.5655398779633184","0.787548892097322","1","","","","","",""
"","do_trial","219","1181609","0.0-196.0-0.0","601","","","","51","0,0,1","3","highway","149","probe-71","0.09048914566063938","0.47993083795330194","0.9019950048390628","1","","","","","",""
"","do_trial","220","1187547","0.0-197.0-0.0","396","","","","51","0,1,1","3","highway","150","probe-178","0.15102835373218126","0.45637814144082356","0.908813838634343","1","","","","","",""
"","do_trial","221","1193773","0.0-198.0-0.0","690","","","","51","0,1,1","3","highway","151","probe-101","0.10867320938196859","0.5860730103395126","0.8627459748274441","1","","","","","",""
"","do_trial","222","1200480","0.0-199.0-0.0","1170.9999999997672","","","","51","0,1,1","3","highway","152","probe-214","0.24585561163909334","0.5727446374322779","0.8815809038563931","1","","","","","",""
"","do_trial","223","1206611","0.0-200.0-0.0","595","","","","51","0,0,0","3","highway","153","probe-50","0.17685178007994493","0.5539696941432579","0.7838104174030968","0","","","","","",""
"","do_trial","224","1213042","0.0-201.0-0.0","894","","","","51","1,0,1","3","highway","154","probe-219","0.17514186692815262","0.48818398366362303","0.792543512188218","1","","","","","",""
"","do_trial","225","1218973","0.0-202.0-0.0","395","","","","51","0,0,1","3","highway","155","probe-156","0.1016539791381198","0.3459335863769409","0.7838645325651434","1","","","","","",""
"","do_trial","226","1224978","0.0-203.0-0.0","469","","","","51","0,1,0","3","highway","156","probe-146","0.06008923443025836","0.3898224523343062","0.9216805140672035","0","","","","","",""
"","do_trial","227","1230878","0.0-204.0-0.0","373","","","","50","0,1,1","3","highway","157","probe-07","0.13592707997474493","0.36213396924646163","0.9444741376542112","1","","","","","",""
"","do_trial","228","1237037","0.0-205.0-0.0","625","","","","50","0,0,1","3","highway","158","probe-74","0.20154176257440065","0.36304257004280877","0.9048100830605686","0","","","","","",""
"","do_trial","229","1243104","0.0-206.0-0.0","524","","","","51","0,0,1","3","highway","159","probe-46","0.05592724367843031","0.47098155227178795","0.8859594509025329","1","","","","","",""
"","do_bye","230","1244609","0.0-207.0-0.0","null","","","","null","","","","","","","","","","","","","","",""
"","do_travel","231","1250612","0.0-208.0-0.0","null","","","","null","","","","","","","","","","","","","","",""
"","do_welcome","232","1252118","0.0-208.0-1.0","null","","","","null","","","","","","","","","","","","","","",""
"","do_trial","233","1258350","0.0-209.0-0.0","690.9999999997672","","","","51","0,1,1","4","forest","160","probe-63","0.0716374761363305","0.4252746624747743","1","1","","","","","",""
"","do_trial","234","1264280","0.0-210.0-0.0","394","","","","51","0,0,1","4","forest","161","probe-176","0.07947982780299462","0.4150468311889204","1","1","","","","","",""
"","do_trial","235","1270353","0.0-211.0-0.0","535","","","","51","0,0,1","4","forest","162","probe-64","0.05553124239890783","0.34761882340590716","1","1","","","","","",""
"","do_trial","236","1276313","0.0-212.0-0.0","422","","","","51","0,1,1","4","forest","163","probe-142","0.09430135648715066","0.33537649174276957","1","1","","","","","",""
"","do_trial","237","1282313","0.0-213.0-0.0","462","","","","51","0,0,1","4","forest","164","probe-100","0.05745231854132652","0.40334231067020687","0.822237308243297","1","","","","","",""
"","do_trial","238","1288508","0.0-214.0-0.0","654","","","","51","0,1,1","4","forest","165","probe-132","0.05232547021447102","0.31368904477580756","0.8781550157364909","1","","","","","",""
"","do_trial","239","1294525","0.0-215.0-0.0","481","","","","51","0,0,1","4","forest","166","probe-19","0.059210400518769433","0.5029053799380854","0.9449458599167414","1","","","","","",""
"","do_trial","240","1300696","0.0-216.0-0.0","635","","","","51","0,0,1","4","forest","167","probe-227","0.0538330848355692","0.5269370604072822","0.8868755886738511","1","","","","","",""
"","do_trial","241","1306807","0.0-217.0-0.0","575","","","","51","1,1,1","4","forest","168","probe-17","0.1015861656668735","0.4910481297681797","0.8206179299769439","1","","","","","",""
"","do_trial","242","1312780","0.0-218.0-0.0","437","","","","51","0,1,1","4","forest","169","probe-45","0.09786634564411678","0.4319049954709746","0.8046242728471951","1","","","","","",""
"","do_trial","243","1318947","0.0-219.0-0.0","629.0000000002328","","","","51","1,0,1","4","forest","170","probe-35","0.42597316426820636","0.2628486155281673","0.773674757692896","1","","","","","",""
"","do_trial","244","1324938","0.0-220.0-0.0","452","","","","51","0,0,0","4","forest","171","probe-02","0.43924739078168773","0.068548666295108","0.5746407265471344","0","","","","","",""
"","do_trial","245","1330815","0.0-221.0-0.0","340","","","","49","0,1,1","4","forest","172","probe-191","0.5646210427296143","0.0753162070050781","0.5168720446203963","0","","","","","",""
"","do_trial","246","1336746","0.0-222.0-0.0","394","","","","50","1,0,1","4","forest","173","probe-83","0.6882943304798192","0.06254664810719496","0.4438132050655848","0","","","","","",""
"","do_trial","247","1342746","0.0-223.0-0.0","463.00000000023283","","","","49","1,0,0","4","forest","174","probe-149","0.646020006447891","0.10167427030382148","0.39618978575633274","1","","","","","",""
"","do_trial","248","1349010","0.0-224.0-0.0","727","","","","51","1,0,0","4","forest","175","probe-106","0.5655180028968599","0.05395957494980486","0.48744122005269824","0","","","","","",""
"","do_trial","249","1355097","0.0-225.0-0.0","546","","","","49","0,0,0","4","forest","176","probe-224","0.5778544279356619","0.1294695425183227","0.4402832049051709","0","","","","","",""
"","do_trial","250","1360988","0.0-226.0-0.0","355","","","","51","0,0,0","4","forest","177","probe-47","0.5954913197644626","0.11105802706561665","0.43969821358367356","0","","","","","",""
"","do_trial","251","1366869","0.0-227.0-0.0","342","","","","49","1,0,0","4","forest","178","probe-165","0.6420429814969789","0.12735095825425893","0.35959936922652036","1","","","","","",""
"","do_trial","252","1372825","0.0-228.0-0.0","417.00000000023283","","","","49","1,1,0","4","forest","179","probe-86","0.7881530212920984","0.22838981473000605","0.3710568660001967","1","","","","","",""
"","do_trial","253","1378437","0.0-229.0-0.0","75.99999999976717","","","","49","1,0,1","4","forest","180","probe-90","0.8300266473925213","0.13337666842087978","0.46248040581033567","1","","","","","",""
"","do_trial","254","1384596","0.0-230.0-0.0","617","","","","49","1,0,0","4","forest","181","probe-104","0.8947580321457196","0.0722917269454524","0.5156652876872552","1","","","","","",""
"","do_trial","255","1390797","0.0-231.0-0.0","665","","","","49","1,0,1","4","forest","182","probe-194","0.816182460150471","0.07341390433405126","0.5567337839476503","1","","","","","",""
"","do_trial","256","1396960","0.0-232.0-0.0","627.9999999997672","","","","49","0,0,1","4","forest","183","probe-185","0.7474300042374697","0.12907280449814876","0.5301958731868678","0","","","","","",""
"","do_trial","257","1402863","0.0-233.0-0.0","366","","","","51","1,0,0","4","forest","184","probe-105","0.8710591863906163","0.25644832924914285","0.41018542610281516","0","","","","","",""
"","do_trial","258","1408770","0.0-234.0-0.0","369","","","","50","1,0,0","4","forest","185","probe-188","0.8440614862319984","0.21913783472069198","0.3911033577462274","0","","","","","",""
"","do_trial","259","1414654","0.0-235.0-0.0","346","","","","51","1,1,0","4","forest","186","probe-68","0.7939868056978991","0.1616624094125237","0.42655781561129014","0","","","","","",""
"","do_trial","260","1420569","0.0-236.0-0.0","378.99999999976717","","","","49","1,0,1","4","forest","187","probe-31","0.7816310881882946","0.2763860921558764","0.3701651698496344","1","","","","","",""
"","do_trial","261","1426835","0.0-237.0-0.0","729","","","","49","1,1,1","4","forest","188","probe-04","0.6766241050176548","0.2210490926792135","0.38947377532542243","1","","","","","",""
"","do_trial","262","1432757","0.0-238.0-0.0","381.99999999976717","","","","49","1,0,0","4","forest","189","probe-34","0.6515299348259455","0.22761060537384153","0.3171307915595437","1","","","","","",""
"","do_trial","263","1438632","0.0-239.0-0.0","334","","","","49","1,0,0","4","forest","190","probe-211","0.7240309858463843","0.29877885784222485","0.42159159582934486","1","","","","","",""
"","do_trial","264","1444600","0.0-240.0-0.0","434","","","","49","1,0,0","4","forest","191","probe-154","0.7614433284614542","0.13850419852249993","0.45420772377617197","1","","","","","",""
"","do_trial","265","1450685","0.0-241.0-0.0","549","","","","49","1,0,1","4","forest","192","probe-190","0.719173656852701","0.12136537545172846","0.5817642289831514","1","","","","","",""
"","do_trial","266","1456791","0.0-242.0-0.0","570","","","","49","1,0,1","4","forest","193","probe-222","0.7592138228232628","0.07960076421765894","0.45139111171315477","1","","","","","",""
"","do_trial","267","1462903","0.0-243.0-0.0","576","","","","49","1,0,0","4","forest","194","probe-118","0.7906590962413348","0.062257946004182385","0.3597777883051757","1","","","","","",""
"","do_trial","268","1469021","0.0-244.0-0.0","582","","","","49","1,0,0","4","forest","195","probe-119","0.7481209504922879","0.11930282365183845","0.44673999702361855","1","","","","","",""
"","do_trial","269","1475183","0.0-245.0-0.0","623","","","","49","0,0,0","4","forest","196","probe-220","0.6811938845279732","0.06339861505985916","0.2927032981525865","0","","","","","",""
"","do_trial","270","1481052","0.0-246.0-0.0","332","","","","51","1,0,1","4","forest","197","probe-147","0.7912577712434892","0.1323983927414292","0.4311229911286589","1","","","","","",""
"","do_trial","271","1487239","0.0-247.0-0.0","649","","","","51","1,0,1","4","forest","198","probe-15","0.8018214490350752","0.07277889149950452","0.32130137134839554","1","","","","","",""
"","do_trial","272","1493257","0.0-248.0-0.0","481","","","","51","1,0,1","4","forest","199","probe-225","0.709458531481493","0.11099184203134733","0.2177040716820573","1","","","","","",""
"","do_bye","273","1494764","0.0-249.0-0.0","null","","","","null","","","","","","","","","","","","","","",""
"","do_travel","274","1500767","0.0-250.0-0.0","null","","","","null","","","","","","","","","","","","","","",""
"","do_welcome","275","1502273","0.0-250.0-1.0","null","","","","null","","","","","","","","","","","","","","",""
"","do_trial","276","1508312","0.0-251.0-0.0","null","","","","null","1,0,1","5","countryside","200","probe-79","1","0.12107730451632452","0.23198347125734134","","","","","","",""
"","do_trial","277","1514348","0.0-252.0-0.0","498","","","","51","1,0,0","5","countryside","201","probe-197","1","0.0921386849991536","0.14202992382548899","0","","","","","",""
"","do_trial","278","1520309","0.0-253.0-0.0","425","","","","50","1,0,0","5","countryside","202","probe-184","1","0.13222143818911278","0.16956019710833584","0","","","","","",""
"","do_trial","279","1526127","0.0-254.0-0.0","282.00000000023283","","","","51","1,0,1","5","countryside","203","probe-81","1","0.14489795893334215","0.37705147230732666","1","","","","","",""
"","do_trial","280","1531959","0.0-255.0-0.0","295","","","","51","1,0,1","5","countryside","204","probe-06","0.9439273099075799","0.1935919537628335","0.2659769302968314","1","","","","","",""
"","do_trial","281","1537966","0.0-256.0-0.0","469","","","","51","1,0,1","5","countryside","205","probe-72","0.9338227427753633","0.07109723249650632","0.35992249598016857","1","","","","","",""
"","do_trial","282","1544100","0.0-257.0-0.0","598.9999999997672","","","","51","1,0,0","5","countryside","206","probe-88","0.8687892469547963","0.06830660291755683","0.324149838895372","0","","","","","",""
"","do_trial","283","1550020","0.0-258.0-0.0","380","","","","49","1,0,0","5","countryside","207","probe-08","0.9475091248108051","0.09687607504118742","0.3052383278493586","1","","","","","",""
"","do_trial","284","1555927","0.0-259.0-0.0","370","","","","49","1,0,0","5","countryside","208","probe-59","0.9173897413774575","0.07988461676788218","0.3379468338382953","1","","","","","",""
"","do_trial","285","1561896","0.0-260.0-0.0","431.99999999976717","","","","49","1,0,0","5","countryside","209","probe-01","0.9329773131135185","0.13782982019238543","0.4829383072398828","1","","","","","",""
"","do_trial","286","1567850","0.0-261.0-0.0","418","","","","49","1,0,1","5","countryside","210","probe-157","0.5900216944869406","0.14965356327283963","0.6403648345929723","1","","","","","",""
"","do_trial","287","1573784","0.0-262.0-0.0","393","","","","49","0,0,1","5","countryside","211","probe-128","0.5683207992841558","0.19434261972761963","0.6209194332981264","0","","","","","",""
"","do_trial","288","1579737","0.0-263.0-0.0","411","","","","51","0,1,0","5","countryside","212","probe-65","0.4951480261493359","0.08645713980918933","0.7200642134883419","0","","","","","",""
"","do_trial","289","1585627","0.0-264.0-0.0","355.00000000023283","","","","50","1,0,1","5","countryside","213","probe-116","0.4856571394090805","0.14747102318898836","0.7671347170541176","0","","","","","",""
"","do_trial","290","1591493","0.0-265.0-0.0","330","","","","51","1,0,1","5","countryside","214","probe-53","0.5133756007983912","0.08517563875457233","0.7946555107692757","1","","","","","",""
"","do_trial","291","1597515","0.0-266.0-0.0","485","","","","51","0,0,1","5","countryside","215","probe-84","0.42409225769235265","0.07372039822991115","0.8911214680052751","1","","","","","",""
"","do_trial","292","1603498","0.0-267.0-0.0","443","","","","51","1,0,0","5","countryside","216","probe-85","0.46406432938580516","0.06935028885893024","0.7376363060929768","0","","","","","",""
"","do_trial","293","1609429","0.0-268.0-0.0","396","","","","49","0,0,1","5","countryside","217","probe-216","0.46423919501106403","0.21305196139442775","0.9234766710376243","0","","","","","",""
"","do_trial","294","1615437","0.0-269.0-0.0","472","","","","50","0,0,1","5","countryside","218","probe-75","0.5032741168576523","0.2031636273832687","0.9390672379527283","0","","","","","",""
"","do_trial","295","1621358","0.0-270.0-0.0","382","","","","51","1,0,1","5","countryside","219","probe-61","0.5655194489249425","0.2113307943737025","0.8043682878750478","1","","","","","",""
"","do_trial","296","1627415","0.0-271.0-0.0","520","","","","51","1,0,1","5","countryside","220","probe-121","0.5873041920957145","0.15790586386060565","0.7418221422222552","1","","","","","",""
"","do_trial","297","1633472","0.0-272.0-0.0","521","","","","51","1,0,1","5","countryside","221","probe-82","0.5835835000264775","0.2496183444736259","0.8339791319376793","1","","","","","",""
"","do_trial","298","1639407","0.0-273.0-0.0","400","","","","51","0,0,1","5","countryside","222","probe-42","0.5831216888487493","0.39859851940653523","0.8331420188720848","1","","","","","",""
"","do_trial","299","1645454","0.0-274.0-0.0","510","","","","51","0,1,1","5","countryside","223","probe-200","0.5072252410780504","0.33950910852185656","0.8864499381590322","1","","","","","",""
"","do_trial","300","1651970","0.0-275.0-0.0","976","","","","51","1,0,1","5","countryside","224","probe-102","0.5733208569999801","0.15567571936789587","0.8421816006156796","1","","","","","",""
"","do_trial","301","1657991","0.0-276.0-0.0","486","","","","51","1,0,1","5","countryside","225","probe-103","0.5569636547102923","0.18151262182210304","0.6429275893071312","1","","","","","",""
"","do_trial","302","1664345","0.0-277.0-0.0","818","","","","51","0,0,0","5","countryside","226","probe-22","0.5048540809039508","0.2361502785182913","0.7133548384467576","0","","","","","",""
"","do_trial","303","1670568","0.0-278.0-0.0","687","","","","51","0,0,1","5","countryside","227","probe-49","0.34692909870007654","0.11864752857805946","0.9112770815741393","1","","","","","",""
"","do_trial","304","1676545","0.0-279.0-0.0","444","","","","51","1,0,0","5","countryside","228","probe-133","0.43495167683434766","0.16073886101685148","0.7092494165777268","0","","","","","",""
"","do_trial","305","1682560","0.0-280.0-0.0","481","","","","50","1,0,0","5","countryside","229","probe-120","0.4897701710377103","0.06829328171556062","0.7379114938163376","0","","","","","",""
"","do_trial","306","1688617","0.0-281.0-0.0","521.0000000002328","","","","49","0,0,1","5","countryside","230","probe-155","0.36548082256175835","0.26383940753622614","0.783021957940189","0","","","","","",""
"","do_trial","307","1695906","0.0-282.0-0.0","1752.9999999997672","","","","49","1,0,0","5","countryside","231","probe-208","0.42865277785471406","0.3084626237369172","0.7998572439456626","1","","","","","",""
"","do_trial","308","1701891","0.0-283.0-0.0","448","","","","49","0,0,1","5","countryside","232","probe-123","0.3987271414631903","0.07796179116156499","0.728912797931171","0","","","","","",""
"","do_trial","309","1707869","0.0-284.0-0.0","441","","","","50","1,0,1","5","countryside","233","probe-215","0.4184193307658278","0.10269262173643579","0.8168712855681184","0","","","","","",""
"","do_trial","310","1713919","0.0-285.0-0.0","513","","","","51","0,0,1","5","countryside","234","probe-137","0.36351113682301844","0.10982852042782552","0.903938366066362","1","","","","","",""
"","do_trial","311","1720266","0.0-286.0-0.0","810.0000000002328","","","","51","0,1,0","5","countryside","235","probe-37","0.411623616358235","0.27000663299299416","0.797886354190922","0","","","","","",""
"","do_trial","312","1726204","0.0-287.0-0.0","395","","","","50","0,0,1","5","countryside","236","probe-135","0.332873948133543","0.05812161186333174","0.7790647212816499","0","","","","","",""
"","do_trial","313","1732157","0.0-288.0-0.0","416","","","","51","1,0,1","5","countryside","237","probe-151","0.40625621533978346","0.11010487660477679","0.6780876714481369","1","","","","","",""
"","do_trial","314","1738163","0.0-289.0-0.0","463","","","","51","0,0,1","5","countryside","238","probe-80","0.26366103474505836","0.13900361352197632","0.6495642545795148","1","","","","","",""
"","do_trial","315","1744404","0.0-290.0-0.0","703","","","","51","1,0,1","5","countryside","239","probe-209","0.3882330314664894","0.19042053249895116","0.7158462342506158","1","","","","","",""
"","do_bye","316","1745910","0.0-291.0-0.0","null","","","","null","","","","","","","","","","","","","","",""
"","html-keyboard-response","317","1776817","0.0-291.0-1.0","30905","<div class='center'><p>You may take a break now!</p><p> Stretch for a little bit. Get a glass of water.</p><p> You have two minutes to rest. Then, the game will automatically move on.</p><p>If you’d like to get started on the second half of the experiment sooner, then press the <b>space bar</b></p></div>","32","","","","","","","","","","","","","","","","",""
"","html-keyboard-response","318","1783271","0.0-291.0-2.0","6452","<div class='center'><p>You’ve arrived at the final destination of your journey! Unfortunately, it’s very foggy out, so you won’t be able to see it in the distance like in previous places you've visited.</p><p>You’ll still be deciding which pirates you want to rob ships. However, because of the fog you also won’t be able to see the ship in the distance. </p><p><b>[Press the space bar to continue]</b></p></div>","32","","","","","","","","","","","","","","","","",""
"","html-keyboard-response","319","1795219","0.0-291.0-3.0","11946.000000000233","<div class='center'><p> Sometimes you’ll be asked if you’ve seen a ship before (see the example below). You will use the 5, 6, 7, 8 buttons on your keyboard to respond. </p><p> If you definitely did not see the ship, pick the the big red thumbs down by pressing <b>5</b>.</p><p> If you don’t think you saw it but aren’t sure, then pick the small red thumbs down by pressing <b>6</b>.</p><p> If you think you might have seen it, then pick the small green thumbs up by pressing <b>7</b>.</p><p> If you definitely did see this ship before, then pick the big thumb green thumbs up by pressing <b>8</b>.</p><p> If you recall correctly, then you’ll get a gold coin!</p><p><b>[Press the space bar to begin the next phase of the experiment]</b></p><p><img src='run_exp/static/images/example_recog_trial.png' height='500'></p></div>","32","","","","","","","","","","","","","","","","",""
"","do_welcome","320","1796724","0.0-291.0-4.0","null","","","","null","","","","","","","","","","","","","","",""
"","do_trial","321","1802762","0.0-292.0-0.0","null","","","","null","0,0,1","6","blank","240","null","0.4637540334348826","0.24970444490049487","1","","","","","","",""
"","do_recog","322","1807100","0.0-293.0-0.0","2829","","","","54","","","","241","probe-63","","","","","1","[object Object]","160","4","0",""
"","do_trial","323","1812495","0.0-294.0-0.0","1857","","","","51","0,0,0","6","blank","242","null","0.46527953900359537","0.28235342164830807","0.9143261047648938","0","","","","","",""
"","do_trial","324","1818094","0.0-295.0-0.0","2062","","","","50","1,0,1","6","blank","243","null","0.4237661692528906","0.2599385043018065","0.9154355571197768","0","","","","","",""
"","do_trial","325","1821952","0.0-296.0-0.0","321","","","","49","0,0,1","6","blank","244","null","0.48203073602391916","0.06743195711144413","0.9293964587718108","0","","","","","",""
"","do_trial","326","1826953","0.0-297.0-0.0","1465","","","","51","0,0,1","6","blank","245","null","0.48247599200818","0.12065386470984903","0.7926099927489463","1","","","","","",""
"","do_recog","327","1830874","0.0-298.0-0.0","2414","","","","55","","","","246","probe-67","","","","","1","[object Object]","47","1","1",""
"","do_trial","328","1835500","0.0-299.0-0.0","1091.0000000002328","","","","50","1,0,0","6","blank","247","null","0.523938956004034","0.17108968227231316","0.7609233737512162","0","","","","","",""
"","do_recog","329","1839306","0.0-300.0-0.0","2300.000000000233","","","","53","","","","248","probe-251","","","","","0","[object Object]","null","null","1",""
"","do_trial","330","1844718","0.0-301.0-0.0","1873","","","","51","0,0,1","6","blank","249","null","0.6203354160591753","0.23143092605035528","0.6820455991946751","1","","","","","",""
"","do_trial","331","1850028","0.0-302.0-0.0","1771","","","","50","1,1,1","6","blank","250","null","0.5773027479520406","0.24588385438531085","0.7629276002732702","1","","","","","",""
"","do_recog","332","1853313","0.0-303.0-0.0","1777","","","","53","","","","251","probe-136","","","","","1","[object Object]","80","2","0",""
"","do_trial","333","1858214","0.0-304.0-0.0","1363","","","","51","1,0,0","6","blank","252","null","0.4638234358191617","0.25433543520076746","0.8446630569175168","0","","","","","",""
"","do_trial","334","1862656","0.0-305.0-0.0","900","","","","49","0,0,1","6","blank","253","null","0.4842248424960366","0.17764760535438437","0.8978798165457218","0","","","","","",""
"","do_trial","335","1866533","0.0-306.0-0.0","339.99999999976717","","","","50","0,0,1","6","blank","254","null","0.46790600085395945","0.40755591717405276","0.5796616764767218","0","","","","","",""
"","do_trial","336","1870920","0.0-307.0-0.0","851.9999999997672","","","","51","1,1,0","6","blank","255","null","0.4310755551801494","0.5780911819548105","0.4006118570164803","0","","","","","",""
"","do_trial","337","1875718","0.0-308.0-0.0","1259","","","","49","1,1,0","6","blank","256","null","0.47292310535427634","0.6779531402478679","0.32222708915151566","1","","","","","",""
"","do_recog","338","1878824","0.0-309.0-0.0","1599","","","","56","","","","257","probe-45","","","","","1","[object Object]","169","4","1",""
"","do_trial","339","1882935","0.0-310.0-0.0","571","","","","50","0,0,0","6","blank","258","null","0.4106558120433785","0.6537167319949679","0.41249870156878304","0","","","","","",""
"","do_trial","340","1886863","0.0-311.0-0.0","389","","","","51","1,1,0","6","blank","259","null","0.437044489365814","0.5439577584377426","0.3913049846863709","0","","","","","",""
"","do_trial","341","1890771","0.0-312.0-0.0","360.00000000023283","","","","49","1,0,0","6","blank","260","null","0.5725192952050658","0.552936331402821","0.1587966008481611","1","","","","","",""
"","do_recog","342","1893526","0.0-313.0-0.0","1247","","","","53","","","","261","probe-247","","","","","0","[object Object]","null","null","1",""
"","do_trial","343","1897857","0.0-314.0-0.0","786.0000000002328","","","","51","1,1,0","6","blank","262","null","0.45078507730071304","0.7103213055728503","0.12331344922976539","0","","","","","",""
"","do_recog","344","1901100","0.0-315.0-0.0","1736","","","","56","","","","263","probe-140","","","","","1","[object Object]","49","1","1",""
"","do_trial","345","1905183","0.0-316.0-0.0","546.9999999997672","","","","51","0,1,0","6","blank","264","null","0.4553038954168779","0.7737719785354792","0.13628139266404637","0","","","","","",""
"","do_recog","346","1907980","0.0-317.0-0.0","1290","","","","53","","","","265","probe-248","","","","","0","[object Object]","null","null","1",""
"","do_trial","347","1912151","0.0-318.0-0.0","633","","","","50","0,1,1","6","blank","266","null","0.26446402947480135","0.8136424793295173","0.21004424869380015","1","","","","","",""
"","do_recog","348","1914694","0.0-319.0-0.0","1036","","","","53","","","","267","probe-32","","","","","1","[object Object]","128","3","0",""
"","do_trial","349","1919668","0.0-320.0-0.0","1436","","","","49","0,1,0","6","blank","268","null","0.26698680011144954","0.7386500892752973","0.2872498705176277","0","","","","","",""
"","do_trial","350","1923584","0.0-321.0-0.0","378.99999999976717","","","","50","1,1,0","6","blank","269","null","0.28467115353174427","0.7566275046135823","0.2431186640225803","1","","","","","",""
"","do_recog","351","1926381","0.0-322.0-0.0","1291","","","","53","","","","270","probe-212","","","","","1","[object Object]","120","3","0",""
"","do_trial","352","1932418","0.0-323.0-0.0","null","","","","null","1,1,0","6","blank","271","null","0.2705244403665698","0.841710959681934","0.23238919914292416","","","","","","",""
"","do_recog","353","1935142","0.0-324.0-0.0","1216","","","","56","","","","272","probe-197","","","","","1","[object Object]","201","5","1",""
"","do_trial","354","1939228","0.0-325.0-0.0","547","","","","50","0,1,1","6","blank","273","null","0.3694448337243081","0.9114684816966779","0.14133139071946896","1","","","","","",""
"","do_recog","355","1941911","0.0-326.0-0.0","1176","","","","53","","","","274","probe-08","","","","","1","[object Object]","207","5","0",""
"","do_trial","356","1946747","0.0-327.0-0.0","1299.9999999997672","","","","49","1,0,0","6","blank","275","null","0.40348672755575193","0.740933272031169","0.13828276037897505","1","","","","","",""
"","do_recog","357","1949252","0.0-328.0-0.0","997.9999999997672","","","","53","","","","276","probe-111","","","","","1","[object Object]","123","3","0",""
"","do_trial","358","1953529","0.0-329.0-0.0","740","","","","51","0,1,0","6","blank","277","null","0.5256211148935712","0.820894401007162","0.23867487695395398","0","","","","","",""
"","do_trial","359","1957889","0.0-330.0-0.0","824","","","","51","0,1,0","6","blank","278","null","0.37466380699398044","0.7687477509908331","0.1523714000328261","0","","","","","",""
"","do_recog","360","1961308","0.0-331.0-0.0","1908","","","","53","","","","279","probe-43","","","","","1","[object Object]","82","2","0",""
"","do_trial","361","1966035","0.0-332.0-0.0","1191","","","","50","0,1,0","6","blank","280","null","0.42550708184452923","0.8296243157428944","0.1580298789629517","1","","","","","",""
"","do_recog","362","1968741","0.0-333.0-0.0","1198.9999999997672","","","","56","","","","281","probe-189","","","","","1","[object Object]","43","1","1",""
"","do_trial","363","1973469","0.0-334.0-0.0","1191","","","","50","1,1,0","6","blank","282","null","0.41992480968137796","0.9357173969792989","0.23327560179119086","1","","","","","",""
"","do_recog","364","1976945","0.0-335.0-0.0","1968.9999999997672","","","","55","","","","283","probe-145","","","","","1","[object Object]","125","3","1",""
"","do_trial","365","1981322","0.0-336.0-0.0","839.0000000002328","","","","51","0,1,0","6","blank","284","null","0.3163917405116272","0.860378835361295","0.27366029496291183","0","","","","","",""
"","do_recog","366","1984159","0.0-337.0-0.0","1331","","","","53","","","","285","probe-252","","","","","0","[object Object]","null","null","1",""
"","do_trial","367","1988281","0.0-338.0-0.0","585","","","","49","0,1,0","6","blank","286","null","0.24344113837477274","0.7044946519686736","0.2055150187688072","0","","","","","",""
"","do_recog","368","1991077","0.0-339.0-0.0","1288","","","","56","","","","287","probe-117","","","","","1","[object Object]","84","2","1",""
"","do_trial","369","1995235","0.0-340.0-0.0","621","","","","51","1,1,0","6","blank","288","null","0.2278961070769574","1","0.10757926807657203","0","","","","","",""
"","do_recog","370","1998045","0.0-341.0-0.0","1303","","","","56","","","","289","probe-88","","","","","1","[object Object]","206","5","1",""
"","do_trial","371","2002226","0.0-342.0-0.0","642.9999999997672","","","","50","0,1,1","6","blank","290","null","0.20702271884048312","0.8065133608594577","0.09415353935996015","1","","","","","",""
"","do_recog","372","2004669","0.0-343.0-0.0","936.0000000002328","","","","56","","","","291","probe-59","","","","","1","[object Object]","208","5","1",""
"","do_trial","373","2009580","0.0-344.0-0.0","1373","","","","51","1,1,0","6","blank","292","null","0.2796259683960476","0.8938760795368768","0.10021947483811508","0","","","","","",""
"","do_trial","374","2013603","0.0-345.0-0.0","485","","","","49","0,1,1","6","blank","293","null","0.30477363519584644","0.7786772534308497","0.07917972637860997","0","","","","","",""
"","do_trial","375","2017591","0.0-346.0-0.0","450.00000000023283","","","","50","0,1,0","6","blank","294","null","0.5141326463972485","0.7040021379946825","0.05800523081242782","1","","","","","",""
"","do_trial","376","2022330","0.0-347.0-0.0","1202.0000000002328","","","","51","0,1,0","6","blank","295","null","0.5549871149968219","0.7200527075678405","0.14665153482283722","0","","","","","",""
"","do_trial","377","2026892","0.0-348.0-0.0","1025","","","","50","1,0,0","6","blank","296","null","0.5094192330270623","0.8241495013917528","0.16565854066632527","0","","","","","",""
"","do_trial","378","2031318","0.0-349.0-0.0","888.9999999995343","","","","49","1,1,0","6","blank","297","null","0.3643847562729705","0.7495116242387739","0.2592925024572469","1","","","","","",""
"","do_recog","379","2033948","0.0-350.0-0.0","1123.0000000002328","","","","56","","","","298","probe-138","","","","","1","[object Object]","87","2","1",""
"","do_trial","380","2038346","0.0-351.0-0.0","860.9999999997672","","","","51","0,1,0","6","blank","299","null","0.4060779744353234","0.8736400382322133","0.20076916813743495","0","","","","","",""
"","do_recog","381","2041099","0.0-352.0-0.0","1245.0000000002328","","","","56","","","","300","probe-175","","","","","1","[object Object]","41","1","1",""
"","do_trial","382","2045261","0.0-353.0-0.0","622.9999999995343","","","","51","0,1,0","6","blank","301","null","0.5105090825861555","0.904759317500841","0.2576517640511632","0","","","","","",""
"","do_recog","383","2047734","0.0-354.0-0.0","965.0000000002328","","","","56","","","","302","probe-176","","","","","1","[object Object]","161","4","1",""
"","do_trial","384","2051840","0.0-355.0-0.0","569","","","","50","1,1,0","6","blank","303","null","0.3935852507204312","0.8794580552799707","0.2839112691951769","1","","","","","",""
"","do_trial","385","2057882","0.0-356.0-0.0","null","","","","null","0,0,0","6","blank","304","null","0.26778163820739964","0.8046803298363797","0.2783388084137752","","","","","","",""
"","do_trial","386","2062548","0.0-357.0-0.0","1128.9999999997672","","","","51","1,1,1","6","blank","305","null","0.518875672643742","0.48730146744279934","0.21498342110040022","1","","","","","",""
"","do_recog","387","2065065","0.0-358.0-0.0","1010","","","","56","","","","306","probe-132","","","","","1","[object Object]","165","4","1",""
"","do_trial","388","2069216","0.0-359.0-0.0","613","","","","51","1,0,0","6","blank","307","null","0.5165660457701483","0.4502924855107044","0.17924285344659383","0","","","","","",""
"","do_trial","389","2073078","0.0-360.0-0.0","326","","","","49","1,1,0","6","blank","308","null","0.7218664545603689","0.372883779036652","0.2850613312818608","1","","","","","",""
"","do_recog","390","2075758","0.0-361.0-0.0","1173","","","","56","","","","309","probe-01","","","","","1","[object Object]","209","5","1",""
"","do_trial","391","2080991","0.0-362.0-0.0","1695","","","","50","1,0,1","6","blank","310","null","0.8162654530196671","0.21623733493191388","0.40358665783728614","0","","","","","",""
"","do_recog","392","2084266","0.0-363.0-0.0","1767","","","","53","","","","311","probe-256","","","","","0","[object Object]","null","null","1",""
"","do_trial","393","2088961","0.0-364.0-0.0","1159","","","","49","0,0,1","6","blank","312","null","0.7916741975222579","0.2293990653717346","0.4735869714643549","0","","","","","",""
"","do_trial","394","2093001","0.0-365.0-0.0","502","","","","51","1,0,1","6","blank","313","null","0.9412653788801641","0.3472123973408599","0.332515362605756","1","","","","","",""
"","do_trial","395","2097216","0.0-366.0-0.0","676","","","","50","1,0,0","6","blank","314","null","0.8867636134941418","0.27215138465385397","0.4871957124251077","0","","","","","",""
"","do_recog","396","2099938","0.0-367.0-0.0","1216","","","","56","","","","315","probe-122","","","","","1","[object Object]","40","1","1",""
"","do_trial","397","2104685","0.0-368.0-0.0","1210","","","","50","1,0,1","6","blank","316","null","0.8377475517548661","0.17825080133835197","0.4139711385242992","0","","","","","",""
"","do_recog","398","2107880","0.0-369.0-0.0","1687","","","","56","","","","317","probe-64","","","","","1","[object Object]","162","4","1",""
"","do_trial","399","2113102","0.0-370.0-0.0","1678","","","","51","1,0,0","6","blank","318","null","0.8705229232032842","0.09037904810199095","0.3583923459857598","0","","","","","",""
"","do_trial","400","2117038","0.0-371.0-0.0","401","","","","50","0,1,1","6","blank","319","null","0.7714401974883753","0.09990755392430321","0.40504588744725256","1","","","","","",""
"","do_trial","401","2121449","0.0-372.0-0.0","875","","","","50","0,0,1","6","blank","320","null","0.8000774946058458","0.11647277726815179","0.432679312508887","0","","","","","",""
"","do_recog","402","2124057","0.0-373.0-0.0","1100.9999999995343","","","","56","","","","321","probe-69","","","","","1","[object Object]","46","1","1",""
"","do_trial","403","2128140","0.0-374.0-0.0","547","","","","50","1,0,1","6","blank","322","null","0.7641132663325584","0.17470747691866906","0.5311286310039922","0","","","","","",""
"","do_recog","404","2130776","0.0-375.0-0.0","1129","","","","56","","","","323","probe-227","","","","","1","[object Object]","167","4","1",""
"","do_trial","405","2136239","0.0-376.0-0.0","1926","","","","51","1,1,1","6","blank","324","null","0.7668612505967835","0.1493203760831958","0.48028585540880725","1","","","","","",""
"","do_trial","406","2141060","0.0-377.0-0.0","1284.0000000004657","","","","50","1,0,0","6","blank","325","null","0.7658343623368938","0.07465810076866719","0.6124092989089814","0","","","","","",""
"","do_trial","407","2146797","0.0-378.0-0.0","2200","","","","51","1,0,1","6","blank","326","null","0.7120498500666593","0.11045116144598337","0.597307945114663","1","","","","","",""
"","do_trial","408","2151070","0.0-379.0-0.0","736","","","","50","1,0,0","6","blank","327","null","0.8249003697171681","0.08952841992671852","0.5509696675409097","0","","","","","",""
"","do_recog","409","2154055","0.0-380.0-0.0","1481","","","","55","","","","328","probe-160","","","","","1","[object Object]","83","2","1",""
"","do_trial","410","2158884","0.0-381.0-0.0","1293","","","","50","1,1,0","6","blank","329","null","0.7310352814487829","0.16048392200860895","0.5278894729450138","1","","","","","",""
"","do_recog","411","2161967","0.0-382.0-0.0","1576.9999999995343","","","","55","","","","330","probe-100","","","","","1","[object Object]","164","4","1",""
"","do_trial","412","2166604","0.0-383.0-0.0","1095","","","","51","1,0,1","6","blank","331","null","0.7932387772834093","0.10626216431273207","0.31505764607704595","1","","","","","",""
"","do_recog","413","2169153","0.0-384.0-0.0","1041.9999999995343","","","","56","","","","332","probe-92","","","","","1","[object Object]","124","3","1",""
"","do_trial","414","2173572","0.0-385.0-0.0","882.0000000004657","","","","49","1,0,0","6","blank","333","null","1","0.1146151202542119","0.39300076957606245","1","","","","","",""
"","do_trial","415","2177843","0.0-386.0-0.0","733","","","","51","1,1,1","6","blank","334","null","0.9493223035459225","0.16113848647844115","0.4585778071864888","1","","","","","",""
"","do_recog","416","2180610","0.0-387.0-0.0","1260","","","","55","","","","335","probe-73","","","","","1","[object Object]","86","2","1",""
"","do_trial","417","2184622","0.0-388.0-0.0","475","","","","50","1,0,0","6","blank","336","null","0.9495674304324925","0.23911596074059382","0.40032870355094574","0","","","","","",""
"","do_trial","418","2188837","0.0-389.0-0.0","677","","","","51","0,0,0","6","blank","337","null","0.8339031959279628","0.11487131740756121","0.5310154158093978","0","","","","","",""
"","do_trial","419","2192756","0.0-390.0-0.0","378","","","","49","0,0,0","6","blank","338","null","0.8317047996358597","0.050320383906425674","0.4415263930833435","0","","","","","",""
"","do_recog","420","2195709","0.0-391.0-0.0","1447","","","","56","","","","339","probe-30","","","","","1","[object Object]","81","2","1",""
"","do_trial","421","2200403","0.0-392.0-0.0","1160","","","","50","1,0,1","6","blank","340","null","0.7772955399787691","0.062151646923993664","0.6308569669302254","0","","","","","",""
"","do_trial","422","2204269","0.0-393.0-0.0","328","","","","51","1,0,0","6","blank","341","null","0.7212654456609837","0.11089028070825034","0.5400962779245344","0","","","","","",""
"","do_trial","423","2208174","0.0-394.0-0.0","367","","","","49","1,0,1","6","blank","342","null","0.5905028772480408","0.13159106114895103","0.3699583275714604","1","","","","","",""
"","do_trial","424","2212591","0.0-395.0-0.0","874","","","","50","0,0,0","6","blank","343","null","0.6728038885502962","0.1547192571050867","0.35756681923198264","0","","","","","",""
"","do_trial","425","2217253","0.0-396.0-0.0","1123","","","","50","1,0,0","6","blank","344","null","0.6826820738358597","0.11199506903378378","0.39224208156374324","0","","","","","",""
"","do_trial","426","2221316","0.0-397.0-0.0","526","","","","51","0,1,0","6","blank","345","null","0.44780039040537867","0.47405847433345577","0.2786417352358893","0","","","","","",""
"","do_recog","427","2224060","0.0-398.0-0.0","1236","","","","55","","","","346","probe-93","","","","","1","[object Object]","129","3","1",""
"","do_trial","428","2228239","0.0-399.0-0.0","643","","","","49","1,1,1","6","blank","347","null","0.2588343727102756","0.6361132086045594","0.3327432449561308","1","","","","","",""
"","do_recog","429","2231035","0.0-400.0-0.0","1288","","","","55","","","","348","probe-255","","","","","0","[object Object]","null","null","0",""
"","do_trial","430","2235312","0.0-401.0-0.0","736.9999999995343","","","","51","0,1,1","6","blank","349","null","0.2755581783275634","0.7216548997997021","0.3692090064546625","1","","","","","",""
"","do_recog","431","2238111","0.0-402.0-0.0","1291","","","","55","","","","350","probe-181","","","","","1","[object Object]","126","3","1",""
"","do_trial","432","2242370","0.0-403.0-0.0","722","","","","50","0,1,0","6","blank","351","null","0.3296102163475861","0.5736333772106925","0.2637473346991293","1","","","","","",""
"","do_trial","433","2247175","0.0-404.0-0.0","1268","","","","51","0,1,1","6","blank","352","null","0.24378512259084942","0.7393949561832223","0.25891167122940006","1","","","","","",""
"","do_trial","434","2251772","0.0-405.0-0.0","1059","","","","49","0,1,0","6","blank","353","null","0.2772239573467556","0.7866976304946516","0.37288500266967617","0","","","","","",""
"","do_trial","435","2256370","0.0-406.0-0.0","1062","","","","51","1,1,0","6","blank","354","null","0.11617344303624401","0.7725022239933473","0.495472105426825","0","","","","","",""
"","do_trial","436","2261369","0.0-407.0-0.0","1455.9999999995343","","","","50","0,1,0","6","blank","355","null","0.14335227717988352","0.7694402475180085","0.4104606687815482","1","","","","","",""
"","do_recog","437","2263832","0.0-408.0-0.0","955","","","","56","","","","356","probe-06","","","","","1","[object Object]","204","5","1",""
"","do_trial","438","2268024","0.0-409.0-0.0","655","","","","51","0,1,1","6","blank","357","null","0.059855185140172545","0.7872171921241813","0.4863590480995248","1","","","","","",""
"","do_recog","439","2271035","0.0-410.0-0.0","1504","","","","55","","","","358","probe-19","","","","","1","[object Object]","166","4","1",""
"","do_trial","440","2275410","0.0-411.0-0.0","835","","","","50","0,0,0","6","blank","359","null","0.23921854758748812","0.7112390660049656","0.4317916649290167","0","","","","","",""
"","do_recog","441","2278109","0.0-412.0-0.0","1191","","","","55","","","","360","probe-17","","","","","1","[object Object]","168","4","1",""
"","do_trial","442","2283040","0.0-413.0-0.0","1394","","","","49","0,1,0","6","blank","361","null","0.32998218064160745","0.6717511645249208","0.42437924740760735","0","","","","","",""
"","do_recog","443","2285992","0.0-414.0-0.0","1443.9999999995343","","","","55","","","","362","probe-142","","","","","1","[object Object]","163","4","1",""
"","do_trial","444","2290727","0.0-415.0-0.0","1198","","","","51","1,1,0","6","blank","363","null","0.2676628646740607","0.6574658606285987","0.32068233747590874","0","","","","","",""
"","do_recog","445","2293435","0.0-416.0-0.0","1202","","","","55","","","","364","probe-48","","","","","1","[object Object]","45","1","1",""
"","do_trial","446","2297950","0.0-417.0-0.0","980","","","","50","0,1,1","6","blank","365","null","0.316857686429575","0.7827786656351481","0.4764172242132776","1","","","","","",""
"","do_trial","447","2302512","0.0-418.0-0.0","1027","","","","50","0,1,1","6","blank","366","null","0.1635824385068386","0.7761517854732093","0.4024648603624179","1","","","","","",""
"","do_trial","448","2306548","0.0-419.0-0.0","498.99999999953434","","","","50","0,1,1","6","blank","367","null","0.05469539344763758","0.7260607480912189","0.27575944971111577","1","","","","","",""
"","do_trial","449","2310576","0.0-420.0-0.0","489.99999999953434","","","","50","0,1,0","6","blank","368","null","0.14146896091231387","0.7646799648825308","0.28805308902561044","1","","","","","",""
"","do_recog","450","2313362","0.0-421.0-0.0","1278","","","","55","","","","369","probe-231","","","","","1","[object Object]","89","2","1",""
"","do_trial","451","2317435","0.0-422.0-0.0","535","","","","51","0,0,0","6","blank","370","null","0.09880282591537387","0.585635823015188","0.4011452211481648","0","","","","","",""
"","do_recog","452","2319966","0.0-423.0-0.0","1023.9999999995343","","","","56","","","","371","probe-72","","","","","1","[object Object]","205","5","1",""
"","do_trial","453","2324015","0.0-424.0-0.0","511","","","","49","0,1,0","6","blank","372","null","0.07524867231359426","0.6483195167175148","0.2995668288626987","0","","","","","",""
"","do_recog","454","2326709","0.0-425.0-0.0","1187","","","","55","","","","373","probe-141","","","","","1","[object Object]","44","1","1",""
"","do_trial","455","2330870","0.0-426.0-0.0","620","","","","50","1,0,0","6","blank","374","null","0.08130103440928914","0.6887252990180064","0.35364980976611776","0","","","","","",""
"","do_recog","456","2333393","0.0-427.0-0.0","1016","","","","55","","","","375","probe-36","","","","","1","[object Object]","48","1","1",""
"","do_trial","457","2337575","0.0-428.0-0.0","646","","","","51","0,1,0","6","blank","376","null","0.060755732168039256","0.8119178122972585","0.30042156968048234","0","","","","","",""
"","do_recog","458","2339996","0.0-429.0-0.0","915","","","","55","","","","377","probe-169","","","","","1","[object Object]","88","2","1",""
"","do_trial","459","2344630","0.0-430.0-0.0","1098","","","","50","0,1,1","6","blank","378","null","0.08691495712558982","1","0.28892959873267055","1","","","","","",""
"","do_trial","460","2348676","0.0-431.0-0.0","509","","","","50","0,1,0","6","blank","379","null","0.1819483319676356","0.8400529659877495","0.2519452476668808","1","","","","","",""
"","do_trial","461","2352782","0.0-432.0-0.0","568.9999999995343","","","","50","0,1,0","6","blank","380","null","0.09005683940392306","0.8625727193185471","0.29717071088435687","1","","","","","",""
"","do_trial","462","2356707","0.0-433.0-0.0","385","","","","50","0,1,1","6","blank","381","null","0.13574581027298402","0.8682593954196491","0.3797107737300845","1","","","","","",""
"","do_recog","463","2359525","0.0-434.0-0.0","1310","","","","54","","","","382","probe-245","","","","","0","[object Object]","null","null","1",""
"","do_trial","464","2363595","0.0-435.0-0.0","532","","","","50","0,1,1","6","blank","383","null","0.12551948999692436","0.9188512392819367","0.4961452479529895","1","","","","","",""
"","do_recog","465","2366223","0.0-436.0-0.0","1120","","","","55","","","","384","probe-23","","","","","1","[object Object]","127","3","1",""
"","do_trial","466","2370280","0.0-437.0-0.0","518","","","","50","0,1,0","6","blank","385","null","0.1548494062695992","0.8853117073719871","0.35720444450628647","1","","","","","",""
"","do_trial","467","2374496","0.0-438.0-0.0","679","","","","50","0,1,0","6","blank","386","null","0.27204402966138225","0.8814299101972022","0.2938985331452284","1","","","","","",""
"","do_trial","468","2378632","0.0-439.0-0.0","598","","","","50","0,1,0","6","blank","387","null","0.22990601197080412","0.8762766982930404","0.2737566348897948","1","","","","","",""
"","do_trial","469","2382813","0.0-440.0-0.0","643","","","","50","0,1,0","6","blank","388","null","0.26274146891891303","0.8330191751396268","0.32319952273375824","1","","","","","",""
"","do_trial","470","2386785","0.0-441.0-0.0","431","","","","50","0,1,0","6","blank","389","null","0.2892631704256547","0.8602832153495488","0.4472195352952182","1","","","","","",""
"","do_trial","471","2390860","0.0-442.0-0.0","537","","","","50","1,0,1","6","blank","390","null","0.49898239449850457","0.4658517708386367","0.478090150574198","0","","","","","",""
"","do_trial","472","2395378","0.0-443.0-0.0","978","","","","51","1,1,1","6","blank","391","null","0.5787865161791583","0.3249451755460124","0.557354517550142","1","","","","","",""
"","do_recog","473","2398191","0.0-444.0-0.0","1304","","","","56","","","","392","probe-81","","","","","1","[object Object]","203","5","1",""
"","do_trial","474","2402405","0.0-445.0-0.0","679","","","","49","0,1,0","6","blank","393","null","0.7120350660150356","0.4172163425986385","0.44402387316081","0","","","","","",""
"","do_recog","475","2405599","0.0-446.0-0.0","1686.0000000004657","","","","55","","","","394","probe-184","","","","","1","[object Object]","202","5","1",""
"","do_trial","476","2409803","0.0-447.0-0.0","665","","","","50","1,0,0","6","blank","395","null","0.8031131944736513","0.35843922203668965","0.4214372260288309","0","","","","","",""
"","do_recog","477","2412411","0.0-448.0-0.0","1099.9999999995343","","","","56","","","","396","probe-235","","","","","1","[object Object]","121","3","1",""
"","do_trial","478","2416988","0.0-449.0-0.0","1040","","","","51","0,0,0","6","blank","397","null","0.8967976116947379","0.13598806126793844","0.371131902826007","0","","","","","",""
"","do_trial","479","2421079","0.0-450.0-0.0","555.9999999995343","","","","50","1,0,0","6","blank","398","null","0.8303804705267536","0.16324007007241786","0.3856946024382045","0","","","","","",""
"","do_trial","480","2425028","0.0-451.0-0.0","410","","","","51","1,0,0","6","blank","399","null","0.8115282306386434","0.2035956667354091","0.28658412103010816","0","","","","","",""
"","do_trial","481","2428889","0.0-452.0-0.0","322","","","","49","1,0,1","6","blank","400","null","0.8639722372100406","0.21066750099820045","0.3703795130787095","1","","","","","",""
"","do_trial","482","2433201","0.0-453.0-0.0","773.9999999995343","","","","49","1,1,0","6","blank","401","null","0.8671955757219537","0.12416127648386692","0.31072128790147535","1","","","","","",""
"","do_recog","483","2436112","0.0-454.0-0.0","1404","","","","55","","","","402","probe-95","","","","","1","[object Object]","122","3","1",""
"","do_trial","484","2440158","0.0-455.0-0.0","509","","","","50","0,0,1","6","blank","403","null","0.7629031368351281","0.09454556839747076","0.4809933315767384","0","","","","","",""
"","do_recog","485","2442872","0.0-456.0-0.0","1207","","","","56","","","","404","probe-186","","","","","1","[object Object]","42","1","1",""
"","do_trial","486","2446991","0.0-457.0-0.0","583","","","","51","1,1,1","6","blank","405","null","0.8369000683553047","0.08259583435246368","0.39700425392650546","1","","","","","",""
"","do_recog","487","2451000","0.0-458.0-0.0","2501","","","","53","","","","406","probe-05","","","","","1","[object Object]","85","2","0",""
"","do_trial","488","2455126","0.0-459.0-0.0","587","","","","50","1,0,0","6","blank","407","null","0.6789806076961941","0.15031558684640267","0.39248372380634794","0","","","","","",""
"","do_trial","489","2459421","0.0-460.0-0.0","757","","","","51","1,0,1","6","blank","408","null","0.6919327387027948","0.11578381725235398","0.37916402761260937","1","","","","","",""
"","do_recog","490","2462753","0.0-461.0-0.0","1825.0000000004657","","","","53","","","","409","probe-253","","","","","0","[object Object]","null","null","1",""
"","do_trial","491","2466838","0.0-462.0-0.0","548","","","","50","0,0,0","6","blank","410","null","0.6834301607063012","0.07597174558854429","0.3278477535329558","0","","","","","",""
"","do_trial","492","2471379","0.0-463.0-0.0","998.9999999995343","","","","51","0,0,1","6","blank","411","null","0.6541120685707495","0.13342376864598815","0.3629117476610245","1","","","","","",""
"","do_recog","493","2474169","0.0-464.0-0.0","1282","","","","55","","","","412","probe-244","","","","","0","[object Object]","null","null","0",""
"","do_trial","494","2478399","0.0-465.0-0.0","692","","","","51","1,0,0","6","blank","413","null","0.690012405422675","0.12244648318947787","0.27117671084922795","0","","","","","",""
"","do_trial","495","2482372","0.0-466.0-0.0","435","","","","50","1,0,0","6","blank","414","null","0.7750794409520289","0.10302506179777299","0.31554734710543525","0","","","","","",""
"","do_trial","496","2486300","0.0-467.0-0.0","390.99999999953434","","","","51","1,0,0","6","blank","415","null","0.7081927886705228","0.07531025562396268","0.44289996286315864","0","","","","","",""
"","do_trial","497","2490185","0.0-468.0-0.0","348","","","","49","1,0,0","6","blank","416","null","0.7657964382722768","0.09959864231117106","0.5787149180055342","1","","","","","",""
