"success","trial_type","trial_index","time_elapsed","internal_node_id","rt","stimulus","key_press","subject_id","response","choice_outcomes","context_n","context_img_id","trial_n","probe_img_id","pR_red","pR_white","pR_black","outcome","is_valid","image_to_show","probed_trial","probed_context","correct","context_id"
"true","fullscreen","0","4500","0.0-0.0","","","","","","","","","","","","","","","","","","","",""
"","pavlovia","1","4505","0.0-1.0","","","","","","","","","","","","","","","","","","","",""
"","html-keyboard-response","2","23624","0.0-2.0","19118.10000000149","<div class='center'><p>Welcome! This experiment will last ~1 hour. In this experiment, you are the head captain of a pirate ship traveling around the world to different places. You will complete several different tasks during this experiment. Here is an overview of these tasks:</p><br><p>1. Tutorial and quiz</p><p>2. Pick a pirate game in 6 different places</p><p>3. Pick a pirate game and memory game</p><p>4. Final questions and payment</p><br><p>If you complete the entire experiment, you will receive $15 and a possible bonus payment.</p><p><b>[Press the space bar to begin the tutorial]</b></p></div>","32","61255972cd399c6c6f7cad52","","","","","","","","","","","","","","","",""
"","html-keyboard-response","3","38693","0.0-3.0","15067.79999999702","<div class='center'><p>You are the head captain of a pirate ship.</p><p> Your pirates rob other ships as they leave the marketplace port.</p> These ships have just sold all their goods at the marketplace, so they have lots and lots of gold on them.</p><p><img src='run_exp/static/images/ship_center.png' height='400'></p><p><b>[Press the space bar to continue]</b></p></div>","32","","","","","","","","","","","","","","","","",""
"","html-keyboard-response","4","60687","0.0-4.0","21993","<div class='center'><p>As the head captain, you do not have to rob any ships yourself.</p><p>You get to choose which pirate you want to rob the next ship. </p><p>If they are successful at robbing the ship, then you will get gold coins.</p><p> If they are not successful, then you will get no gold coins.</p><p> The more coins you collect, the more bonus money you will win. So, choose your pirate wisely.</p><p><img src='run_exp/static/images/goal.png' height='400'></p><p><b>[Press the space bar to continue]</b></p><div>","32","","","","","","","","","","","","","","","","",""
"","html-keyboard-response","5","78685","0.0-5.0","17996.89999999851","<div class='center'><p>Even the most skilled pirate will not be able to rob EVERY ship.</p><p> Some ships will have very strong defenses against attacks.</p><p> For example, blue beard, here,  is very good at robbing ships.</p><p> You can press the <b>‘1’</b> button on the keyboard to choose him.</p><p> Try choosing him 10 times to see how often he is successful at robbing ships. </p><p><img src='run_exp/static/images/blue.png' height='500'></p></div>","49","","","","","","","","","","","","","","","","",""
"","html-keyboard-response","6","80193","0.0-6.0","null","<br><br><br><br><p><img src='run_exp/static/images/blue_win.png' height='500'></p>","null","","","","","","","","","","","","","","","","",""
"","html-keyboard-response","7","81307","0.0-7.0","1113.2999999970198","<br><br><br><br><p><img src='run_exp/static/images/blue.png' height='500'></p>","49","","","","","","","","","","","","","","","","",""
"","html-keyboard-response","8","82818","0.0-8.0","null","<br><br><br><br><p><img src='run_exp/static/images/blue_win.png' height='500'></p>","null","","","","","","","","","","","","","","","","",""
"","html-keyboard-response","9","82864","0.0-9.0","45.399999998509884","<br><br><br><br><p><img src='run_exp/static/images/blue.png' height='500'></p>","49","","","","","","","","","","","","","","","","",""
"","html-keyboard-response","10","84373","0.0-10.0","null","<br><br><br><br><p><img src='run_exp/static/images/blue_win.png' height='500'></p>","null","","","","","","","","","","","","","","","","",""
"","html-keyboard-response","11","85412","0.0-11.0","1038.4000000059605","<br><br><br><br><p><img src='run_exp/static/images/blue.png' height='500'></p>","49","","","","","","","","","","","","","","","","",""
"","html-keyboard-response","12","86928","0.0-12.0","null","<br><br><br><br><p><img src='run_exp/static/images/blue_no_win.png' height='500'></p>","null","","","","","","","","","","","","","","","","",""
"","html-keyboard-response","13","87694","0.0-13.0","765.1000000014901","<br><br><br><br><p><img src='run_exp/static/images/blue.png' height='500'></p>","49","","","","","","","","","","","","","","","","",""
"","html-keyboard-response","14","89198","0.0-14.0","null","<br><br><br><br><p><img src='run_exp/static/images/blue_win.png' height='500'></p>","null","","","","","","","","","","","","","","","","",""
"","html-keyboard-response","15","89583","0.0-15.0","384.1000000014901","<br><br><br><br><p><img src='run_exp/static/images/blue.png' height='500'></p>","49","","","","","","","","","","","","","","","","",""
"","html-keyboard-response","16","91093","0.0-16.0","null","<br><br><br><br><p><img src='run_exp/static/images/blue_win.png' height='500'></p>","null","","","","","","","","","","","","","","","","",""
"","html-keyboard-response","17","91496","0.0-17.0","402.6000000014901","<br><br><br><br><p><img src='run_exp/static/images/blue.png' height='500'></p>","49","","","","","","","","","","","","","","","","",""
"","html-keyboard-response","18","93012","0.0-18.0","null","<br><br><br><br><p><img src='run_exp/static/images/blue_win.png' height='500'></p>","null","","","","","","","","","","","","","","","","",""
"","html-keyboard-response","19","93390","0.0-19.0","376.20000000298023","<br><br><br><br><p><img src='run_exp/static/images/blue.png' height='500'></p>","49","","","","","","","","","","","","","","","","",""
"","html-keyboard-response","20","94898","0.0-20.0","null","<br><br><br><br><p><img src='run_exp/static/images/blue_no_win.png' height='500'></p>","null","","","","","","","","","","","","","","","","",""
"","html-keyboard-response","21","95520","0.0-21.0","621.0999999940395","<br><br><br><br><p><img src='run_exp/static/images/blue.png' height='500'></p>","49","","","","","","","","","","","","","","","","",""
"","html-keyboard-response","22","97023","0.0-22.0","null","<br><br><br><br><p><img src='run_exp/static/images/blue_win.png' height='500'></p>","null","","","","","","","","","","","","","","","","",""
"","html-keyboard-response","23","97333","0.0-23.0","309.5","<br><br><br><br><p><img src='run_exp/static/images/blue.png' height='500'></p>","49","","","","","","","","","","","","","","","","",""
"","html-keyboard-response","24","98838","0.0-24.0","null","<br><br><br><br><p><img src='run_exp/static/images/blue_win.png' height='500'></p>","null","","","","","","","","","","","","","","","","",""
"","html-keyboard-response","25","103266","0.0-25.0","4428.20000000298","<div class='center'><p> See, he was successful at robbing the ships most of the time but not every time. </p><p><b>[Press the space bar to continue]</b></p></div>","32","","","","","","","","","","","","","","","","",""
"","html-keyboard-response","26","113385","0.0-26.0","10116.89999999851","<div class='center'><p>In the game, you will get to choose which of three pirates you want to rob the next ship. <p>Press the <b>‘1’</b> button on your keyboard to pick the pirate with the red beard.</p><p> Press <b>‘2’</b> to pick the pirate with the white beard.</p><p> Press <b>‘3’</b> to pick the pirate with the black beard.</p><p>Try picking a pirate now!</p><p><img src='run_exp/static/images/all_pirates.png' height='500'></p></div>","50","","","","","","","","","","","","","","","","",""
"","html-keyboard-response","27","116913","0.0-27.0-0.0","3527","<div class='center'><p>This pirate was successful at robbing the ship!</p><p><img src='run_exp/static/images/white_win.png' height='500'></p><p><b>[Press the space bar to continue]</b></p></div>","32","","","","","","","","","","","","","","","","",""
"","html-keyboard-response","28","119255","0.0-27.0-1.0","2340.8000000044703","<div class='center'><p>Now try choosing another</p><p><img src='run_exp/static/images/all_pirates.png' height='500'></p></div>","49","","","","","","","","","","","","","","","","",""
"","html-keyboard-response","29","122151","0.0-28.0-0.0","2894.6999999955297","<div class='center'><p>This pirate was not successful at robbing the ship!</p><p><img src='run_exp/static/images/red_no_win.png' height='500'></p><p><b>[Press the space bar to continue]</b></p></div>","32","","","","","","","","","","","","","","","","",""
"","html-keyboard-response","30","126674","0.0-29.0-0.0","4522.0999999940395","<div class='center'><p>You’ll stop at these 6 places on your journey.</p><p><img src='run_exp/static/images/all_contexts.png' height='500'></p><p><b>[Press the space bar to continue]</b></p></div>","32","","","","","","","","","","","","","","","","",""
"","html-keyboard-response","31","137689","0.0-29.0-1.0","11014.70000000298","<div class='center'><p>How good a pirate is at robbing ships will depend on the current place.</p><p> Some pirates will have been to the place before, and will have more experience robbing ships there.</p><p>So, they will be more successful at stealing gold and bringing it back to you.</p><p><b>[Press the space bar to continue]</b></p></div>","32","","","","","","","","","","","","","","","","",""
"","html-keyboard-response","32","153999","0.0-29.0-2.0","16308.70000000298","<div class='center'><p>How successful a pirate is at robbing ships can also change in a place.<p> Ships may hear about the pirates coming and will improve their defenses. This may make it more difficult to rob them.</p><p> Ships may also grow lazy and lower their defenses. This may make it easier to rob them.</p><br><p>Things are always changing on the high seas! So, try your best to pay attention!</p><p><img src='run_exp/static/images/contingency.png' height='500'></p><p><b>[Press the space bar to continue]</b></p></div>","32","","","","","","","","","","","","","","","","",""
"","html-keyboard-response","33","194422","0.0-29.0-3.0","40420.19999999553","<div class='center'><p>Once you choose a pirate to rob a ship, you’ll be shown the ship they are robbing.</p><p>The ship will have a picture of the item they sold at the marketplace.</p><p> Try your best to remember the ship and where you saw the ship.</p><p> You’ll have to remember this for later, and remembering this correctly will help you win more bonus money!</p><p>You can remember the ship by remembering the item they sold at the marketplace</p><p>A helpful strategy is to try to come up with a story of the chosen pirate and ship’s item interacting with the scene.</p><p> For example, a ship might have sold travel mugs and you could imagine red beard walking through the city with a travel mug. </p><p>Or imagine an apple falling from a tree into white beard's hands in the forest.</p><p><img src='run_exp/static/images/example_probe.png' height='500'></p><p><b>[Press the space bar to continue]</b></p></div>","32","","","","","","","","","","","","","","","","",""
"","html-keyboard-response","34","203191","0.0-29.0-4.0","8768.10000000149","<div class='center'><p>If you don’t make your choice fast enough, you’ll have to wait a few seconds before you can make another one. </p><p>You can’t win more gold. You just have to sit and wait.</p><p><img src='run_exp/static/images/hurry_up.png' height='500'></p><p><b>[Press the space bar to continue]</b></p></div>","32","","","","","","","","","","","","","","","","",""
"","html-keyboard-response","35","259512","0.0-29.0-5.0","56319.39999999851","<div class='center'><p>Again, you have two important things to do: </p><b><p> 1. Pick the pirate who you think will be most successful at robbing the next ship.</p></b><b><p> 2. Remember where a pirate robbed a ship.</p> </b><p>Both are important in determining how much bonus money you’ll win.</p><br><p>Let’s try a practice game. The game will start by showing you the pirates. First pick a pirate using the <b> 1, 2, 3 </b> buttons on your keyboard. When you are shown a ship, try to remember the place you’re in by making up a story.</p><p> You only have 3 seconds to pick a pirate, so please make a choice quickly! If you are too slow, you’ll have to wait a bit during the time out.</p><p> Don’t feel rushed, but please do try to make a choice every time.</p><p>How good a pirate is at robbing a ship will change depending on the place they are in and how good the defenses are of the ship.</p> <p>This is just a practice game, so you’re not playing for money. </p><p>You’ll receive a bag which may or may not contain gold coins.</p><p> In the real game, though, you’ll be able to see whether or not you received the gold coins.</p><p> Good luck, remember press <b>'1'</b> to choose red beard, <b>'2'</b> to choose white beard, and <b>'3'</b> to choose black beard</p><p><b>[Press the space bar to begin the practice game]</b></p></div>","32","","","","","","","","","","","","","","","","",""
"","do_trial_prac","36","265134","0.0-29.0-6.0","1095.5","","","","50","","","","","","","","","","","","","","",""
"","do_trial_prac","37","271161","0.0-29.0-7.0","null","","","","null","","","","","","","","","","","","","","",""
"","do_trial_prac","38","277251","0.0-29.0-8.0","1575.1999999955297","","","","50","","","","","","","","","","","","","","",""
"","do_trial_prac","39","282934","0.0-29.0-9.0","1168.3999999985099","","","","51","","","","","","","","","","","","","","",""
"","do_trial_prac","40","288394","0.0-29.0-10.0","946.2000000029802","","","","49","","","","","","","","","","","","","","",""
"","html-keyboard-response","41","299247","0.0-29.0-11.0","10852.20000000298","<div class='center'><p>Great job on the practice game!</p><p> Now, you will be asked you some true or false questions to make sure you really understand the rules of the game.</p><p> Press <b>'1'</b> on the keyboard for true and press <b>'2'</b> for false.</p><p><b>[Press the space bar to begin the quiz]</b></p></div>","32","","","","","","","","","","","","","","","","",""
"","html-keyboard-response","42","308590","0.0-29.0-12.0","9342.39999999851","<div class='center'><p>You win bonus money by making choices as fast as possible.</p><p>Press 1 for true and press  2 for false.</p></div>","49","","","","","","","","","","","","","","","","",""
"","html-keyboard-response","43","312026","0.0-30.0-0.0","3434.5","<br><br><br><br><p>That’s incorrect! You win bonus money by collecting as many gold coins as possible!</p><p><b>[press the space bar to continue with the quiz]</b></p>","32","","","","","","","","","","","","","","","","",""
"","html-keyboard-response","44","320398","0.0-30.0-1.0","8372.69999999553","<div class='center'><p>You press the <b>‘3’</b> button on the keyboard to choose the red bearded pirate? </p><p>Press 1 for true and press  2 for false.</p></div>","50","","","","","","","","","","","","","","","","",""
"","html-keyboard-response","45","321608","0.0-31.0-0.0","1208.3999999985099","<br><br><br><br><p>That's correct!</p> <p><b>[press the space bar to continue with the quiz]</b></p>","32","","","","","","","","","","","","","","","","",""
"","html-keyboard-response","46","325467","0.0-31.0-1.0","3858.6999999955297","<div class='center'><p>A pirate will always be equally successful at robbing ships in each place</p><p>Press 1 for true and press  2 for false.</p></div>","50","","","","","","","","","","","","","","","","",""
"","html-keyboard-response","47","326175","0.0-32.0-0.0","706.3999999985099","<br><br><br><br><p>That's correct!</p> <p><b>[press the space bar to continue with the quiz]</b></p>","32","","","","","","","","","","","","","","","","",""
"","html-keyboard-response","48","329278","0.0-32.0-1.0","3102.2999999970198","<div class='center'><p>You should remember the place where a pirate robbed a ship.</p><p>Press 1 for true and press  2 for false.</p></div>","49","","","","","","","","","","","","","","","","",""
"","html-keyboard-response","49","329873","0.0-33.0-0.0","592.7999999970198","<br><br><br><br><p>That's correct!</p> <p><b>[press the space bar to continue with the quiz]</b></p>","32","","","","","","","","","","","","","","","","",""
"","html-keyboard-response","50","333765","0.0-34.0-0.0","3891.60000000149","<br><br><br><br><p>Oops, you missed some questions. Now that you’ve heard the correct answers. Try the quiz again! If you fail the quiz too many times, you won’t be able to do the experiment. </p> <p><br>[press the space bar to repeat the quiz]</br></p>","32","","","","","","","","","","","","","","","","",""
"","html-keyboard-response","51","335639","0.0-34.0-1.0","1872.5999999940395","<div class='center'><p>You win bonus money by making choices as fast as possible.</p><p>Press 1 for true and press  2 for false.</p></div>","50","","","","","","","","","","","","","","","","",""
"","html-keyboard-response","52","336253","0.0-35.0-0.0","613.6000000014901","<br><br><br><br><p>That's correct!</p> <p><b>[press the space bar to continue with the quiz]</b></p>","32","","","","","","","","","","","","","","","","",""
"","html-keyboard-response","53","338857","0.0-35.0-1.0","2602.89999999851","<div class='center'><p>You press the <b>‘3’</b> button on the keyboard to choose the red bearded pirate? </p><p>Press 1 for true and press  2 for false.</p></div>","50","","","","","","","","","","","","","","","","",""
"","html-keyboard-response","54","339441","0.0-36.0-0.0","583.2000000029802","<br><br><br><br><p>That's correct!</p> <p><b>[press the space bar to continue with the quiz]</b></p>","32","","","","","","","","","","","","","","","","",""
"","html-keyboard-response","55","341718","0.0-36.0-1.0","2276","<div class='center'><p>A pirate will always be equally successful at robbing ships in each place</p><p>Press 1 for true and press  2 for false.</p></div>","50","","","","","","","","","","","","","","","","",""
"","html-keyboard-response","56","342030","0.0-37.0-0.0","311.09999999403954","<br><br><br><br><p>That's correct!</p> <p><b>[press the space bar to continue with the quiz]</b></p>","32","","","","","","","","","","","","","","","","",""
"","html-keyboard-response","57","343279","0.0-37.0-1.0","1248.2999999970198","<div class='center'><p>You should remember the place where a pirate robbed a ship.</p><p>Press 1 for true and press  2 for false.</p></div>","49","","","","","","","","","","","","","","","","",""
"","html-keyboard-response","58","343525","0.0-38.0-0.0","235.39999999850988","<br><br><br><br><p>That's correct!</p> <p><b>[press the space bar to continue with the quiz]</b></p>","32","","","","","","","","","","","","","","","","",""
"","html-keyboard-response","59","344876","0.0-39.0-0.0","1349.6999999955297","<br><br><br><br><p>Good job! You’re now ready to move on to the real game!</p> <p><br>[press the space bar to begin!]</br></p>","32","","","","","","","","","","","","","","","","",""
"","do_welcome","60","346381","0.0-40.0-0.0","null","","","","null","","","","","","","","","","","","","","",""
"","do_trial","61","353583","0.0-41.0-0.0","1643.3999999985099","","","","50","1,1,0","0","coast","0","probe-223","1","0.4","0.1","1","","","","","",""
"","do_trial","62","360783","0.0-42.0-0.0","1657.1000000014901","","","","49","1,0,0","0","coast","1","probe-85","1","0.39133094802657253","0.11385165419058878","1","","","","","",""
"","do_trial","63","366953","0.0-43.0-0.0","614.3999999985099","","","","51","1,0,0","0","coast","2","probe-110","1","0.38775431944219757","0.07237596142516846","0","","","","","",""
"","do_trial","64","373813","0.0-44.0-0.0","1299","","","","50","1,0,0","0","coast","3","probe-183","1","0.3372430723069689","0.2655473918292733","0","","","","","",""
"","do_trial","65","379733","0.0-45.0-0.0","380.1000000014901","","","","49","1,0,0","0","coast","4","probe-75","0.8010780964589423","0.40119028617079855","0.25427136559542574","1","","","","","",""
"","do_trial","66","385674","0.0-46.0-0.0","355.59999999403954","","","","51","1,1,0","0","coast","5","probe-76","0.877662632268038","0.5425421378981886","0.30234236415524296","0","","","","","",""
"","do_trial","67","391698","0.0-47.0-0.0","481.5","","","","50","1,0,0","0","coast","6","probe-108","0.9410665380900355","0.45630735348900753","0.14908445193710557","0","","","","","",""
"","do_trial","68","397683","0.0-48.0-0.0","413.80000000447035","","","","49","1,1,0","0","coast","7","probe-18","0.8793630873907238","0.3886760883803348","0.0665524526203278","1","","","","","",""
"","do_trial","69","403514","0.0-49.0-0.0","276.5","","","","49","1,1,0","0","coast","8","probe-218","0.8416466412579152","0.41677463154753247","0.0868333466104","1","","","","","",""
"","do_trial","70","409353","0.0-50.0-0.0","287.79999999701977","","","","49","1,0,0","0","coast","9","probe-52","0.8115626969919852","0.3532862635987371","0.12696089892678036","1","","","","","",""
"","do_trial","71","415494","0.0-51.0-0.0","575","","","","49","1,0,1","0","coast","10","probe-144","0.5175407472033922","0.437549401634192","0.2859436818127717","1","","","","","",""
"","do_trial","72","421452","0.0-52.0-0.0","422.6000000014901","","","","49","0,1,0","0","coast","11","probe-29","0.4778012428572938","0.4802037476328029","0.5321568633140911","0","","","","","",""
"","do_trial","73","427283","0.0-53.0-0.0","277","","","","49","0,0,1","0","coast","12","probe-96","0.24081919266140908","0.5390398516749617","0.5467406283633066","0","","","","","",""
"","do_trial","74","433043","0.0-54.0-0.0","215.5","","","","49","1,0,0","0","coast","13","probe-234","0.06290432350759734","0.507248908125583","0.7503888277003182","1","","","","","",""
"","do_trial","75","438823","0.0-55.0-0.0","234.29999999701977","","","","49","0,0,1","0","coast","14","probe-02","0.1638859568671529","0.48730988502407463","0.6192076818432787","0","","","","","",""
"","do_trial","76","444913","0.0-56.0-0.0","501.8999999985099","","","","49","0,0,1","0","coast","15","probe-43","0.11500526150024397","0.5182992660215703","0.6521526820210116","0","","","","","",""
"","do_trial","77","450823","0.0-57.0-0.0","364.3999999985099","","","","49","0,1,1","0","coast","16","probe-155","0.13903080146793287","0.428329433291485","0.6327640603723835","0","","","","","",""
"","do_trial","78","456729","0.0-58.0-0.0","323.5","","","","51","0,1,0","0","coast","17","probe-45","0.05842013073233118","0.4167228972673753","0.8130900436561312","0","","","","","",""
"","do_trial","79","462533","0.0-59.0-0.0","247.20000000298023","","","","50","1,1,1","0","coast","18","probe-139","0.21530434224090178","0.396193137409962","0.8229521585153096","1","","","","","",""
"","do_trial","80","468354","0.0-60.0-0.0","257.30000000447035","","","","50","0,0,1","0","coast","19","probe-149","0.1530969249521944","0.3313145728995462","0.8593441696386827","0","","","","","",""
"","do_trial","81","474233","0.0-61.0-0.0","307.59999999403954","","","","49","0,0,1","0","coast","20","probe-230","0.17590122845212855","0.4932535018063289","0.8107426679717414","0","","","","","",""
"","do_trial","82","480033","0.0-62.0-0.0","247.5","","","","50","1,0,1","0","coast","21","probe-93","0.15055915874026743","0.49884313059092245","0.9063533805006045","0","","","","","",""
"","do_trial","83","485719","0.0-63.0-0.0","133.59999999403954","","","","49","0,1,1","0","coast","22","probe-64","0.07322270941830421","0.3756620489526389","0.820711344888566","0","","","","","",""
"","do_trial","84","491573","0.0-64.0-0.0","279.70000000298023","","","","51","0,0,0","0","coast","23","probe-53","0.10385244328251543","0.3056106189218669","0.7431774045794581","0","","","","","",""
"","do_trial","85","497308","0.0-65.0-0.0","199.20000000298023","","","","50","0,0,1","0","coast","24","probe-160","0.1452825412822965","0.34389706866825814","0.9038789662504337","0","","","","","",""
"","do_trial","86","503208","0.0-66.0-0.0","317.70000000298023","","","","51","0,1,1","0","coast","25","probe-170","0.08072867236896275","0.3741859177847294","0.7251646015906421","1","","","","","",""
"","do_trial","87","508938","0.0-67.0-0.0","180.10000000149012","","","","51","0,0,0","0","coast","26","probe-210","0.10316525311481488","0.22783339383969156","0.6711071189691503","0","","","","","",""
"","do_trial","88","514639","0.0-68.0-0.0","148.79999999701977","","","","50","0,0,1","0","coast","27","probe-200","0.19055632716304552","0.3208944198533819","0.8393058195665225","0","","","","","",""
"","do_trial","89","520208","0.0-69.0-0.0","2.5","","","","49","0,0,1","0","coast","28","probe-116","0.16839047388599596","0.2706869935866809","0.8436074423457665","0","","","","","",""
"","do_trial","90","525923","0.0-70.0-0.0","154.39999999850988","","","","49","0,0,1","0","coast","29","probe-71","0.2070778550577377","0.3313530392612555","0.7709816635376676","0","","","","","",""
"","do_trial","91","531653","0.0-71.0-0.0","177.5","","","","49","0,0,0","0","coast","30","probe-41","0.15083097614561505","0.3150367525257549","0.6426002483119799","0","","","","","",""
"","do_trial","92","537193","0.0-72.0-0.0","0.30000000447034836","","","","49","0,1,1","0","coast","31","probe-60","0.1036127608900027","0.4085180035444579","0.8048235130139635","0","","","","","",""
"","do_trial","93","542844","0.0-73.0-0.0","61.100000001490116","","","","50","0,0,1","0","coast","32","probe-127","0.07123771049002241","0.422572611926746","0.7699591336791862","0","","","","","",""
"","do_trial","94","548404","0.0-74.0-0.0","0.10000000149011612","","","","51","0,1,1","0","coast","33","probe-125","0.10138099741016951","0.3708997008056461","0.8263802385346208","1","","","","","",""
"","do_trial","95","554149","0.0-75.0-0.0","200.39999999850988","","","","49","0,1,1","0","coast","34","probe-82","0.07136826903073593","0.43754347878609623","0.8213763159159888","0","","","","","",""
"","do_trial","96","559877","0.0-76.0-0.0","172.89999999850988","","","","51","0,1,1","0","coast","35","probe-140","0.2217348328444889","0.49149211109256913","0.8012242054557056","1","","","","","",""
"","do_trial","97","565607","0.0-77.0-0.0","176.39999999850988","","","","51","0,0,1","0","coast","36","probe-59","0.19212513522457222","0.4254985439229821","0.8924609188501667","1","","","","","",""
"","do_trial","98","571199","0.0-78.0-0.0","25.700000002980232","","","","51","1,0,1","0","coast","37","probe-37","0.12520513099394343","0.3720022303867518","0.6955886516211867","1","","","","","",""
"","do_trial","99","576971","0.0-79.0-0.0","222","","","","51","0,0,1","0","coast","38","probe-38","0.09152476258771797","0.28197901499754385","0.787548871909833","1","","","","","",""
"","do_trial","100","582673","0.0-80.0-0.0","166.20000000298023","","","","51","0,0,0","0","coast","39","probe-50","0.2537411019295216","0.36809012120782414","0.7915680030591201","0","","","","","",""
"","do_bye","101","584189","0.0-81.0-0.0","null","","","","null","","","","","","","","","","","","","","",""
"","do_travel","102","590204","0.0-82.0-0.0","null","","","","null","","","","","","","","","","","","","","",""
"","do_welcome","103","591714","0.0-82.0-1.0","null","","","","null","","","","","","","","","","","","","","",""
"","do_trial","104","598398","0.0-83.0-0.0","1146.2000000029802","","","","50","0,1,1","1","forest","40","probe-16","0.24503541049128771","0.5573117309332765","1","1","","","","","",""
"","do_trial","105","604234","0.0-84.0-0.0","269.69999999552965","","","","50","0,1,1","1","forest","41","probe-195","0.4075778712309183","0.5962987080135081","1","1","","","","","",""
"","do_trial","106","610014","0.0-85.0-0.0","205.40000000596046","","","","50","0,1,1","1","forest","42","probe-228","0.2613473207295339","0.6623253978639108","1","1","","","","","",""
"","do_trial","107","615788","0.0-86.0-0.0","226.70000000298023","","","","50","0,1,1","1","forest","43","probe-175","0.21099679109331043","0.4919276413621707","1","1","","","","","",""
"","do_trial","108","621634","0.0-87.0-0.0","290.70000000298023","","","","50","0,0,1","1","forest","44","probe-56","0.0990944706785657","0.4958951498263133","0.9033154063287774","0","","","","","",""
"","do_trial","109","627249","0.0-88.0-0.0","74.10000000149012","","","","50","0,0,1","1","forest","45","probe-84","0.1598997168242579","0.5855280994967522","0.9071465467782835","0","","","","","",""
"","do_trial","110","633324","0.0-89.0-0.0","521.4000000059605","","","","50","1,1,1","1","forest","46","probe-19","0.08968406631325186","0.6090220616497208","0.8382103166663649","1","","","","","",""
"","do_trial","111","639113","0.0-90.0-0.0","244","","","","50","0,1,1","1","forest","47","probe-13","0.1337404058763947","0.39462984012957125","0.7877653850783817","1","","","","","",""
"","do_trial","112","644974","0.0-91.0-0.0","308.40000000596046","","","","50","0,1,1","1","forest","48","probe-130","0.16505549615816592","0.31818799074428245","0.6844331845144614","1","","","","","",""
"","do_trial","113","650723","0.0-92.0-0.0","191","","","","50","0,0,1","1","forest","49","probe-09","0.15850713007953507","0.3466589448559592","0.8010828300255898","0","","","","","",""
"","do_trial","114","656533","0.0-93.0-0.0","267.6000000014901","","","","50","0,1,1","1","forest","50","probe-173","0.49456509950863037","0.5331042236889779","0.8211453889113896","1","","","","","",""
"","do_trial","115","662078","0.0-94.0-0.0","0.19999999552965164","","","","50","1,1,1","1","forest","51","probe-153","0.5509873826632178","0.4701313745841161","0.642006261789543","1","","","","","",""
"","do_trial","116","667933","0.0-95.0-0.0","281.79999999701977","","","","50","1,0,1","1","forest","52","probe-121","0.5687423015462634","0.4794454269705695","0.5116701044515906","0","","","","","",""
"","do_trial","117","673773","0.0-96.0-0.0","286.30000000447035","","","","50","0,1,1","1","forest","53","probe-172","0.608843492239365","0.4350350567145327","0.3867155622658164","1","","","","","",""
"","do_trial","118","679863","0.0-97.0-0.0","null","","","","null","1,1,0","1","forest","54","probe-48","0.6534509691491583","0.5594235695903105","0.23220070665525097","","","","","","",""
"","do_trial","119","685964","0.0-98.0-0.0","530.6999999955297","","","","50","0,0,1","1","forest","55","probe-46","0.732404581843295","0.3355817796048948","0.1126696809599824","0","","","","","",""
"","do_trial","120","691754","0.0-99.0-0.0","247.70000000298023","","","","50","1,0,0","1","forest","56","probe-14","0.7677926089108584","0.36282683574950847","0.1398911578446154","0","","","","","",""
"","do_trial","121","697554","0.0-100.0-0.0","250.29999999701977","","","","50","1,1,0","1","forest","57","probe-111","0.8029085802936099","0.4143747369250284","0.1712771976014316","1","","","","","",""
"","do_trial","122","703334","0.0-101.0-0.0","240.80000000447035","","","","50","0,1,0","1","forest","58","probe-67","0.8356847454945237","0.4148320432939134","0.17559780080075946","1","","","","","",""
"","do_trial","123","709214","0.0-102.0-0.0","323","","","","50","0,1,0","1","forest","59","probe-194","0.609191341350751","0.34773724448865473","0.18329229374954337","1","","","","","",""
"","do_trial","124","715184","0.0-103.0-0.0","418.90000000596046","","","","50","0,1,1","1","forest","60","probe-163","0.727473506314246","0.31830915955613964","0.18123707405090428","1","","","","","",""
"","do_trial","125","721064","0.0-104.0-0.0","313.8999999985099","","","","50","1,0,0","1","forest","61","probe-225","0.9294690185462133","0.296113811315603","0.2700975763654385","0","","","","","",""
"","do_trial","126","726844","0.0-105.0-0.0","210","","","","51","1,0,0","1","forest","62","probe-115","0.8984495596269085","0.3671921289255208","0.31626073529166027","0","","","","","",""
"","do_trial","127","732704","0.0-106.0-0.0","270.6000000014901","","","","49","1,0,0","1","forest","63","probe-10","0.6952442441057575","0.33409671869997276","0.20242268616638823","1","","","","","",""
"","do_trial","128","738424","0.0-107.0-0.0","165.20000000298023","","","","49","1,0,0","1","forest","64","probe-239","0.8670566355780842","0.31777473774873094","0.16124459277082376","1","","","","","",""
"","do_trial","129","744244","0.0-108.0-0.0","246.19999999552965","","","","49","1,0,1","1","forest","65","probe-62","0.8901568319521317","0.32909251840862636","0.11454952780133733","1","","","","","",""
"","do_trial","130","750094","0.0-109.0-0.0","279.79999999701977","","","","49","0,0,0","1","forest","66","probe-176","0.8978599559338837","0.30834859591643315","0.1273362802370474","0","","","","","",""
"","do_trial","131","755893","0.0-110.0-0.0","230.29999999701977","","","","50","0,1,0","1","forest","67","probe-79","0.9291694935950472","0.14228090683831895","0.11211446792350781","1","","","","","",""
"","do_trial","132","761923","0.0-111.0-0.0","478.6000000014901","","","","50","1,0,0","1","forest","68","probe-112","0.8896886009808381","0.24341679576335584","0.1349021267235115","0","","","","","",""
"","do_trial","133","767673","0.0-112.0-0.0","195.89999999850988","","","","51","0,0,0","1","forest","69","probe-124","0.7112445300333602","0.29829879877260146","0.06639543153351816","0","","","","","",""
"","do_trial","134","773383","0.0-113.0-0.0","127.70000000298023","","","","49","0,0,0","1","forest","70","probe-99","0.7237297810183577","0.4048652648883432","0.09810665228054115","0","","","","","",""
"","do_trial","135","779074","0.0-114.0-0.0","137.29999999701977","","","","50","1,0,0","1","forest","71","probe-157","0.6141818854060336","0.2470844323104161","0.12293672731188976","0","","","","","",""
"","do_trial","136","784764","0.0-115.0-0.0","130.5","","","","50","1,0,0","1","forest","72","probe-207","0.7406623047606584","0.43088960925614944","0.07675347189041137","0","","","","","",""
"","do_trial","137","790323","0.0-116.0-0.0","0.09999999403953552","","","","50","1,1,0","1","forest","73","probe-212","0.7380085416065303","0.5492468443922194","0.11621559046722453","1","","","","","",""
"","do_trial","138","795894","0.0-117.0-0.0","23.5","","","","50","1,1,0","1","forest","74","probe-192","0.6435724086936924","0.5064602923128055","0.12386168380229082","1","","","","","",""
"","do_trial","139","801703","0.0-118.0-0.0","265.20000000298023","","","","50","1,1,0","1","forest","75","probe-145","0.8505610855127257","0.49642860458667415","0.09064923393270481","1","","","","","",""
"","do_trial","140","807324","0.0-119.0-0.0","79.89999999850988","","","","50","1,0,0","1","forest","76","probe-213","0.792268504590858","0.4486973803805808","0.19513375212314776","0","","","","","",""
"","do_trial","141","813034","0.0-120.0-0.0","138.70000000298023","","","","50","0,0,0","1","forest","77","probe-118","0.6606868723090105","0.5170207984154039","0.16761355593749325","0","","","","","",""
"","do_trial","142","818774","0.0-121.0-0.0","183.40000000596046","","","","50","0,1,0","1","forest","78","probe-81","0.7763211808230278","0.5023749546413783","0.12945013738114133","1","","","","","",""
"","do_trial","143","824589","0.0-122.0-0.0","273.29999999701977","","","","50","1,0,0","1","forest","79","probe-206","0.7170917623406798","0.48130151626449497","0.23018625610863366","0","","","","","",""
"","do_bye","144","826114","0.0-123.0-0.0","null","","","","null","","","","","","","","","","","","","","",""
"","do_travel","145","832118","0.0-124.0-0.0","null","","","","null","","","","","","","","","","","","","","",""
"","do_welcome","146","833634","0.0-124.0-1.0","null","","","","null","","","","","","","","","","","","","","",""
"","do_trial","147","839954","0.0-125.0-0.0","772.6000000014901","","","","51","1,0,0","2","countryside","80","probe-34","1","0.5738551266031243","0.27207642102833246","0","","","","","",""
"","do_trial","148","845824","0.0-126.0-0.0","313.40000000596046","","","","49","1,1,1","2","countryside","81","probe-188","1","0.46828538285707366","0.2012972643335067","1","","","","","",""
"","do_trial","149","851794","0.0-127.0-0.0","417.70000000298023","","","","49","1,1,1","2","countryside","82","probe-233","1","0.4855129140777211","0.050176547852882204","1","","","","","",""
"","do_trial","150","857784","0.0-128.0-0.0","423.69999999552965","","","","49","1,1,0","2","countryside","83","probe-39","1","0.49549185486915426","0.2335662772979432","1","","","","","",""
"","do_trial","151","863554","0.0-129.0-0.0","209.70000000298023","","","","49","1,0,0","2","countryside","84","probe-150","0.923089353341706","0.525819473245815","0.26097487332505365","1","","","","","",""
"","do_trial","152","869414","0.0-130.0-0.0","304.20000000298023","","","","49","0,1,0","2","countryside","85","probe-28","0.8834579621548686","0.4835137093072772","0.10497691719430113","0","","","","","",""
"","do_trial","153","875154","0.0-131.0-0.0","169.60000000149012","","","","49","1,1,1","2","countryside","86","probe-198","0.9203460088913307","0.5645973246002535","0.06830721509487037","1","","","","","",""
"","do_trial","154","880964","0.0-132.0-0.0","249.70000000298023","","","","49","1,0,0","2","countryside","87","probe-100","0.8761246998658121","0.4836260785281577","0.1546494642234554","1","","","","","",""
"","do_trial","155","886834","0.0-133.0-0.0","313.70000000298023","","","","49","1,1,0","2","countryside","88","probe-215","0.7626928505910381","0.33956922735205525","0.08783729359947426","1","","","","","",""
"","do_trial","156","892684","0.0-134.0-0.0","289.6000000014901","","","","49","1,1,0","2","countryside","89","probe-148","0.796140844458282","0.2753130372963901","0.08293858743632715","1","","","","","",""
"","do_trial","157","899014","0.0-135.0-0.0","751.1000000014901","","","","49","1,0,0","2","countryside","90","probe-236","0.6216653143436478","0.18134322624869748","0.42752166669542946","1","","","","","",""
"","do_trial","158","904974","0.0-136.0-0.0","387.5","","","","49","0,1,1","2","countryside","91","probe-119","0.5869090893918784","0.05073052566651743","0.41329189255463517","0","","","","","",""
"","do_trial","159","911124","0.0-137.0-0.0","594.6999999955297","","","","49","1,0,1","2","countryside","92","probe-40","0.4619079925611993","0.06251890523133928","0.5265189818404301","1","","","","","",""
"","do_trial","160","916946","0.0-138.0-0.0","279.1000000014901","","","","49","0,0,1","2","countryside","93","probe-238","0.43592928649643176","0.23780216802997498","0.6138466666217285","0","","","","","",""
"","do_trial","161","922724","0.0-139.0-0.0","215","","","","49","0,1,0","2","countryside","94","probe-12","0.4236305699873406","0.2370335203890866","0.5354376710970093","0","","","","","",""
"","do_trial","162","928414","0.0-140.0-0.0","107","","","","49","0,0,1","2","countryside","95","probe-47","0.3721882331859795","0.20124546190660117","0.578212333352228","0","","","","","",""
"","do_trial","163","934174","0.0-141.0-0.0","186.79999999701977","","","","49","0,0,0","2","countryside","96","probe-30","0.4607643829251596","0.18815793793750962","0.5952674982064804","0","","","","","",""
"","do_trial","164","939974","0.0-142.0-0.0","235.89999999850988","","","","50","0,0,1","2","countryside","97","probe-24","0.37403654467667424","0.07816481403817636","0.6854190181047962","0","","","","","",""
"","do_trial","165","945743","0.0-143.0-0.0","220.10000000149012","","","","51","0,0,1","2","countryside","98","probe-101","0.40056748252271346","0.15767957329285298","0.8343001495907961","1","","","","","",""
"","do_trial","166","951554","0.0-144.0-0.0","269.19999999552965","","","","51","1,0,1","2","countryside","99","probe-95","0.49394313098322934","0.14664234625427303","0.9075208956201516","1","","","","","",""
"","do_trial","167","957474","0.0-145.0-0.0","326.90000000596046","","","","51","1,1,0","2","countryside","100","probe-31","0.46943554197624515","0.11342684947133748","0.9190110614660673","0","","","","","",""
"","do_trial","168","963194","0.0-146.0-0.0","142.29999999701977","","","","49","1,1,1","2","countryside","101","probe-151","0.3856053209338754","0.21361271470594653","0.7772871469298622","1","","","","","",""
"","do_trial","169","969024","0.0-147.0-0.0","284.1000000014901","","","","49","1,0,0","2","countryside","102","probe-77","0.26493747598344014","0.3414918320371372","0.6413971300788188","1","","","","","",""
"","do_trial","170","974924","0.0-148.0-0.0","357.8999999985099","","","","49","0,1,1","2","countryside","103","probe-103","0.40891472958573494","0.20623361532740397","0.5824378290518984","0","","","","","",""
"","do_trial","171","980694","0.0-149.0-0.0","227.09999999403954","","","","49","0,1,0","2","countryside","104","probe-132","0.4565304766360279","0.25258650675692235","0.6208727958712239","0","","","","","",""
"","do_trial","172","986592","0.0-150.0-0.0","349.5","","","","49","0,0,0","2","countryside","105","probe-201","0.2980627687440668","0.2687036770547336","0.762550561544958","0","","","","","",""
"","do_trial","173","992414","0.0-151.0-0.0","262.19999999552965","","","","51","0,0,0","2","countryside","106","probe-51","0.2916038383335724","0.17441038252103994","0.7219236059336477","0","","","","","",""
"","do_trial","174","998224","0.0-152.0-0.0","270.3999999985099","","","","50","0,0,0","2","countryside","107","probe-156","0.41468989575124826","0.1844896107807908","0.5897926261229344","0","","","","","",""
"","do_trial","175","1004004","0.0-153.0-0.0","200.59999999403954","","","","51","1,1,1","2","countryside","108","probe-117","0.46504663476730707","0.20238283476042504","0.7821810696472467","1","","","","","",""
"","do_trial","176","1009904","0.0-154.0-0.0","333.70000000298023","","","","51","0,1,1","2","countryside","109","probe-126","0.478132395457651","0.2705707829588246","0.8742880407344451","1","","","","","",""
"","do_trial","177","1015714","0.0-155.0-0.0","256.5","","","","51","1,0,1","2","countryside","110","probe-44","0.4221593454507975","0.15268044341274992","0.8550212164843545","1","","","","","",""
"","do_trial","178","1021309","0.0-156.0-0.0","44.5","","","","51","0,0,1","2","countryside","111","probe-105","0.2906098453225556","0.06374717091593354","0.7703664589386587","1","","","","","",""
"","do_trial","179","1027169","0.0-157.0-0.0","303.3999999985099","","","","51","1,1,0","2","countryside","112","probe-21","0.29258270577935536","0.17911846940241702","0.876058793353731","0","","","","","",""
"","do_trial","180","1032994","0.0-158.0-0.0","256.5","","","","49","0,0,1","2","countryside","113","probe-231","0.31759553730082346","0.16867402185715644","0.9431574688482592","0","","","","","",""
"","do_trial","181","1038844","0.0-159.0-0.0","277.8999999985099","","","","50","0,0,1","2","countryside","114","probe-15","0.4457138256255502","0.19432658142910328","0.8934105580884318","0","","","","","",""
"","do_trial","182","1044614","0.0-160.0-0.0","193.20000000298023","","","","49","1,0,1","2","countryside","115","probe-109","0.46538416405046357","0.31895198295595306","0.9112471553207999","1","","","","","",""
"","do_trial","183","1050474","0.0-161.0-0.0","311.6000000014901","","","","49","0,1,1","2","countryside","116","probe-136","0.40782956044968816","0.37252819777904317","0.8854658287177983","0","","","","","",""
"","do_trial","184","1056024","0.0-162.0-0.0","9.5","","","","51","1,1,1","2","countryside","117","probe-03","0.29124481781864875","0.35213360055176673","0.796459649037911","1","","","","","",""
"","do_trial","185","1061714","0.0-163.0-0.0","111.90000000596046","","","","51","0,0,1","2","countryside","118","probe-55","0.34883835122245244","0.34226887539783946","0.8488297556352723","1","","","","","",""
"","do_trial","186","1067714","0.0-164.0-0.0","453.1000000014901","","","","51","1,1,1","2","countryside","119","probe-70","0.47147299972546636","0.36967092859528444","0.8212891098843649","1","","","","","",""
"","do_bye","187","1069224","0.0-165.0-0.0","null","","","","null","","","","","","","","","","","","","","",""
"","do_travel","188","1075234","0.0-166.0-0.0","null","","","","null","","","","","","","","","","","","","","",""
"","do_welcome","189","1076744","0.0-166.0-1.0","null","","","","null","","","","","","","","","","","","","","",""
"","do_trial","190","1083644","0.0-167.0-0.0","1334.1000000014901","","","","50","0,1,1","3","highway","120","probe-123","0.5512670135044746","0.4170596458899626","1","1","","","","","",""
"","do_trial","191","1089494","0.0-168.0-0.0","279.79999999701977","","","","50","1,1,1","3","highway","121","probe-17","0.3598991200687627","0.3271734927977191","1","1","","","","","",""
"","do_trial","192","1095324","0.0-169.0-0.0","262.5","","","","50","0,0,1","3","highway","122","probe-161","0.3163378480608618","0.24593255178028084","1","0","","","","","",""
"","do_trial","193","1100984","0.0-170.0-0.0","118.09999999403954","","","","51","0,0,1","3","highway","123","probe-214","0.4206877614481411","0.13301923690633335","1","1","","","","","",""
"","do_trial","194","1106844","0.0-171.0-0.0","284.69999999552965","","","","51","1,0,1","3","highway","124","probe-27","0.39370739015834544","0.19754936591650918","0.839524363280373","1","","","","","",""
"","do_trial","195","1112964","0.0-172.0-0.0","565.1000000014901","","","","51","0,0,1","3","highway","125","probe-57","0.4204636224847671","0.09764213861897439","0.8220666232013681","1","","","","","",""
"","do_trial","196","1118794","0.0-173.0-0.0","267.6000000014901","","","","51","0,0,0","3","highway","126","probe-220","0.4273262854254897","0.09951667543096171","0.8372078703706928","0","","","","","",""
"","do_trial","197","1124754","0.0-174.0-0.0","413.8999999985099","","","","49","0,1,1","3","highway","127","probe-80","0.32299996140839704","0.17131269618693484","0.8864099265329827","0","","","","","",""
"","do_trial","198","1130394","0.0-175.0-0.0","57.30000000447035","","","","50","1,0,1","3","highway","128","probe-05","0.2794721855214664","0.06420723741641443","0.9210805563122113","0","","","","","",""
"","do_trial","199","1136164","0.0-176.0-0.0","227.90000000596046","","","","49","0,0,1","3","highway","129","probe-35","0.33675833129505633","0.08140163653647262","0.8328615550280452","0","","","","","",""
"","do_trial","200","1142204","0.0-177.0-0.0","487.6000000014901","","","","51","0,1,1","3","highway","130","probe-58","0.28403779772172294","0.41435413586120556","0.5234339616363023","1","","","","","",""
"","do_trial","201","1148214","0.0-178.0-0.0","459","","","","51","0,0,1","3","highway","131","probe-65","0.2845122809977471","0.46950245144798786","0.45405812036055565","1","","","","","",""
"","do_trial","202","1154084","0.0-179.0-0.0","320.5","","","","51","1,1,0","3","highway","132","probe-193","0.45754114792848966","0.5803373228946827","0.3422210607820674","0","","","","","",""
"","do_trial","203","1159864","0.0-180.0-0.0","195.09999999403954","","","","51","1,1,1","3","highway","133","probe-20","0.6115154823060438","0.636608239112344","0.31827676837185953","1","","","","","",""
"","do_trial","204","1165674","0.0-181.0-0.0","235","","","","51","1,0,0","3","highway","134","probe-171","0.3745652581662428","0.7035513741215632","0.3284070674171946","0","","","","","",""
"","do_trial","205","1171323","0.0-182.0-0.0","91.39999999850988","","","","51","1,0,0","3","highway","135","probe-162","0.34984278129718277","0.7935961013552069","0.27286606361376964","0","","","","","",""
"","do_trial","206","1177229","0.0-183.0-0.0","361.5","","","","51","0,1,0","3","highway","136","probe-72","0.39200765583310954","0.724684724343729","0.31437993842404305","0","","","","","",""
"","do_trial","207","1183024","0.0-184.0-0.0","247.80000000447035","","","","50","0,1,0","3","highway","137","probe-159","0.346162063994909","0.6431046993166872","0.2474194960643915","1","","","","","",""
"","do_trial","208","1188914","0.0-185.0-0.0","353.19999999552965","","","","50","1,1,1","3","highway","138","probe-143","0.38943270113666606","0.5845831491923379","0.05258719094875358","1","","","","","",""
"","do_trial","209","1194864","0.0-186.0-0.0","399","","","","50","0,0,0","3","highway","139","probe-178","0.30942410311266566","0.6843409581377439","0.12469227627584716","0","","","","","",""
"","do_trial","210","1200624","0.0-187.0-0.0","183.89999999850988","","","","50","1,0,0","3","highway","140","probe-104","0.36239508261666425","0.6761380695149559","0.10668751389464307","0","","","","","",""
"","do_trial","211","1206304","0.0-188.0-0.0","120.09999999403954","","","","49","0,1,0","3","highway","141","probe-25","0.31902873447085967","0.8456286289820389","0.07855532935563772","0","","","","","",""
"","do_trial","212","1212024","0.0-189.0-0.0","162.20000000298023","","","","51","0,1,0","3","highway","142","probe-174","0.3144892844254284","0.8107699462144778","0.06016323183543046","0","","","","","",""
"","do_trial","213","1217874","0.0-190.0-0.0","287","","","","50","0,1,0","3","highway","143","probe-181","0.34403375257908103","0.8736880732548941","0.06440954154540535","1","","","","","",""
"","do_trial","214","1223614","0.0-191.0-0.0","186.60000000149012","","","","50","0,1,0","3","highway","144","probe-122","0.38878011066854856","0.7922524365503106","0.060109289617506924","1","","","","","",""
"","do_trial","215","1229294","0.0-192.0-0.0","133.60000000149012","","","","50","0,1,0","3","highway","145","probe-106","0.22225465713308853","0.8093022360962348","0.10991694610771821","1","","","","","",""
"","do_trial","216","1235344","0.0-193.0-0.0","null","","","","null","0,1,0","3","highway","146","probe-222","0.3061466295216723","0.8254063669940086","0.14741421259539933","","","","","","",""
"","do_trial","217","1242452","0.0-194.0-0.0","1556.7000000029802","","","","50","0,1,0","3","highway","147","probe-78","0.4166841248027408","0.8620120823190109","0.09368503555034226","1","","","","","",""
"","do_trial","218","1248304","0.0-195.0-0.0","301.3999999985099","","","","50","0,1,0","3","highway","148","probe-33","0.4124888700447573","0.8560900253011606","0.07784016486228132","1","","","","","",""
"","do_trial","219","1254244","0.0-196.0-0.0","384","","","","50","1,1,0","3","highway","149","probe-114","0.504495574728495","0.8348617109457598","0.14427753827899845","1","","","","","",""
"","do_trial","220","1260134","0.0-197.0-0.0","308","","","","50","0,1,0","3","highway","150","probe-158","0.39690538766842365","0.8228579138926346","0.05309925316223194","1","","","","","",""
"","do_trial","221","1265994","0.0-198.0-0.0","310.80000000447035","","","","50","1,1,0","3","highway","151","probe-23","0.4278774313830519","0.9052146510635767","0.1284790994760428","1","","","","","",""
"","do_trial","222","1271804","0.0-199.0-0.0","262.79999999701977","","","","50","0,1,0","3","highway","152","probe-203","0.37219986985265024","0.9048716009491278","0.06882513462910746","1","","","","","",""
"","do_trial","223","1277464","0.0-200.0-0.0","86.20000000298023","","","","50","0,1,0","3","highway","153","probe-182","0.2510803947519768","0.8227256507886663","0.05452499161664315","1","","","","","",""
"","do_trial","224","1283264","0.0-201.0-0.0","233.5","","","","50","1,1,0","3","highway","154","probe-91","0.31885147571030553","0.7718413239657431","0.0756947953987818","1","","","","","",""
"","do_trial","225","1289094","0.0-202.0-0.0","255.39999999850988","","","","50","0,0,0","3","highway","155","probe-229","0.18160573173585504","0.7371227544660798","0.151729640802106","0","","","","","",""
"","do_trial","226","1294664","0.0-203.0-0.0","1.8999999985098839","","","","50","0,1,0","3","highway","156","probe-63","0.20536178659547588","0.6569875157608115","0.13322820780232297","1","","","","","",""
"","do_trial","227","1300454","0.0-204.0-0.0","249.29999999701977","","","","50","1,1,0","3","highway","157","probe-190","0.2836509135422449","0.6726499274812126","0.08663202762167638","1","","","","","",""
"","do_trial","228","1306374","0.0-205.0-0.0","358","","","","50","0,1,0","3","highway","158","probe-208","0.2771815509574615","0.7233132669288631","0.0828046891893787","1","","","","","",""
"","do_trial","229","1312444","0.0-206.0-0.0","489.5","","","","50","0,1,0","3","highway","159","probe-184","0.20852316148990974","0.8356450032400835","0.0712266648689349","1","","","","","",""
"","do_bye","230","1313954","0.0-207.0-0.0","null","","","","null","","","","","","","","","","","","","","",""
"","do_travel","231","1319974","0.0-208.0-0.0","null","","","","null","","","","","","","","","","","","","","",""
"","do_welcome","232","1321484","0.0-208.0-1.0","null","","","","null","","","","","","","","","","","","","","",""
"","do_trial","233","1328154","0.0-209.0-0.0","1122.1000000014901","","","","51","1,1,0","4","mountain","160","probe-98","0.20607652143749783","1","0.2536471254172072","0","","","","","",""
"","do_trial","234","1333954","0.0-210.0-0.0","248.30000000447035","","","","50","0,1,0","4","mountain","161","probe-04","0.31839217457149416","1","0.11701540149910705","1","","","","","",""
"","do_trial","235","1339775","0.0-211.0-0.0","238.10000000149012","","","","50","0,1,0","4","mountain","162","probe-202","0.3808975320845174","1","0.13611981322022831","1","","","","","",""
"","do_trial","236","1345644","0.0-212.0-0.0","321.8999999985099","","","","50","1,1,0","4","mountain","163","probe-164","0.39951001124713154","1","0.12030338575922793","1","","","","","",""
"","do_trial","237","1353475","0.0-213.0-0.0","2250.60000000149","","","","50","1,1,0","4","mountain","164","probe-199","0.45043935861872847","0.7683217883078605","0.12059988603054102","1","","","","","",""
"","do_trial","238","1359405","0.0-214.0-0.0","336.20000000298023","","","","50","1,1,0","4","mountain","165","probe-169","0.5712779977597588","0.6990502082505772","0.061910646421695796","1","","","","","",""
"","do_trial","239","1365594","0.0-215.0-0.0","640.2000000029802","","","","50","0,1,0","4","mountain","166","probe-128","0.37050972501330437","0.7365824666460804","0.15177803303759707","1","","","","","",""
"","do_trial","240","1371205","0.0-216.0-0.0","55.399999998509884","","","","50","0,0,0","4","mountain","167","probe-01","0.4264938756583314","0.8241784682445102","0.10013802666766519","0","","","","","",""
"","do_trial","241","1376765","0.0-217.0-0.0","5.300000004470348","","","","50","0,1,1","4","mountain","168","probe-191","0.3218877368068133","0.8384214750086824","0.2448526840060221","1","","","","","",""
"","do_trial","242","1382415","0.0-218.0-0.0","101.5","","","","50","0,1,1","4","mountain","169","probe-227","0.34987327201842683","0.8429185136752351","0.29380147344286633","1","","","","","",""
"","do_trial","243","1388085","0.0-219.0-0.0","131.80000000447035","","","","50","0,0,1","4","mountain","170","probe-07","0.5230734993680919","0.5682601338507989","0.4770924296175054","0","","","","","",""
"","do_trial","244","1393685","0.0-220.0-0.0","12.600000001490116","","","","50","1,0,1","4","mountain","171","probe-113","0.5228104337738476","0.30372541822856025","0.5183260290422104","0","","","","","",""
"","do_trial","245","1399295","0.0-221.0-0.0","55.79999999701977","","","","50","0,1,0","4","mountain","172","probe-22","0.5602924957974601","0.12820244436799338","0.5643897878542372","1","","","","","",""
"","do_trial","246","1404995","0.0-222.0-0.0","161.90000000596046","","","","50","0,0,1","4","mountain","173","probe-211","0.4739926115689279","0.2530897221746832","0.6803325253971987","0","","","","","",""
"","do_trial","247","1410635","0.0-223.0-0.0","82.70000000298023","","","","50","1,0,1","4","mountain","174","probe-216","0.4951456049385911","0.18761596501677727","0.7131022388275027","0","","","","","",""
"","do_trial","248","1416224","0.0-224.0-0.0","34.29999999701977","","","","50","1,0,1","4","mountain","175","probe-32","0.4226804722488935","0.13830177217604567","0.6337236186897016","0","","","","","",""
"","do_trial","249","1421794","0.0-225.0-0.0","0.20000000298023224","","","","51","1,0,0","4","mountain","176","probe-133","0.41382125667755526","0.21114149239687965","0.6896298224467422","0","","","","","",""
"","do_trial","250","1427554","0.0-226.0-0.0","216.30000000447035","","","","49","0,0,1","4","mountain","177","probe-224","0.47819898983364645","0.18196522020544975","0.7331164290536687","0","","","","","",""
"","do_trial","251","1433434","0.0-227.0-0.0","329.29999999701977","","","","50","0,1,1","4","mountain","178","probe-94","0.27756282771578344","0.14413150899580995","0.9070202282815994","1","","","","","",""
"","do_trial","252","1439124","0.0-228.0-0.0","150.30000000447035","","","","50","0,0,1","4","mountain","179","probe-86","0.25819723261467403","0.07528984350092051","0.7469633930263959","0","","","","","",""
"","do_trial","253","1445024","0.0-229.0-0.0","331.79999999701977","","","","50","0,0,1","4","mountain","180","probe-87","0.20520435757759573","0.09040337030908085","0.6967511601694524","0","","","","","",""
"","do_trial","254","1451064","0.0-230.0-0.0","null","","","","null","1,0,1","4","mountain","181","probe-147","0.4254952269437128","0.13952121426102515","0.816094126356237","","","","","","",""
"","do_trial","255","1456985","0.0-231.0-0.0","372.09999999403954","","","","50","0,0,1","4","mountain","182","probe-179","0.45191634161428873","0.06748798051482069","0.8398952477839754","0","","","","","",""
"","do_trial","256","1462712","0.0-232.0-0.0","170.20000000298023","","","","50","1,0,0","4","mountain","183","probe-204","0.4239074905200733","0.07165948291103404","0.8398493960525582","0","","","","","",""
"","do_trial","257","1468365","0.0-233.0-0.0","79.80000000447035","","","","51","1,1,0","4","mountain","184","probe-74","0.3645225545603056","0.08984966715780501","0.8491754941725752","0","","","","","",""
"","do_trial","258","1473954","0.0-234.0-0.0","29.700000002980232","","","","51","0,0,0","4","mountain","185","probe-131","0.39774061527306503","0.20673542033740408","0.7778547615339485","0","","","","","",""
"","do_trial","259","1479574","0.0-235.0-0.0","74.29999999701977","","","","49","0,1,1","4","mountain","186","probe-185","0.4530050200970866","0.19708235034469707","0.7882644477116735","0","","","","","",""
"","do_trial","260","1485274","0.0-236.0-0.0","122.59999999403954","","","","50","0,0,1","4","mountain","187","probe-165","0.4159224828734427","0.10766327433380438","0.7298551473728153","0","","","","","",""
"","do_trial","261","1490904","0.0-237.0-0.0","70.70000000298023","","","","51","0,0,1","4","mountain","188","probe-232","0.2806497495205606","0.10788587678341864","0.8302650254755244","1","","","","","",""
"","do_trial","262","1496554","0.0-238.0-0.0","106.80000000447035","","","","51","0,0,1","4","mountain","189","probe-08","0.28877843456176333","0.11471775908083583","0.793090091234596","1","","","","","",""
"","do_trial","263","1502104","0.0-239.0-0.0","0","","","","51","0,0,1","4","mountain","190","probe-90","0.41289039891914997","0.158537779291894","0.8998762962758089","1","","","","","",""
"","do_trial","264","1507724","0.0-240.0-0.0","59.70000000298023","","","","51","1,0,0","4","mountain","191","probe-221","0.3559544791996461","0.11707350995139985","0.8360415806788606","0","","","","","",""
"","do_trial","265","1513305","0.0-241.0-0.0","24.799999997019768","","","","51","1,0,0","4","mountain","192","probe-196","0.3946239957920523","0.05485474350866587","0.7487019063192745","0","","","","","",""
"","do_trial","266","1518895","0.0-242.0-0.0","52.100000001490116","","","","50","1,0,0","4","mountain","193","probe-69","0.5619003846782086","0.09212116198715997","0.7925266607706827","0","","","","","",""
"","do_trial","267","1524520","0.0-243.0-0.0","78.89999999850988","","","","50","0,0,0","4","mountain","194","probe-189","0.4345539188985147","0.21986882232454436","0.8609641438077911","0","","","","","",""
"","do_trial","268","1530095","0.0-244.0-0.0","0.09999999403953552","","","","49","1,0,1","4","mountain","195","probe-42","0.4749614380740496","0.140795780038315","0.7538784884684742","1","","","","","",""
"","do_trial","269","1535794","0.0-245.0-0.0","121.09999999403954","","","","49","0,0,1","4","mountain","196","probe-120","0.37361688734359","0.06486760188433931","0.7164272378284503","0","","","","","",""
"","do_trial","270","1541444","0.0-246.0-0.0","71","","","","49","0,0,1","4","mountain","197","probe-168","0.34216628237007607","0.10977424142797342","0.7500649831717381","0","","","","","",""
"","do_trial","271","1547064","0.0-247.0-0.0","65.59999999403954","","","","49","0,0,0","4","mountain","198","probe-219","0.4254430165121275","0.09414862361252406","0.8128839104032192","0","","","","","",""
"","do_trial","272","1552735","0.0-248.0-0.0","115.09999999403954","","","","50","0,0,1","4","mountain","199","probe-226","0.333662311906198","0.06724663538778289","0.8941244836714861","0","","","","","",""
"","do_bye","273","1554254","0.0-249.0-0.0","null","","","","null","","","","","","","","","","","","","","",""
"","do_travel","274","1560260","0.0-250.0-0.0","null","","","","null","","","","","","","","","","","","","","",""
"","do_welcome","275","1561775","0.0-250.0-1.0","null","","","","null","","","","","","","","","","","","","","",""
"","do_trial","276","1568585","0.0-251.0-0.0","1230.9000000059605","","","","49","0,0,1","5","city","200","probe-11","0.3184993647440833","0.10697175869845164","1","0","","","","","",""
"","do_trial","277","1574305","0.0-252.0-0.0","172.30000000447035","","","","50","0,1,1","5","city","201","probe-135","0.28759519494681257","0.15818752158920726","1","1","","","","","",""
"","do_trial","278","1579874","0.0-253.0-0.0","15","","","","50","0,0,1","5","city","202","probe-06","0.3914624508652492","0.06521674243604654","1","0","","","","","",""
"","do_trial","279","1585567","0.0-254.0-0.0","135.90000000596046","","","","51","1,0,1","5","city","203","probe-26","0.3437019362723941","0.18857876816109978","1","1","","","","","",""
"","do_trial","280","1591295","0.0-255.0-0.0","155.20000000298023","","","","51","0,0,1","5","city","204","probe-152","0.22593994271071027","0.16499229756144504","0.9042426844606508","1","","","","","",""
"","do_trial","281","1596869","0.0-256.0-0.0","0","","","","51","0,0,1","5","city","205","probe-177","0.37187833843991","0.2865668378823803","0.82512237742034","1","","","","","",""
"","do_trial","282","1602473","0.0-257.0-0.0","66.29999999701977","","","","51","1,0,1","5","city","206","probe-154","0.5113903264722298","0.20543091637376637","0.7747899598330252","1","","","","","",""
"","do_trial","283","1608405","0.0-258.0-0.0","380.5","","","","51","1,1,0","5","city","207","probe-92","0.4655286138061615","0.17990136222205355","0.8902901289648607","0","","","","","",""
"","do_trial","284","1614115","0.0-259.0-0.0","142.59999999403954","","","","51","0,0,0","5","city","208","probe-209","0.4053597928697743","0.08194605291450975","0.7408177859459952","0","","","","","",""
"","do_trial","285","1619815","0.0-260.0-0.0","153.39999999850988","","","","51","1,0,1","5","city","209","probe-61","0.4183712525985407","0.09306632577452965","0.8581936725903418","1","","","","","",""
"","do_trial","286","1625375","0.0-261.0-0.0","0","","","","51","0,0,1","5","city","210","probe-134","0.5053882662604515","0.15302306861607975","0.7191307576184124","1","","","","","",""
"","do_trial","287","1630922","0.0-262.0-0.0","6.300000004470348","","","","51","0,0,1","5","city","211","probe-102","0.7508133203170252","0.1794988627727698","0.6597320020256631","1","","","","","",""
"","do_trial","288","1636473","0.0-263.0-0.0","0.10000000149011612","","","","51","1,1,0","5","city","212","probe-187","0.6849777994630277","0.2780029257306489","0.525386159581138","0","","","","","",""
"","do_trial","289","1642145","0.0-264.0-0.0","119.70000000298023","","","","51","1,0,0","5","city","213","probe-83","0.7093368225020312","0.28127744074570254","0.6398672182804735","0","","","","","",""
"","do_trial","290","1647793","0.0-265.0-0.0","85.69999999552965","","","","51","0,1,0","5","city","214","probe-88","0.8068260743176369","0.16261174847422896","0.6498615542920784","0","","","","","",""
"","do_trial","291","1653455","0.0-266.0-0.0","105.80000000447035","","","","51","1,1,0","5","city","215","probe-146","0.8842280513886307","0.11401119233081375","0.5826730988061991","0","","","","","",""
"","do_trial","292","1659045","0.0-267.0-0.0","25.799999997019768","","","","49","1,0,0","5","city","216","probe-186","0.8785141236735244","0.14328091630500692","0.4730373042278275","1","","","","","",""
"","do_trial","293","1664715","0.0-268.0-0.0","103.70000000298023","","","","49","1,0,0","5","city","217","probe-240","0.9088586376091045","0.15087457148389993","0.4394656908231127","1","","","","","",""
"","do_trial","294","1670415","0.0-269.0-0.0","157.39999999850988","","","","49","1,1,0","5","city","218","probe-68","0.8219584377800813","0.2602983524973415","0.6077617449767378","1","","","","","",""
"","do_trial","295","1676105","0.0-270.0-0.0","119.20000000298023","","","","49","0,0,0","5","city","219","probe-142","0.9201807090384772","0.27543138282324164","0.5778735303790119","0","","","","","",""
"","do_trial","296","1681773","0.0-271.0-0.0","93.29999999701977","","","","49","1,0,1","5","city","220","probe-197","0.8765186633097853","0.15784747763431567","0.5162494649208295","1","","","","","",""
"","do_trial","297","1687345","0.0-272.0-0.0","0","","","","49","0,1,0","5","city","221","probe-217","0.7279136851638854","0.22150446572196805","0.2802659649538332","0","","","","","",""
"","do_trial","298","1692915","0.0-273.0-0.0","0.10000000149011612","","","","49","1,0,0","5","city","222","probe-237","0.7163362835360395","0.15514443780528578","0.25272070814584874","1","","","","","",""
"","do_trial","299","1698626","0.0-274.0-0.0","131.5","","","","49","1,0,1","5","city","223","probe-137","0.7391660344426988","0.19421203453998334","0.30755081465930184","1","","","","","",""
"","do_trial","300","1704236","0.0-275.0-0.0","62.100000001490116","","","","49","0,1,0","5","city","224","probe-167","0.5704802683416307","0.1459924689746483","0.18995003565204782","0","","","","","",""
"","do_trial","301","1709795","0.0-276.0-0.0","0.10000000149011612","","","","49","1,0,0","5","city","225","probe-89","0.612865979842503","0.2954796360892006","0.07248659298669971","1","","","","","",""
"","do_trial","302","1715445","0.0-277.0-0.0","95.40000000596046","","","","49","1,1,0","5","city","226","probe-138","0.6707263130826834","0.25008388232177936","0.3177748735389542","1","","","","","",""
"","do_trial","303","1720995","0.0-278.0-0.0","0","","","","49","0,0,1","5","city","227","probe-54","0.6869818302533623","0.24848971058569905","0.35431396688878986","0","","","","","",""
"","do_trial","304","1726755","0.0-279.0-0.0","208.89999999850988","","","","49","1,0,1","5","city","228","probe-97","0.745334754611704","0.16066119553942915","0.4507040674028167","1","","","","","",""
"","do_trial","305","1732595","0.0-280.0-0.0","264","","","","49","1,0,0","5","city","229","probe-166","0.8219036808194327","0.1792434974793509","0.4889743600432217","1","","","","","",""
"","do_trial","306","1738265","0.0-281.0-0.0","119.10000000149012","","","","49","1,0,1","5","city","230","probe-73","0.8462786098206391","0.18021126989332734","0.3958633386824975","1","","","","","",""
"","do_trial","307","1743975","0.0-282.0-0.0","142.09999999403954","","","","49","1,0,1","5","city","231","probe-49","0.8888120860126726","0.10069081494614202","0.3667317607056447","1","","","","","",""
"","do_trial","308","1749755","0.0-283.0-0.0","218.69999999552965","","","","49","1,1,0","5","city","232","probe-66","0.7882261922413037","0.19230176514667008","0.5672201338760783","1","","","","","",""
"","do_trial","309","1755435","0.0-284.0-0.0","124","","","","49","1,0,0","5","city","233","probe-180","0.9107558325275453","0.22115627272858007","0.5457141373930005","1","","","","","",""
"","do_trial","310","1761035","0.0-285.0-0.0","58.5","","","","49","1,1,0","5","city","234","probe-36","0.850759046144651","0.30766378395224897","0.4442848348026825","1","","","","","",""
"","do_trial","311","1766615","0.0-286.0-0.0","23.100000001490116","","","","49","1,1,0","5","city","235","probe-129","0.9133705779313732","0.27331394140780635","0.5173984160822236","1","","","","","",""
"","do_trial","312","1772185","0.0-287.0-0.0","0.19999999552965164","","","","49","1,0,1","5","city","236","probe-235","0.8645369755714418","0.3425850246678936","0.6392412686856198","1","","","","","",""
"","do_trial","313","1777885","0.0-288.0-0.0","142.60000000149012","","","","49","0,0,0","5","city","237","probe-141","0.8129922584943999","0.290934884151113","0.6611582465047566","0","","","","","",""
"","do_trial","314","1783682","0.0-289.0-0.0","226.39999999850988","","","","49","1,0,0","5","city","238","probe-107","0.9428391110378935","0.26122146109976174","0.5546069929561408","1","","","","","",""
"","do_trial","315","1789224","0.0-290.0-0.0","3.899999998509884","","","","49","1,0,1","5","city","239","probe-205","0.9498641560312511","0.19054563881685116","0.57159635449305","1","","","","","",""
"","do_bye","316","1790745","0.0-291.0-0.0","null","","","","null","","","","","","","","","","","","","","",""
"","html-keyboard-response","317","1910766","0.0-291.0-1.0","null","<div class='center'><p>You may take a break now!</p><p> Stretch for a little bit. Get a glass of water.</p><p> You have two minutes to rest. Then, the game will automatically move on.</p><p>If you’d like to get started on the second half of the experiment sooner, then press the <b>space bar</b></p></div>","null","","","","","","","","","","","","","","","","",""
"","html-keyboard-response","318","1936204","0.0-291.0-2.0","25436.79999999702","<div class='center'><p>You’ve arrived at the final destination of your journey! Unfortunately, it’s very foggy out, so you won’t be able to see it in the distance like in previous places you've visited.</p><p>You’ll still be deciding which pirates you want to rob ships. However, because of the fog you also won’t be able to see the ship in the distance. </p><p><b>[Press the space bar to continue]</b></p></div>","32","","","","","","","","","","","","","","","","",""
"","html-keyboard-response","319","1984168","0.0-291.0-3.0","47962.10000000149","<div class='center'><p> Sometimes you’ll be asked if you’ve seen a ship before (see the example below). You will use the 5, 6, 7, 8 buttons on your keyboard to respond. </p><p> If you definitely did not see the ship, pick the the big red thumbs down by pressing <b>5</b>.</p><p> If you don’t think you saw it but aren’t sure, then pick the small red thumbs down by pressing <b>6</b>.</p><p> If you think you might have seen it, then pick the small green thumbs up by pressing <b>7</b>.</p><p> If you definitely did see this ship before, then pick the big thumb green thumbs up by pressing <b>8</b>.</p><p> If you recall correctly, then you’ll get a gold coin!</p><p><b>[Press the space bar to begin the next phase of the experiment]</b></p><p><img src='run_exp/static/images/example_recog_trial.png' height='500'></p></div>","32","","","","","","","","","","","","","","","","",""
"","do_welcome","320","1985686","0.0-291.0-4.0","null","","","","null","","","","","","","","","","","","","","",""
"","do_trial","321","1991126","0.0-292.0-0.0","1880.7000000029802","","","","49","1,0,1","6","blank","240","null","1","0.21132703045736356","0.56059541092205","1","","","","","",""
"","do_recog","322","1997156","0.0-293.0-0.0","null","","","","null","","","","241","probe-245","","","","","0","[object Object]","null","null","0",""
"","do_trial","323","2002056","0.0-294.0-0.0","1340.8000000044703","","","","49","1,0,1","6","blank","242","null","0.9024169152558895","0.18095026442663634","0.6024910720237484","1","","","","","",""
"","do_recog","324","2005396","0.0-295.0-0.0","1814","","","","55","","","","243","probe-13","","","","","1","[object Object]","47","1","1",""
"","do_trial","325","2010176","0.0-296.0-0.0","1213.8999999985099","","","","50","0,0,0","6","blank","244","null","0.7942504608245103","0.13324034157192183","0.5063684314866516","0","","","","","",""
"","do_trial","326","2014346","0.0-297.0-0.0","616.2999999970198","","","","49","1,0,0","6","blank","245","null","0.687733340549621","0.16499188089426448","0.47410464322721735","1","","","","","",""
"","do_trial","327","2019556","0.0-298.0-0.0","1627.6000000014901","","","","49","0,0,1","6","blank","246","null","0.7860186935046198","0.28489136377095603","0.44724226539895406","0","","","","","",""
"","do_trial","328","2023346","0.0-299.0-0.0","237.10000000149012","","","","50","1,0,0","6","blank","247","null","0.8198149373034639","0.15582075855419494","0.2820074227263552","0","","","","","",""
"","do_recog","329","2026696","0.0-300.0-0.0","1835.1999999955297","","","","56","","","","248","probe-100","","","","","1","[object Object]","87","2","1",""
"","do_trial","330","2030786","0.0-301.0-0.0","536.6000000014901","","","","49","1,0,0","6","blank","249","null","0.8051511889994388","0.07824316562566658","0.2292294030520708","1","","","","","",""
"","do_trial","331","2034596","0.0-302.0-0.0","258.5","","","","49","1,0,0","6","blank","250","null","0.7625270425437323","0.24228856220956924","0.343746199732414","1","","","","","",""
"","do_trial","332","2038226","0.0-303.0-0.0","76.69999999552965","","","","49","1,1,1","6","blank","251","null","0.7581341969206098","0.3034079832900819","0.4261785421245449","1","","","","","",""
"","do_recog","333","2041176","0.0-304.0-0.0","1436.5","","","","54","","","","252","probe-05","","","","","1","[object Object]","128","3","0",""
"","do_trial","334","2045925","0.0-305.0-0.0","1196.7999999970198","","","","49","0,1,1","6","blank","253","null","0.8261457234293159","0.23037984497999148","0.36787011597373614","0","","","","","",""
"","do_recog","335","2048073","0.0-306.0-0.0","630.5","","","","56","","","","254","probe-09","","","","","1","[object Object]","49","1","1",""
"","do_trial","336","2051880","0.0-307.0-0.0","227.79999999701977","","","","49","1,1,0","6","blank","255","null","0.7418855351691053","0.4686513704044225","0.28986253142872964","1","","","","","",""
"","do_recog","337","2054165","0.0-308.0-0.0","770.0999999940395","","","","56","","","","256","probe-175","","","","","1","[object Object]","43","1","1",""
"","do_trial","338","2057955","0.0-309.0-0.0","243.10000000149012","","","","49","1,1,0","6","blank","257","null","0.720128263532268","0.6203111362939137","0.1232181352388352","1","","","","","",""
"","do_recog","339","2060865","0.0-310.0-0.0","1397.3999999985099","","","","56","","","","258","probe-154","","","","","1","[object Object]","206","5","1",""
"","do_trial","340","2064735","0.0-311.0-0.0","295.80000000447035","","","","49","1,1,1","6","blank","259","null","0.560308885443614","0.6862105471345572","0.20150146522910198","1","","","","","",""
"","do_trial","341","2069185","0.0-312.0-0.0","877.7000000029802","","","","49","0,0,0","6","blank","260","null","0.4133303365178451","0.792031009207196","0.15791739194238602","0","","","","","",""
"","do_recog","342","2072226","0.0-313.0-0.0","1523.7000000029802","","","","56","","","","261","probe-164","","","","","1","[object Object]","163","4","1",""
"","do_trial","343","2076185","0.0-314.0-0.0","378.5","","","","49","0,1,0","6","blank","262","null","0.5094612701430914","0.8143100860060191","0.1303414914850257","0","","","","","",""
"","do_trial","344","2080526","0.0-315.0-0.0","800.6000000014901","","","","49","0,1,0","6","blank","263","null","0.5240031984259642","0.8676332021108749","0.140532828227775","0","","","","","",""
"","do_recog","345","2083015","0.0-316.0-0.0","965.6999999955297","","","","56","","","","264","probe-188","","","","","1","[object Object]","81","2","1",""
"","do_trial","346","2086935","0.0-317.0-0.0","350.19999999552965","","","","50","0,1,1","6","blank","265","null","0.3831284210103885","0.8599829434027837","0.1515270334798338","1","","","","","",""
"","do_recog","347","2089435","0.0-318.0-0.0","988.8999999985099","","","","56","","","","266","probe-220","","","","","1","[object Object]","126","3","1",""
"","do_trial","348","2093465","0.0-319.0-0.0","456.59999999403954","","","","49","0,1,0","6","blank","267","null","0.5016328645044494","0.8968867946530127","0.3059162618144145","0","","","","","",""
"","do_recog","349","2095876","0.0-320.0-0.0","897.6000000014901","","","","56","","","","268","probe-191","","","","","1","[object Object]","168","4","1",""
"","do_trial","350","2099905","0.0-321.0-0.0","448.29999999701977","","","","50","1,0,0","6","blank","269","null","0.48439264546857225","0.7738506844457385","0.2256517538872905","0","","","","","",""
"","do_trial","351","2104005","0.0-322.0-0.0","540","","","","51","0,1,0","6","blank","270","null","0.38150379103436044","0.788782170242791","0.18198638393953406","0","","","","","",""
"","do_trial","352","2108006","0.0-323.0-0.0","431","","","","49","1,0,1","6","blank","271","null","0.5030418510772722","0.8561984681892837","0.2136655286306648","1","","","","","",""
"","do_trial","353","2112146","0.0-324.0-0.0","595","","","","49","0,1,0","6","blank","272","null","0.4111177502046891","0.6810388474635868","0.16018205518971218","0","","","","","",""
"","do_recog","354","2114376","0.0-325.0-0.0","710.3999999985099","","","","56","","","","273","probe-57","","","","","1","[object Object]","125","3","1",""
"","do_trial","355","2118206","0.0-326.0-0.0","262.59999999403954","","","","49","1,1,1","6","blank","274","null","0.46749766630193135","0.806554075232981","0.15634041468585455","1","","","","","",""
"","do_trial","356","2122146","0.0-327.0-0.0","398.29999999701977","","","","49","0,1,0","6","blank","275","null","0.5731392968072837","0.7631764774463067","0.23814494123255198","0","","","","","",""
"","do_trial","357","2126086","0.0-328.0-0.0","378.5","","","","49","0,0,0","6","blank","276","null","0.41240498066817544","0.8098219843196863","0.05580028537608451","0","","","","","",""
"","do_trial","358","2130096","0.0-329.0-0.0","435.5","","","","49","1,1,1","6","blank","277","null","0.3990365410778972","0.7727969462477663","0.14478986138626807","1","","","","","",""
"","do_trial","359","2133996","0.0-330.0-0.0","350","","","","49","1,1,1","6","blank","278","null","0.45079301450599674","0.7913781572824833","0.09982117089763333","1","","","","","",""
"","do_trial","360","2137936","0.0-331.0-0.0","389.80000000447035","","","","49","1,1,0","6","blank","279","null","0.5741096403157976","0.7677699892118097","0.23513446851119366","1","","","","","",""
"","do_recog","361","2139976","0.0-332.0-0.0","517.2999999970198","","","","56","","","","280","probe-253","","","","","0","[object Object]","null","null","0",""
"","do_trial","362","2143986","0.0-333.0-0.0","453.09999999403954","","","","49","1,1,0","6","blank","281","null","0.491189235691742","0.6293321100726064","0.21006658531334668","1","","","","","",""
"","do_recog","363","2146556","0.0-334.0-0.0","1049.7999999970198","","","","53","","","","282","probe-256","","","","","0","[object Object]","null","null","1",""
"","do_trial","364","2150516","0.0-335.0-0.0","418.5","","","","49","1,1,0","6","blank","283","null","0.5470130919109113","0.7499344863404714","0.19429914647887914","1","","","","","",""
"","do_trial","365","2154536","0.0-336.0-0.0","467.3999999985099","","","","49","0,1,1","6","blank","284","null","0.60652371639639","1","0.316435073445867","0","","","","","",""
"","do_trial","366","2158476","0.0-337.0-0.0","384.69999999552965","","","","49","1,1,0","6","blank","285","null","0.6265250726368184","0.8760293857344021","0.09535863306649084","1","","","","","",""
"","do_recog","367","2161306","0.0-338.0-0.0","1315.8999999985099","","","","56","","","","286","probe-01","","","","","1","[object Object]","167","4","1",""
"","do_trial","368","2165406","0.0-339.0-0.0","547","","","","49","1,0,0","6","blank","287","null","0.582683026968595","0.8406080710433098","0.07869670609596831","1","","","","","",""
"","do_trial","369","2169366","0.0-340.0-0.0","406.19999999552965","","","","49","0,1,0","6","blank","288","null","0.5845577666176367","0.8508116369477723","0.29097293566172233","0","","","","","",""
"","do_trial","370","2173246","0.0-341.0-0.0","339.80000000447035","","","","49","1,0,0","6","blank","289","null","0.5868852343596618","0.8797094731306941","0.22401449549430158","1","","","","","",""
"","do_trial","371","2177246","0.0-342.0-0.0","447.1000000014901","","","","49","1,1,0","6","blank","290","null","0.4919359445359554","0.8586672726451259","0.11337249991232097","1","","","","","",""
"","do_recog","372","2179916","0.0-343.0-0.0","1151.8999999985099","","","","56","","","","291","probe-248","","","","","0","[object Object]","null","null","0",""
"","do_trial","373","2183926","0.0-344.0-0.0","414.19999999552965","","","","49","0,1,0","6","blank","292","null","0.4708288726869941","0.9458295760289717","0.06190813186584498","0","","","","","",""
"","do_recog","374","2187116","0.0-345.0-0.0","1664.1000000014901","","","","53","","","","293","probe-135","","","","","1","[object Object]","201","5","0",""
"","do_trial","375","2191106","0.0-346.0-0.0","423","","","","49","0,1,0","6","blank","294","null","0.40319480633968285","0.9294084247013511","0.14118079181086512","0","","","","","",""
"","do_trial","376","2195406","0.0-347.0-0.0","726.7000000029802","","","","49","0,1,0","6","blank","295","null","0.4882137059277607","0.8856259491367964","0.12730867123726547","0","","","","","",""
"","do_recog","377","2197678","0.0-348.0-0.0","756.3000000044703","","","","56","","","","296","probe-195","","","","","1","[object Object]","41","1","1",""
"","do_trial","378","2201561","0.0-349.0-0.0","325.1000000014901","","","","49","0,0,0","6","blank","297","null","0.4152015865503076","0.8049673377927871","0.12491752216597955","0","","","","","",""
"","do_recog","379","2204026","0.0-350.0-0.0","956.3999999985099","","","","56","","","","298","probe-199","","","","","1","[object Object]","164","4","1",""
"","do_trial","380","2207916","0.0-351.0-0.0","328.09999999403954","","","","50","0,1,1","6","blank","299","null","0.3981609992794429","0.8484295372479977","0.09072466554992473","1","","","","","",""
"","do_trial","381","2211886","0.0-352.0-0.0","404.19999999552965","","","","50","1,1,0","6","blank","300","null","0.45489161887157914","0.8962520665873132","0.16997224555945104","1","","","","","",""
"","do_trial","382","2215766","0.0-353.0-0.0","330.1000000014901","","","","50","0,1,0","6","blank","301","null","0.17190611985074541","0.6748741175758092","0.4076603446328707","1","","","","","",""
"","do_trial","383","2219816","0.0-354.0-0.0","509.6000000014901","","","","50","1,1,1","6","blank","302","null","0.12764068631187703","0.5765537262631647","0.43226830947594463","1","","","","","",""
"","do_recog","384","2222436","0.0-355.0-0.0","1101.2000000029802","","","","56","","","","303","probe-61","","","","","1","[object Object]","209","5","1",""
"","do_trial","385","2226566","0.0-356.0-0.0","583.8999999985099","","","","50","0,1,1","6","blank","304","null","0.14842329939358861","0.5297975686543486","0.6920034383715788","1","","","","","",""
"","do_recog","386","2229256","0.0-357.0-0.0","1181.1999999955297","","","","56","","","","305","probe-17","","","","","1","[object Object]","121","3","1",""
"","do_trial","387","2233291","0.0-358.0-0.0","478.40000000596046","","","","50","0,1,0","6","blank","306","null","0.16815255581193742","0.4350478604027627","0.69141294846393","1","","","","","",""
"","do_recog","388","2236016","0.0-359.0-0.0","1216.2999999970198","","","","53","","","","307","probe-34","","","","","1","[object Object]","80","2","0",""
"","do_trial","389","2240016","0.0-360.0-0.0","452.8999999985099","","","","50","1,1,1","6","blank","308","null","0.11255234596200282","0.3860489117671964","0.6803871393896164","1","","","","","",""
"","do_recog","390","2242906","0.0-361.0-0.0","1376.6000000014901","","","","56","","","","309","probe-233","","","","","1","[object Object]","82","2","1",""
"","do_trial","391","2247196","0.0-362.0-0.0","755.2000000029802","","","","50","0,0,1","6","blank","310","null","0.14745553733990466","0.4424893379761652","0.6563183518266643","0","","","","","",""
"","do_recog","392","2249536","0.0-363.0-0.0","829.8000000044703","","","","56","","","","311","probe-214","","","","","1","[object Object]","123","3","1",""
"","do_trial","393","2253386","0.0-364.0-0.0","301.20000000298023","","","","50","0,0,1","6","blank","312","null","0.23115642703130576","0.45157349719080614","0.6934587714348198","0","","","","","",""
"","do_recog","394","2255686","0.0-365.0-0.0","792.9000000059605","","","","56","","","","313","probe-128","","","","","1","[object Object]","166","4","1",""
"","do_trial","395","2259496","0.0-366.0-0.0","273","","","","51","0,0,0","6","blank","314","null","0.15090819896418148","0.31052319557906555","0.6581097708006047","0","","","","","",""
"","do_trial","396","2263516","0.0-367.0-0.0","448.5","","","","49","0,0,1","6","blank","315","null","0.17691233218384628","0.5540678800550846","0.5892411548248947","0","","","","","",""
"","do_recog","397","2265716","0.0-368.0-0.0","672.6000000014901","","","","56","","","","316","probe-04","","","","","1","[object Object]","161","4","1",""
"","do_trial","398","2269616","0.0-369.0-0.0","316.6000000014901","","","","50","0,1,0","6","blank","317","null","0.07667796606532078","0.41564070655578683","0.637306302043553","1","","","","","",""
"","do_recog","399","2272046","0.0-370.0-0.0","908.2999999970198","","","","56","","","","318","probe-92","","","","","1","[object Object]","207","5","1",""
"","do_trial","400","2276446","0.0-371.0-0.0","815.2999999970198","","","","50","0,0,1","6","blank","319","null","0.06006787939333715","0.3940373978222517","0.721541177832419","0","","","","","",""
"","do_recog","401","2278766","0.0-372.0-0.0","806.3999999985099","","","","56","","","","320","probe-26","","","","","1","[object Object]","203","5","1",""
"","do_trial","402","2282636","0.0-373.0-0.0","278.3999999985099","","","","50","1,1,0","6","blank","321","null","0.14547834180306196","0.45362796280086015","0.806747728030852","1","","","","","",""
"","do_trial","403","2287126","0.0-374.0-0.0","924.7999999970198","","","","50","0,0,1","6","blank","322","null","0.14880665042433744","0.43590645833363334","0.8520431405864602","0","","","","","",""
"","do_trial","404","2291196","0.0-375.0-0.0","525.1000000014901","","","","50","1,0,1","6","blank","323","null","0.18312582118192575","0.439016985868316","0.7502288782687314","0","","","","","",""
"","do_trial","405","2295166","0.0-376.0-0.0","389.80000000447035","","","","49","0,0,1","6","blank","324","null","0.13535577117175293","0.37230570832356213","0.7858231237726192","0","","","","","",""
"","do_recog","406","2297426","0.0-377.0-0.0","748.8999999985099","","","","56","","","","325","probe-16","","","","","1","[object Object]","40","1","1",""
"","do_trial","407","2301246","0.0-378.0-0.0","283.69999999552965","","","","51","0,1,1","6","blank","326","null","0.1264546357481274","0.33361471448468727","0.9055235536229054","1","","","","","",""
"","do_recog","408","2303546","0.0-379.0-0.0","777.7000000029802","","","","56","","","","327","probe-98","","","","","1","[object Object]","160","4","1",""
"","do_trial","409","2307336","0.0-380.0-0.0","248.79999999701977","","","","51","1,0,1","6","blank","328","null","0.27760212547294866","0.3496819444343144","0.9401263009567054","1","","","","","",""
"","do_recog","410","2309646","0.0-381.0-0.0","789.3000000044703","","","","56","","","","329","probe-148","","","","","1","[object Object]","89","2","1",""
"","do_trial","411","2313596","0.0-382.0-0.0","409.1000000014901","","","","51","0,0,1","6","blank","330","null","0.248686919760261","0.4454166596143781","0.8654397339454687","1","","","","","",""
"","do_trial","412","2317656","0.0-383.0-0.0","482.1000000014901","","","","51","0,1,1","6","blank","331","null","0.14583945376085664","0.4824746212896939","1","1","","","","","",""
"","do_trial","413","2321616","0.0-384.0-0.0","370.80000000447035","","","","51","0,0,1","6","blank","332","null","0.0806936878803835","0.4587510714351195","0.8172826880700452","1","","","","","",""
"","do_trial","414","2325726","0.0-385.0-0.0","534.2999999970198","","","","51","0,1,1","6","blank","333","null","0.09251693394625414","0.36690063195633826","0.8307413585110554","1","","","","","",""
"","do_trial","415","2329736","0.0-386.0-0.0","473.3999999985099","","","","51","1,0,1","6","blank","334","null","0.1074230617146997","0.31652415415905033","0.7548224578005852","1","","","","","",""
"","do_recog","416","2332076","0.0-387.0-0.0","831.7999999970198","","","","56","","","","335","probe-250","","","","","0","[object Object]","null","null","0",""
"","do_trial","417","2336066","0.0-388.0-0.0","428","","","","51","0,1,0","6","blank","336","null","0.136745682143911","0.3716468271827323","0.8232940325901774","0","","","","","",""
"","do_trial","418","2339926","0.0-389.0-0.0","313.19999999552965","","","","51","0,0,1","6","blank","337","null","0.22571316754872073","0.37376572945754133","0.9129032242458018","1","","","","","",""
"","do_trial","419","2343566","0.0-390.0-0.0","79","","","","51","1,0,1","6","blank","338","null","0.2040023311905829","0.2649476273648842","0.703826543898932","1","","","","","",""
"","do_trial","420","2347356","0.0-391.0-0.0","240.29999999701977","","","","51","0,0,1","6","blank","339","null","0.22221680119710796","0.28220573106994745","0.7821466656905273","1","","","","","",""
"","do_recog","421","2349697","0.0-392.0-0.0","823.8999999985099","","","","56","","","","340","probe-06","","","","","1","[object Object]","202","5","1",""
"","do_trial","422","2353686","0.0-393.0-0.0","432.8999999985099","","","","51","0,0,1","6","blank","341","null","0.08152463800556158","0.26944016228129486","0.7524769625678422","1","","","","","",""
"","do_trial","423","2357516","0.0-394.0-0.0","253.10000000149012","","","","51","0,0,0","6","blank","342","null","0.12617417427505775","0.27848917969863507","0.7270402176755905","0","","","","","",""
"","do_trial","424","2361466","0.0-395.0-0.0","370.29999999701977","","","","51","0,1,1","6","blank","343","null","0.33161216827108725","0.32219401284212174","0.47780705420850966","1","","","","","",""
"","do_trial","425","2365606","0.0-396.0-0.0","562.3000000044703","","","","51","0,1,0","6","blank","344","null","0.664737151106159","0.25770363265778967","0.21152915341796466","0","","","","","",""
"","do_trial","426","2369466","0.0-397.0-0.0","300.5","","","","51","1,1,1","6","blank","345","null","0.7419790850868375","0.3204619760512782","0.21413067571768174","1","","","","","",""
"","do_trial","427","2373416","0.0-398.0-0.0","382.5","","","","51","0,1,0","6","blank","346","null","0.6329783857923912","0.44445022572901566","0.18138486400552226","0","","","","","",""
"","do_recog","428","2375956","0.0-399.0-0.0","1012.5","","","","56","","","","347","probe-130","","","","","1","[object Object]","48","1","1",""
"","do_trial","429","2379846","0.0-400.0-0.0","322","","","","51","0,0,0","6","blank","348","null","0.6032107241054979","0.3900145282328094","0.13269947389012926","0","","","","","",""
"","do_trial","430","2383766","0.0-401.0-0.0","370.1000000014901","","","","51","1,0,0","6","blank","349","null","0.6833759450705","0.5518210033332839","0.1254195242772417","0","","","","","",""
"","do_trial","431","2387386","0.0-402.0-0.0","45.70000000298023","","","","49","0,1,0","6","blank","350","null","0.693282655506107","0.43802698932354256","0.09083038062995762","0","","","","","",""
"","do_recog","432","2390116","0.0-403.0-0.0","1204.3999999985099","","","","53","","","","351","probe-161","","","","","1","[object Object]","122","3","0",""
"","do_trial","433","2393806","0.0-404.0-0.0","126.39999999850988","","","","50","1,0,0","6","blank","352","null","0.7727686335667845","0.32710409990430755","0.1921690702146389","0","","","","","",""
"","do_recog","434","2396036","0.0-405.0-0.0","714.7999999970198","","","","56","","","","353","probe-80","","","","","1","[object Object]","127","3","1",""
"","do_trial","435","2399866","0.0-406.0-0.0","258.5","","","","50","1,0,0","6","blank","354","null","0.7450501395410275","0.29179326136369665","0.13565786108448052","0","","","","","",""
"","do_trial","436","2403796","0.0-407.0-0.0","377.80000000447035","","","","51","1,0,0","6","blank","355","null","0.7643070502476751","0.2693799613377398","0.21234367288027067","0","","","","","",""
"","do_recog","437","2406109","0.0-408.0-0.0","800.6000000014901","","","","56","","","","356","probe-56","","","","","1","[object Object]","44","1","1",""
"","do_trial","438","2409864","0.0-409.0-0.0","204.10000000149012","","","","49","1,0,0","6","blank","357","null","0.7094331684750185","0.22425896250601166","0.20166800462265158","1","","","","","",""
"","do_trial","439","2413756","0.0-410.0-0.0","340.3999999985099","","","","49","0,0,0","6","blank","358","null","0.7697481037230207","0.25135354765666157","0.28626617762387924","0","","","","","",""
"","do_trial","440","2417673","0.0-411.0-0.0","373.3999999985099","","","","49","1,0,0","6","blank","359","null","0.9250976900900386","0.272203260230214","0.1922606835797842","1","","","","","",""
"","do_trial","441","2421589","0.0-412.0-0.0","379.29999999701977","","","","49","1,1,1","6","blank","360","null","0.9144377585959969","0.23894795052886914","0.08258595733744499","1","","","","","",""
"","do_recog","442","2423936","0.0-413.0-0.0","833.6000000014901","","","","56","","","","361","probe-84","","","","","1","[object Object]","45","1","1",""
"","do_trial","443","2428086","0.0-414.0-0.0","567","","","","49","0,0,0","6","blank","362","null","0.9183750972986664","0.30816249503586485","0.10268769623599043","0","","","","","",""
"","do_recog","444","2430026","0.0-415.0-0.0","423.5","","","","56","","","","363","probe-209","","","","","1","[object Object]","208","5","1",""
"","do_trial","445","2433795","0.0-416.0-0.0","219.10000000149012","","","","49","0,0,0","6","blank","364","null","0.7573037834306464","0.33264999906758763","0.15640227932669298","0","","","","","",""
"","do_recog","446","2436096","0.0-417.0-0.0","788.7000000029802","","","","56","","","","365","probe-198","","","","","1","[object Object]","86","2","1",""
"","do_trial","447","2439816","0.0-418.0-0.0","162.5","","","","49","1,1,0","6","blank","366","null","0.7086672459671753","0.3173912423078153","0.05855850556883838","1","","","","","",""
"","do_trial","448","2444006","0.0-419.0-0.0","645.9000000059605","","","","49","0,0,0","6","blank","367","null","0.7595322197651335","0.4341080519661663","0.09727952658816938","0","","","","","",""
"","do_recog","449","2446366","0.0-420.0-0.0","837.6000000014901","","","","56","","","","368","probe-35","","","","","1","[object Object]","129","3","1",""
"","do_trial","450","2450266","0.0-421.0-0.0","336.79999999701977","","","","50","1,0,0","6","blank","369","null","0.853730185045644","0.2559603319979282","0.12011008310088021","0","","","","","",""
"","do_trial","451","2454245","0.0-422.0-0.0","431","","","","51","1,0,0","6","blank","370","null","0.9071743145428548","0.2662873252852942","0.08604991508971477","0","","","","","",""
"","do_recog","452","2456746","0.0-423.0-0.0","979.8000000044703","","","","56","","","","371","probe-19","","","","","1","[object Object]","46","1","1",""
"","do_trial","453","2460556","0.0-424.0-0.0","242.39999999850988","","","","49","1,0,0","6","blank","372","null","1","0.4148361731743392","0.18407238338252557","1","","","","","",""
"","do_trial","454","2464485","0.0-425.0-0.0","356.1000000014901","","","","49","1,1,0","6","blank","373","null","0.9134930771609158","0.5322903505340697","0.05590643325226594","1","","","","","",""
"","do_trial","455","2468406","0.0-426.0-0.0","348.1000000014901","","","","49","1,1,0","6","blank","374","null","0.8773836900251327","0.5413435304185945","0.20377904278514972","1","","","","","",""
"","do_recog","456","2471107","0.0-427.0-0.0","1185.6000000014901","","","","53","","","","375","probe-123","","","","","1","[object Object]","120","3","0",""
"","do_trial","457","2474886","0.0-428.0-0.0","228.09999999403954","","","","49","1,0,0","6","blank","376","null","0.8978721131735317","0.6006945843196364","0.20350754534272394","1","","","","","",""
"","do_trial","458","2478747","0.0-429.0-0.0","314.20000000298023","","","","49","1,1,0","6","blank","377","null","0.9301165092450674","0.4909027444689674","0.12502139284438604","1","","","","","",""
"","do_trial","459","2482636","0.0-430.0-0.0","317.5","","","","49","1,1,0","6","blank","378","null","0.8920732059897485","0.5336774906519914","0.25628798531106645","1","","","","","",""
"","do_trial","460","2486556","0.0-431.0-0.0","354.90000000596046","","","","49","1,0,0","6","blank","379","null","0.8516269698911532","0.40248199370332616","0.21448974223704767","1","","","","","",""
"","do_recog","461","2489046","0.0-432.0-0.0","966.7999999970198","","","","56","","","","380","probe-150","","","","","1","[object Object]","84","2","1",""
"","do_trial","462","2493026","0.0-433.0-0.0","403.5","","","","49","1,1,0","6","blank","381","null","0.8589385686646059","0.46665104911267485","0.23765050998945542","1","","","","","",""
"","do_recog","463","2495336","0.0-434.0-0.0","796.3000000044703","","","","56","","","","382","probe-11","","","","","1","[object Object]","200","5","1",""
"","do_trial","464","2499376","0.0-435.0-0.0","464.70000000298023","","","","49","1,1,0","6","blank","383","null","0.9004132483815508","0.4630878239144153","0.24178728104414418","1","","","","","",""
"","do_recog","465","2501627","0.0-436.0-0.0","732.5","","","","56","","","","384","probe-202","","","","","1","[object Object]","162","4","1",""
"","do_trial","466","2507716","0.0-437.0-0.0","null","","","","null","0,0,0","6","blank","385","null","0.7444935620902311","0.43954550229814443","0.19964226538706104","","","","","","",""
"","do_trial","467","2511596","0.0-438.0-0.0","313.20000000298023","","","","49","1,0,0","6","blank","386","null","0.5186425965978483","0.3263650653604943","0.411724015111321","1","","","","","",""
"","do_trial","468","2515607","0.0-439.0-0.0","417","","","","49","1,1,1","6","blank","387","null","0.5249771022478208","0.2395674167785245","0.6209366280410022","1","","","","","",""
"","do_recog","469","2517657","0.0-440.0-0.0","535.7000000029802","","","","56","","","","388","probe-215","","","","","1","[object Object]","88","2","1",""
"","do_trial","470","2521496","0.0-441.0-0.0","260.70000000298023","","","","49","1,0,1","6","blank","389","null","0.33581575569068634","0.18487759582389707","0.6717144554502694","1","","","","","",""
"","do_recog","471","2523796","0.0-442.0-0.0","791.1999999955297","","","","56","","","","390","probe-177","","","","","1","[object Object]","205","5","1",""
"","do_trial","472","2527616","0.0-443.0-0.0","249.60000000149012","","","","49","1,0,1","6","blank","391","null","0.5379950979489507","0.20560192527766594","0.7455076913655967","1","","","","","",""
"","do_trial","473","2531735","0.0-444.0-0.0","548.1999999955297","","","","49","0,0,1","6","blank","392","null","0.41478632917449176","0.15717202490670912","0.7188193279932102","0","","","","","",""
"","do_recog","474","2534026","0.0-445.0-0.0","767.3000000044703","","","","56","","","","393","probe-27","","","","","1","[object Object]","124","3","1",""
"","do_trial","475","2537971","0.0-446.0-0.0","407","","","","49","0,0,1","6","blank","394","null","0.3966933242747329","0.20886243937216814","0.7175448866849459","0","","","","","",""
