"success","trial_type","trial_index","time_elapsed","internal_node_id","rt","stimulus","key_press","subject_id","response","choice_outcomes","context_n","context_img_id","trial_n","probe_img_id","pR_red","pR_white","pR_black","outcome","is_valid","image_to_show","probed_trial","probed_context","correct","context_id"
"true","fullscreen","0","3253","0.0-0.0","","","","","","","","","","","","","","","","","","","",""
"","pavlovia","1","3259","0.0-1.0","","","","","","","","","","","","","","","","","","","",""
"","html-keyboard-response","2","9626","0.0-2.0","6364.5","<div class='center'><p>Welcome! This experiment will last ~1 hour. In this experiment, you are the head captain of a pirate ship traveling around the world to different places. You will complete several different tasks during this experiment. Here is an overview of these tasks:</p><br><p>1. Tutorial and quiz</p><p>2. Pick a pirate game in 6 different places</p><p>3. Pick a pirate game and memory game</p><p>4. Final questions and payment</p><br><p>If you complete the entire experiment, you will receive $15 and a possible bonus payment.</p><p><b>[Press the space bar to begin the tutorial]</b></p></div>","32","61047420224037253f952387","","","","","","","","","","","","","","","",""
"","html-keyboard-response","3","20291","0.0-3.0","10664.100000023842","<div class='center'><p>You are the head captain of a pirate ship.</p><p> Your pirates rob other ships as they leave the marketplace port.</p> These ships have just sold all their goods at the marketplace, so they have lots and lots of gold on them.</p><p><img src='run_exp/static/images/ship_center.png' height='400'></p><p><b>[Press the space bar to continue]</b></p></div>","32","","","","","","","","","","","","","","","","",""
"","html-keyboard-response","4","43241","0.0-4.0","22948.399999976158","<div class='center'><p>As the head captain, you do not have to rob any ships yourself.</p><p>You get to choose which pirate you want to rob the next ship. </p><p>If they are successful at robbing the ship, then you will get gold coins.</p><p> If they are not successful, then you will get no gold coins.</p><p> The more coins you collect, the more bonus money you will win. So, choose your pirate wisely.</p><p><img src='run_exp/static/images/goal.png' height='400'></p><p><b>[Press the space bar to continue]</b></p><div>","32","","","","","","","","","","","","","","","","",""
"","html-keyboard-response","5","54503","0.0-5.0","11258.90000000596","<div class='center'><p>Even the most skilled pirate will not be able to rob EVERY ship.</p><p> Some ships will have very strong defenses against attacks.</p><p> For example, blue beard, here,  is very good at robbing ships.</p><p> You can press the <b>‘1’</b> button on the keyboard to choose him.</p><p> Try choosing him 10 times to see how often he is successful at robbing ships. </p><p><img src='run_exp/static/images/blue.png' height='500'></p></div>","49","","","","","","","","","","","","","","","","",""
"","html-keyboard-response","6","56006","0.0-6.0","null","<br><br><br><br><p><img src='run_exp/static/images/blue_win.png' height='500'></p>","null","","","","","","","","","","","","","","","","",""
"","html-keyboard-response","7","57746","0.0-7.0","1738.300000011921","<br><br><br><br><p><img src='run_exp/static/images/blue.png' height='500'></p>","49","","","","","","","","","","","","","","","","",""
"","html-keyboard-response","8","59250","0.0-8.0","null","<br><br><br><br><p><img src='run_exp/static/images/blue_win.png' height='500'></p>","null","","","","","","","","","","","","","","","","",""
"","html-keyboard-response","9","60252","0.0-9.0","1000.4000000059605","<br><br><br><br><p><img src='run_exp/static/images/blue.png' height='500'></p>","49","","","","","","","","","","","","","","","","",""
"","html-keyboard-response","10","61755","0.0-10.0","null","<br><br><br><br><p><img src='run_exp/static/images/blue_win.png' height='500'></p>","null","","","","","","","","","","","","","","","","",""
"","html-keyboard-response","11","62406","0.0-11.0","649","<br><br><br><br><p><img src='run_exp/static/images/blue.png' height='500'></p>","49","","","","","","","","","","","","","","","","",""
"","html-keyboard-response","12","63909","0.0-12.0","null","<br><br><br><br><p><img src='run_exp/static/images/blue_no_win.png' height='500'></p>","null","","","","","","","","","","","","","","","","",""
"","html-keyboard-response","13","64607","0.0-13.0","696.6000000238419","<br><br><br><br><p><img src='run_exp/static/images/blue.png' height='500'></p>","49","","","","","","","","","","","","","","","","",""
"","html-keyboard-response","14","66113","0.0-14.0","null","<br><br><br><br><p><img src='run_exp/static/images/blue_win.png' height='500'></p>","null","","","","","","","","","","","","","","","","",""
"","html-keyboard-response","15","66789","0.0-15.0","675.1999999880791","<br><br><br><br><p><img src='run_exp/static/images/blue.png' height='500'></p>","49","","","","","","","","","","","","","","","","",""
"","html-keyboard-response","16","68296","0.0-16.0","null","<br><br><br><br><p><img src='run_exp/static/images/blue_win.png' height='500'></p>","null","","","","","","","","","","","","","","","","",""
"","html-keyboard-response","17","68711","0.0-17.0","414.30000001192093","<br><br><br><br><p><img src='run_exp/static/images/blue.png' height='500'></p>","49","","","","","","","","","","","","","","","","",""
"","html-keyboard-response","18","70230","0.0-18.0","null","<br><br><br><br><p><img src='run_exp/static/images/blue_win.png' height='500'></p>","null","","","","","","","","","","","","","","","","",""
"","html-keyboard-response","19","70610","0.0-19.0","379.90000000596046","<br><br><br><br><p><img src='run_exp/static/images/blue.png' height='500'></p>","49","","","","","","","","","","","","","","","","",""
"","html-keyboard-response","20","72116","0.0-20.0","null","<br><br><br><br><p><img src='run_exp/static/images/blue_no_win.png' height='500'></p>","null","","","","","","","","","","","","","","","","",""
"","html-keyboard-response","21","72418","0.0-21.0","301","<br><br><br><br><p><img src='run_exp/static/images/blue.png' height='500'></p>","49","","","","","","","","","","","","","","","","",""
"","html-keyboard-response","22","73920","0.0-22.0","null","<br><br><br><br><p><img src='run_exp/static/images/blue_win.png' height='500'></p>","null","","","","","","","","","","","","","","","","",""
"","html-keyboard-response","23","74189","0.0-23.0","267","<br><br><br><br><p><img src='run_exp/static/images/blue.png' height='500'></p>","49","","","","","","","","","","","","","","","","",""
"","html-keyboard-response","24","75694","0.0-24.0","null","<br><br><br><br><p><img src='run_exp/static/images/blue_win.png' height='500'></p>","null","","","","","","","","","","","","","","","","",""
"","html-keyboard-response","25","78162","0.0-25.0","2466.800000011921","<div class='center'><p> See, he was successful at robbing the ships most of the time but not every time. </p><p><b>[Press the space bar to continue]</b></p></div>","32","","","","","","","","","","","","","","","","",""
"","html-keyboard-response","26","87488","0.0-26.0","9324.09999999404","<div class='center'><p>In the game, you will get to choose which of three pirates you want to rob the next ship. <p>Press the <b>‘1’</b> button on your keyboard to pick the pirate with the red beard.</p><p> Press <b>‘2’</b> to pick the pirate with the white beard.</p><p> Press <b>‘3’</b> to pick the pirate with the black beard.</p><p>Try picking a pirate now!</p><p><img src='run_exp/static/images/all_pirates.png' height='500'></p></div>","49","","","","","","","","","","","","","","","","",""
"","html-keyboard-response","27","89344","0.0-27.0-0.0","1853.9000000059605","<div class='center'><p>This pirate was successful at robbing the ship!</p><p><img src='run_exp/static/images/red_win.png' height='500'></p><p><b>[Press the space bar to continue]</b></p></div>","32","","","","","","","","","","","","","","","","",""
"","html-keyboard-response","28","91423","0.0-27.0-1.0","2078.5","<div class='center'><p>Now try choosing another</p><p><img src='run_exp/static/images/all_pirates.png' height='500'></p></div>","51","","","","","","","","","","","","","","","","",""
"","html-keyboard-response","29","92479","0.0-28.0-0.0","1053.7000000178814","<div class='center'><p>This pirate was not successful at robbing the ship!</p><p><img src='run_exp/static/images/black_no_win.png' height='500'></p><p><b>[Press the space bar to continue]</b></p></div>","32","","","","","","","","","","","","","","","","",""
"","html-keyboard-response","30","92609","0.0-29.0-0.0","129.90000000596046","<div class='center'><p>You’ll stop at these 6 places on your journey.</p><p><img src='run_exp/static/images/all_contexts.png' height='500'></p><p><b>[Press the space bar to continue]</b></p></div>","32","","","","","","","","","","","","","","","","",""
"","html-keyboard-response","31","101934","0.0-29.0-1.0","9323.59999999404","<div class='center'><p>How good a pirate is at robbing ships will depend on the current place.</p><p> Some pirates will have been to the place before, and will have more experience robbing ships there.</p><p>So, they will be more successful at stealing gold and bringing it back to you.</p><p><b>[Press the space bar to continue]</b></p></div>","32","","","","","","","","","","","","","","","","",""
"","html-keyboard-response","32","120459","0.0-29.0-2.0","18523.29999998212","<div class='center'><p>How successful a pirate is at robbing ships can also change in a place.<p> Ships may hear about the pirates coming and will improve their defenses. This may make it more difficult to rob them.</p><p> Ships may also grow lazy and lower their defenses. This may make it easier to rob them.</p><br><p>Things are always changing on the high seas! So, try your best to pay attention!</p><p><img src='run_exp/static/images/contingency.png' height='500'></p><p><b>[Press the space bar to continue]</b></p></div>","32","","","","","","","","","","","","","","","","",""
"","html-keyboard-response","33","120561","0.0-29.0-3.0","101.30000001192093","<div class='center'><p>Once you choose a pirate to rob a ship, you’ll be shown the ship they are robbing.</p><p>The ship will have a picture of the item they sold at the marketplace.</p><p> Try your best to remember the ship and where you saw the ship.</p><p> You’ll have to remember this for later, and remembering this correctly will help you win more bonus money!</p><p>You can remember the ship by remembering the item they sold at the marketplace</p><p>A helpful strategy is to try to come up with a story of the chosen pirate and ship’s item interacting with the scene.</p><p> For example, a ship might have sold travel mugs and you could imagine red beard walking through the city with a travel mug. </p><p>Or imagine an apple falling from a tree into white beard's hands in the forest.</p><p><img src='run_exp/static/images/example_probe.png' height='500'></p><p><b>[Press the space bar to continue]</b></p></div>","32","","","","","","","","","","","","","","","","",""
"","html-keyboard-response","34","126685","0.0-29.0-4.0","6122.700000017881","<div class='center'><p>If you don’t make your choice fast enough, you’ll have to wait a few seconds before you can make another one. </p><p>You can’t win more gold. You just have to sit and wait.</p><p><img src='run_exp/static/images/hurry_up.png' height='500'></p><p><b>[Press the space bar to continue]</b></p></div>","32","","","","","","","","","","","","","","","","",""
"","html-keyboard-response","35","126740","0.0-29.0-5.0","54.20000001788139","<div class='center'><p>Again, you have two important things to do: </p><b><p> 1. Pick the pirate who you think will be most successful at robbing the next ship.</p></b><b><p> 2. Remember where a pirate robbed a ship.</p> </b><p>Both are important in determining how much bonus money you’ll win.</p><br><p>Let’s try a practice game. The game will start by showing you the pirates. First pick a pirate using the <b> 1, 2, 3 </b> buttons on your keyboard. When you are shown a ship, try to remember the place you’re in by making up a story.</p><p> You only have 3 seconds to pick a pirate, so please make a choice quickly! If you are too slow, you’ll have to wait a bit during the time out.</p><p> Don’t feel rushed, but please do try to make a choice every time.</p><p>How good a pirate is at robbing a ship will change depending on the place they are in and how good the defenses are of the ship.</p> <p>This is just a practice game, so you’re not playing for money. </p><p>You’ll receive a bag which may or may not contain gold coins.</p><p> In the real game, though, you’ll be able to see whether or not you received the gold coins.</p><p> Good luck, remember press <b>'1'</b> to choose red beard, <b>'2'</b> to choose white beard, and <b>'3'</b> to choose black beard</p><p><b>[Press the space bar to begin the practice game]</b></p></div>","32","","","","","","","","","","","","","","","","",""
"","do_trial_prac","36","134015","0.0-29.0-6.0","2760.199999988079","","","","50","","","","","","","","","","","","","","",""
"","do_trial_prac","37","140030","0.0-29.0-7.0","null","","","","null","","","","","","","","","","","","","","",""
"","do_trial_prac","38","147214","0.0-29.0-8.0","2670.2999999821186","","","","51","","","","","","","","","","","","","","",""
"","do_trial_prac","39","153232","0.0-29.0-9.0","null","","","","null","","","","","","","","","","","","","","",""
"","do_trial_prac","40","158291","0.0-29.0-10.0","547.6999999880791","","","","50","","","","","","","","","","","","","","",""
"","html-keyboard-response","41","165056","0.0-29.0-11.0","6763.100000023842","<div class='center'><p>Great job on the practice game!</p><p> Now, you will be asked you some true or false questions to make sure you really understand the rules of the game.</p><p> Press <b>'1'</b> on the keyboard for true and press <b>'2'</b> for false.</p><p><b>[Press the space bar to begin the quiz]</b></p></div>","32","","","","","","","","","","","","","","","","",""
"","html-keyboard-response","42","168164","0.0-29.0-12.0","3107.0999999940395","<div class='center'><p>You win bonus money by making choices as fast as possible.</p><p>Press 1 for true and press  2 for false.</p></div>","49","","","","","","","","","","","","","","","","",""
"","html-keyboard-response","43","173182","0.0-30.0-0.0","5016.9000000059605","<br><br><br><br><p>That’s incorrect! You win bonus money by collecting as many gold coins as possible!</p><p><b>[press the space bar to continue with the quiz]</b></p>","32","","","","","","","","","","","","","","","","",""
"","html-keyboard-response","44","178076","0.0-30.0-1.0","4892.799999982119","<div class='center'><p>You press the <b>‘3’</b> button on the keyboard to choose the red bearded pirate? </p><p>Press 1 for true and press  2 for false.</p></div>","50","","","","","","","","","","","","","","","","",""
"","html-keyboard-response","45","180323","0.0-31.0-0.0","2246.0999999940395","<br><br><br><br><p>That's correct!</p> <p><b>[press the space bar to continue with the quiz]</b></p>","32","","","","","","","","","","","","","","","","",""
"","html-keyboard-response","46","183906","0.0-31.0-1.0","3582.300000011921","<div class='center'><p>A pirate will always be equally successful at robbing ships in each place</p><p>Press 1 for true and press  2 for false.</p></div>","50","","","","","","","","","","","","","","","","",""
"","html-keyboard-response","47","185465","0.0-32.0-0.0","1557.9000000059605","<br><br><br><br><p>That's correct!</p> <p><b>[press the space bar to continue with the quiz]</b></p>","32","","","","","","","","","","","","","","","","",""
"","html-keyboard-response","48","190804","0.0-32.0-1.0","5337.9000000059605","<div class='center'><p>You should remember the place where a pirate robbed a ship.</p><p>Press 1 for true and press  2 for false.</p></div>","49","","","","","","","","","","","","","","","","",""
"","html-keyboard-response","49","191681","0.0-33.0-0.0","875.0999999940395","<br><br><br><br><p>That's correct!</p> <p><b>[press the space bar to continue with the quiz]</b></p>","32","","","","","","","","","","","","","","","","",""
"","html-keyboard-response","50","196335","0.0-34.0-0.0","4653.5","<br><br><br><br><p>Oops, you missed some questions. Now that you’ve heard the correct answers. Try the quiz again! If you fail the quiz too many times, you won’t be able to do the experiment. </p> <p><br>[press the space bar to repeat the quiz]</br></p>","32","","","","","","","","","","","","","","","","",""
"","html-keyboard-response","51","198578","0.0-34.0-1.0","2241.300000011921","<div class='center'><p>You win bonus money by making choices as fast as possible.</p><p>Press 1 for true and press  2 for false.</p></div>","50","","","","","","","","","","","","","","","","",""
"","html-keyboard-response","52","199236","0.0-35.0-0.0","657.1999999880791","<br><br><br><br><p>That's correct!</p> <p><b>[press the space bar to continue with the quiz]</b></p>","32","","","","","","","","","","","","","","","","",""
"","html-keyboard-response","53","202959","0.0-35.0-1.0","3722.4000000059605","<div class='center'><p>You press the <b>‘3’</b> button on the keyboard to choose the red bearded pirate? </p><p>Press 1 for true and press  2 for false.</p></div>","50","","","","","","","","","","","","","","","","",""
"","html-keyboard-response","54","203497","0.0-36.0-0.0","536.4000000059605","<br><br><br><br><p>That's correct!</p> <p><b>[press the space bar to continue with the quiz]</b></p>","32","","","","","","","","","","","","","","","","",""
"","html-keyboard-response","55","207403","0.0-36.0-1.0","3905.2000000178814","<div class='center'><p>A pirate will always be equally successful at robbing ships in each place</p><p>Press 1 for true and press  2 for false.</p></div>","50","","","","","","","","","","","","","","","","",""
"","html-keyboard-response","56","207895","0.0-37.0-0.0","491.09999999403954","<br><br><br><br><p>That's correct!</p> <p><b>[press the space bar to continue with the quiz]</b></p>","32","","","","","","","","","","","","","","","","",""
"","html-keyboard-response","57","209966","0.0-37.0-1.0","2069.4000000059605","<div class='center'><p>You should remember the place where a pirate robbed a ship.</p><p>Press 1 for true and press  2 for false.</p></div>","49","","","","","","","","","","","","","","","","",""
"","html-keyboard-response","58","210448","0.0-38.0-0.0","459.7000000178814","<br><br><br><br><p>That's correct!</p> <p><b>[press the space bar to continue with the quiz]</b></p>","32","","","","","","","","","","","","","","","","",""
"","html-keyboard-response","59","210587","0.0-39.0-0.0","138.40000000596046","<br><br><br><br><p>Good job! You’re now ready to move on to the real game!</p> <p><br>[press the space bar to begin!]</br></p>","32","","","","","","","","","","","","","","","","",""
"","do_welcome","60","212099","0.0-40.0-0.0","null","","","","null","","","","","","","","","","","","","","",""
"","do_trial","61","218898","0.0-41.0-0.0","1243.800000011921","","","","49","1,0,1","0","countryside","0","probe-227","1","0.4","0.1","1","","","","","",""
"","do_trial","62","226747","0.0-42.0-0.0","2294.2999999821186","","","","49","1,0,0","0","countryside","1","probe-31","1","0.32670356417886626","0.14354402207919212","1","","","","","",""
"","do_trial","63","234015","0.0-43.0-0.0","1710.6000000238419","","","","49","1,0,0","0","countryside","2","probe-40","1","0.37130837453359655","0.15441565793470924","1","","","","","",""
"","do_trial","64","240995","0.0-44.0-0.0","1426","","","","49","1,0,0","0","countryside","3","probe-130","1","0.4304433331797859","0.06459343319811135","1","","","","","",""
"","do_trial","65","247899","0.0-45.0-0.0","1351.4000000059605","","","","49","0,1,0","0","countryside","4","probe-92","0.8479820244559225","0.5128735477521295","0.14139759154120438","0","","","","","",""
"","do_trial","66","254099","0.0-46.0-0.0","642.1999999880791","","","","49","1,0,0","0","countryside","5","probe-170","0.8070697593580362","0.33713128696337263","0.26712464920008144","1","","","","","",""
"","do_trial","67","260347","0.0-47.0-0.0","690.8000000119209","","","","49","1,1,1","0","countryside","6","probe-169","0.9259710630739164","0.4879185227810558","0.16763837079308666","1","","","","","",""
"","do_trial","68","266701","0.0-48.0-0.0","801.5999999940395","","","","49","1,0,0","0","countryside","7","probe-211","0.7729203528873487","0.5123511815837939","0.10479500228081311","1","","","","","",""
"","do_trial","69","272940","0.0-49.0-0.0","677.5999999940395","","","","49","1,0,0","0","countryside","8","probe-201","0.7742143543771863","0.48496272073111696","0.0678145711686853","1","","","","","",""
"","do_trial","70","279041","0.0-50.0-0.0","548.8000000119209","","","","49","1,1,0","0","countryside","9","probe-190","0.7012153057254702","0.4401974990635306","0.15848374406219645","1","","","","","",""
"","do_trial","71","285147","0.0-51.0-0.0","550.7999999821186","","","","49","0,0,1","0","countryside","10","probe-175","0.471626911616964","0.4205322246287283","0.512393280822585","0","","","","","",""
"","do_trial","72","291554","0.0-52.0-0.0","855","","","","49","0,1,1","0","countryside","11","probe-153","0.20352626884449407","0.4777310411723273","0.6935558029784469","0","","","","","",""
"","do_trial","73","297672","0.0-53.0-0.0","560.6000000238419","","","","49","0,0,0","0","countryside","12","probe-66","0.19690676225846027","0.2988103962920039","0.8575894384644335","0","","","","","",""
"","do_trial","74","304029","0.0-54.0-0.0","799.9000000059605","","","","49","0,0,1","0","countryside","13","probe-236","0.06501013890286583","0.42773790204606976","0.9265285157154943","0","","","","","",""
"","do_trial","75","310433","0.0-55.0-0.0","846.3000000119209","","","","50","0,0,1","0","countryside","14","probe-08","0.07462242877823937","0.5223698272534183","0.8486487994951258","0","","","","","",""
"","do_trial","76","317304","0.0-56.0-0.0","1313.2999999821186","","","","51","1,0,1","0","countryside","15","probe-225","0.06516621481159239","0.4056684811611775","0.8074546956439386","1","","","","","",""
"","do_trial","77","324425","0.0-57.0-0.0","1565.5999999940395","","","","51","0,1,1","0","countryside","16","probe-184","0.10209688677370672","0.427997851228466","0.7021816650711271","1","","","","","",""
"","do_trial","78","331476","0.0-58.0-0.0","1494.300000011921","","","","51","0,1,1","0","countryside","17","probe-87","0.1438920385759128","0.39617882147443473","0.7228078309150995","1","","","","","",""
"","do_trial","79","339530","0.0-59.0-0.0","2496.9000000059605","","","","51","0,1,1","0","countryside","18","probe-62","0.14248672066149934","0.2862534196187098","0.8697373203966242","1","","","","","",""
"","do_trial","80","346722","0.0-60.0-0.0","1634","","","","51","1,1,1","0","countryside","19","probe-29","0.13705121181183097","0.4173382680491591","0.7172483925315466","1","","","","","",""
"","do_trial","81","353544","0.0-61.0-0.0","1265.0999999940395","","","","51","0,0,1","0","countryside","20","probe-154","0.2120585853172846","0.429516244059453","0.7154642622037676","1","","","","","",""
"","do_trial","82","360209","0.0-62.0-0.0","1106.800000011921","","","","51","1,0,1","0","countryside","21","probe-52","0.2931029570020646","0.507711908765089","0.7373007259378178","1","","","","","",""
"","do_trial","83","366129","0.0-63.0-0.0","363.5","","","","51","0,0,1","0","countryside","22","probe-235","0.3166700210607014","0.47108731808037185","0.7414630005407251","1","","","","","",""
"","do_trial","84","372378","0.0-64.0-0.0","695.1999999880791","","","","51","0,1,1","0","countryside","23","probe-01","0.2802261986642692","0.5002089490814337","0.698219909824508","1","","","","","",""
"","do_trial","85","378569","0.0-65.0-0.0","632.2999999821186","","","","51","0,0,0","0","countryside","24","probe-239","0.3387426803480713","0.43090685036787213","0.8100886911430437","0","","","","","",""
"","do_trial","86","384443","0.0-66.0-0.0","316.90000000596046","","","","51","0,0,1","0","countryside","25","probe-16","0.351792758278318","0.39768988638642067","0.7429611759860125","1","","","","","",""
"","do_trial","87","391305","0.0-67.0-0.0","1305.5","","","","51","0,0,0","0","countryside","26","probe-199","0.273343672738891","0.2867431408306695","0.7175540719817923","0","","","","","",""
"","do_trial","88","397956","0.0-68.0-0.0","1096.0999999940395","","","","51","0,0,1","0","countryside","27","probe-11","0.26404217748069825","0.29783765318088695","0.6907895764570189","1","","","","","",""
"","do_trial","89","404485","0.0-69.0-0.0","972.7999999821186","","","","51","0,0,1","0","countryside","28","probe-116","0.2180656390776623","0.33348128781293696","0.6867828282737034","1","","","","","",""
"","do_trial","90","411027","0.0-70.0-0.0","982.1999999880791","","","","51","0,0,1","0","countryside","29","probe-147","0.13738178197684017","0.2577859948743654","0.7324873440924888","1","","","","","",""
"","do_trial","91","418282","0.0-71.0-0.0","1697.8999999761581","","","","51","0,0,0","0","countryside","30","probe-127","0.07607144934684185","0.2292314625875947","0.780436895398096","0","","","","","",""
"","do_trial","92","424565","0.0-72.0-0.0","727.2000000178814","","","","51","1,0,1","0","countryside","31","probe-57","0.11164123423110703","0.2153205597729252","0.7043230106967114","1","","","","","",""
"","do_trial","93","432622","0.0-73.0-0.0","2498.0999999940395","","","","51","0,1,1","0","countryside","32","probe-89","0.0991753329772069","0.31929159172937005","0.799360111296989","1","","","","","",""
"","do_trial","94","440761","0.0-74.0-0.0","2583.5999999940395","","","","51","0,0,1","0","countryside","33","probe-200","0.061595346297322225","0.20875053157607315","0.9144344216945401","1","","","","","",""
"","do_trial","95","447077","0.0-75.0-0.0","762.3000000119209","","","","51","0,1,1","0","countryside","34","probe-192","0.06499213387676607","0.2771315273284657","0.8936503281643084","1","","","","","",""
"","do_trial","96","454749","0.0-76.0-0.0","2115.0999999940395","","","","51","0,0,0","0","countryside","35","probe-214","0.052823627913370315","0.38603673295285457","0.7740444862616858","0","","","","","",""
"","do_trial","97","461782","0.0-77.0-0.0","1476","","","","51","1,1,1","0","countryside","36","probe-97","0.20422305819289613","0.33016280943660015","0.7681869857414338","1","","","","","",""
"","do_trial","98","468335","0.0-78.0-0.0","994.5","","","","51","0,1,1","0","countryside","37","probe-134","0.0961742160286227","0.41954515512323964","0.7524768912292288","1","","","","","",""
"","do_trial","99","475395","0.0-79.0-0.0","1502.4000000059605","","","","51","0,0,1","0","countryside","38","probe-21","0.10315468804934635","0.3555291849327422","0.8680300416677548","1","","","","","",""
"","do_trial","100","481456","0.0-80.0-0.0","null","","","","null","1,1,1","0","countryside","39","probe-80","0.2505305906940795","0.38135503062469583","0.8818713962985006","","","","","","",""
"","do_bye","101","482968","0.0-81.0-0.0","null","","","","null","","","","","","","","","","","","","","",""
"","do_travel","102","488974","0.0-82.0-0.0","null","","","","null","","","","","","","","","","","","","","",""
"","do_welcome","103","490481","0.0-82.0-1.0","null","","","","null","","","","","","","","","","","","","","",""
"","do_trial","104","496890","0.0-83.0-0.0","854.0999999940395","","","","50","0,0,1","1","coast","40","probe-35","0.2953708581696599","0.2936582370159442","1","0","","","","","",""
"","do_trial","105","503094","0.0-84.0-0.0","648.3000000119209","","","","50","0,0,1","1","coast","41","probe-128","0.28818243571052987","0.3763888224470842","1","0","","","","","",""
"","do_trial","106","509231","0.0-85.0-0.0","581.5999999940395","","","","51","1,0,1","1","coast","42","probe-195","0.29991176317033935","0.34368961440572987","1","1","","","","","",""
"","do_trial","107","515121","0.0-86.0-0.0","335.19999998807907","","","","51","0,1,1","1","coast","43","probe-196","0.30405165651483934","0.3709260068484685","1","1","","","","","",""
"","do_trial","108","521053","0.0-87.0-0.0","374.69999998807907","","","","51","0,0,1","1","coast","44","probe-142","0.1610202905693296","0.32539678677735884","0.9455200185706513","1","","","","","",""
"","do_trial","109","529429","0.0-88.0-0.0","2820.5","","","","51","0,0,0","1","coast","45","probe-139","0.2530518179995406","0.37882007078364327","0.7766156822886592","0","","","","","",""
"","do_trial","110","535377","0.0-89.0-0.0","392.40000000596046","","","","51","0,1,1","1","coast","46","probe-110","0.3255331958913117","0.45425755983739813","0.7710057978832673","1","","","","","",""
"","do_trial","111","541825","0.0-90.0-0.0","895.5","","","","51","1,1,1","1","coast","47","probe-143","0.30283468890458287","0.40406444468472485","0.80606914355951","1","","","","","",""
"","do_trial","112","548699","0.0-91.0-0.0","1316.199999988079","","","","51","0,0,1","1","coast","48","probe-179","0.194132853518683","0.32644407420533145","0.8018577222792211","1","","","","","",""
"","do_trial","113","555349","0.0-92.0-0.0","1097.300000011921","","","","51","0,0,1","1","coast","49","probe-228","0.17538024028126814","0.30230382343551077","0.7415231261944335","1","","","","","",""
"","do_trial","114","562019","0.0-93.0-0.0","1048.0999999940395","","","","51","0,1,0","1","coast","50","probe-208","0.26445345218765776","0.6173662147006905","0.5614795607216112","0","","","","","",""
"","do_trial","115","568149","0.0-94.0-0.0","572.6999999880791","","","","49","0,1,0","1","coast","51","probe-168","0.3160489968453258","0.7467648777242011","0.3880795026036789","0","","","","","",""
"","do_trial","116","574028","0.0-95.0-0.0","324.69999998807907","","","","51","0,1,0","1","coast","52","probe-03","0.2702189169258346","0.8506400119688242","0.26054634895283607","0","","","","","",""
"","do_trial","117","581033","0.0-96.0-0.0","1445.300000011921","","","","51","0,1,0","1","coast","53","probe-207","0.22894441314109756","0.9116688284637117","0.3994507917559802","0","","","","","",""
"","do_trial","118","587079","0.0-97.0-0.0","475.90000000596046","","","","51","0,1,0","1","coast","54","probe-232","0.13812493397105047","0.8567523359959208","0.20709751809815477","0","","","","","",""
"","do_trial","119","592958","0.0-98.0-0.0","322","","","","49","0,0,0","1","coast","55","probe-79","0.2388653092126538","0.8899926464392314","0.2094301566469101","0","","","","","",""
"","do_trial","120","598933","0.0-99.0-0.0","418.40000000596046","","","","49","0,0,0","1","coast","56","probe-65","0.32186145315377784","0.6632395901848418","0.11149525387260506","0","","","","","",""
"","do_trial","121","604816","0.0-100.0-0.0","325","","","","50","1,1,0","1","coast","57","probe-30","0.3807568052129141","0.6283506660010791","0.14881702226367244","1","","","","","",""
"","do_trial","122","610750","0.0-101.0-0.0","374.90000000596046","","","","50","1,1,0","1","coast","58","probe-135","0.3959013806413227","0.711169311709891","0.16503892282042099","1","","","","","",""
"","do_trial","123","616642","0.0-102.0-0.0","339.09999999403954","","","","50","1,0,1","1","coast","59","probe-34","0.39474431975471364","0.6185143010398487","0.16451004702251823","0","","","","","",""
"","do_trial","124","622505","0.0-103.0-0.0","305.60000002384186","","","","50","0,0,0","1","coast","60","probe-163","0.4151823044041269","0.7546808022000537","0.0541701786854466","0","","","","","",""
"","do_trial","125","630181","0.0-104.0-0.0","2118.600000023842","","","","51","1,1,0","1","coast","61","probe-06","0.398045291262872","0.7230975527308136","0.07531482561568621","0","","","","","",""
"","do_trial","126","636268","0.0-105.0-0.0","529.1000000238419","","","","49","0,1,0","1","coast","62","probe-61","0.35105883727901727","0.6907162963746478","0.05511631152933894","0","","","","","",""
"","do_trial","127","642608","0.0-106.0-0.0","784.5","","","","49","0,0,0","1","coast","63","probe-71","0.4471812010003094","0.6554506913618016","0.10604826748610653","0","","","","","",""
"","do_trial","128","648445","0.0-107.0-0.0","278.7000000178814","","","","50","1,1,0","1","coast","64","probe-223","0.5651097268537635","0.5875724743582126","0.09969504939743214","1","","","","","",""
"","do_trial","129","654341","0.0-108.0-0.0","340.09999999403954","","","","50","0,1,0","1","coast","65","probe-216","0.46408200408747474","0.6726446084471489","0.14631260048735883","1","","","","","",""
"","do_trial","130","660397","0.0-109.0-0.0","null","","","","null","0,1,0","1","coast","66","probe-221","0.3282740415584384","0.860431310062039","0.2115365296187311","","","","","","",""
"","do_trial","131","668071","0.0-110.0-0.0","2117.5999999940395","","","","51","1,1,0","1","coast","67","probe-155","0.420769907843697","0.743287056454429","0.1955063932960437","0","","","","","",""
"","do_trial","132","673990","0.0-111.0-0.0","360.7000000178814","","","","50","1,1,0","1","coast","68","probe-122","0.47528002975230904","0.733731179370532","0.09989044914589283","1","","","","","",""
"","do_trial","133","679881","0.0-112.0-0.0","332.2999999821186","","","","50","0,1,0","1","coast","69","probe-104","0.49362801440699955","0.755296515600906","0.057362356839213736","1","","","","","",""
"","do_trial","134","685960","0.0-113.0-0.0","520.9000000059605","","","","50","1,1,1","1","coast","70","probe-60","0.47896311172631467","0.8708218740641729","0.14822847729043517","1","","","","","",""
"","do_trial","135","692383","0.0-114.0-0.0","864.5999999940395","","","","50","0,1,0","1","coast","71","probe-56","0.4810443090244229","0.7837865070633643","0.10629211065363435","1","","","","","",""
"","do_trial","136","699234","0.0-115.0-0.0","1292.0999999940395","","","","50","1,1,0","1","coast","72","probe-212","0.5802650080160848","0.8458715225655159","0.06784276818283219","1","","","","","",""
"","do_trial","137","705073","0.0-116.0-0.0","285.30000001192093","","","","50","0,1,0","1","coast","73","probe-95","0.5274285860289356","0.7771464572470111","0.05054403539276385","1","","","","","",""
"","do_trial","138","711669","0.0-117.0-0.0","1038.0999999940395","","","","50","1,0,0","1","coast","74","probe-108","0.4002542906464079","0.8560801647874381","0.09735846941420771","0","","","","","",""
"","do_trial","139","717470","0.0-118.0-0.0","242.7999999821186","","","","49","0,1,0","1","coast","75","probe-233","0.4226627868036488","0.8272139501153275","0.1416056846164238","0","","","","","",""
"","do_trial","140","723341","0.0-119.0-0.0","314.40000000596046","","","","51","1,1,0","1","coast","76","probe-157","0.4481063440290031","0.8740618648017359","0.18993805839647593","0","","","","","",""
"","do_trial","141","729186","0.0-120.0-0.0","287.30000001192093","","","","50","0,1,1","1","coast","77","probe-215","0.33146255760375126","0.7562386536357139","0.2375878018905167","1","","","","","",""
"","do_trial","142","735094","0.0-121.0-0.0","351.7000000178814","","","","50","0,1,0","1","coast","78","probe-26","0.376092881812465","0.7457894882281846","0.18833402232366286","1","","","","","",""
"","do_trial","143","741743","0.0-122.0-0.0","1092","","","","50","1,1,0","1","coast","79","probe-27","0.4406885929569158","0.7637200923173458","0.09454660964169914","1","","","","","",""
"","do_bye","144","743254","0.0-123.0-0.0","null","","","","null","","","","","","","","","","","","","","",""
"","do_travel","145","749262","0.0-124.0-0.0","null","","","","null","","","","","","","","","","","","","","",""
"","do_welcome","146","750774","0.0-124.0-1.0","null","","","","null","","","","","","","","","","","","","","",""
"","do_trial","147","758511","0.0-125.0-0.0","2180.5999999940395","","","","51","0,1,0","2","highway","80","probe-238","0.468146967311936","1","0.15525455687360876","0","","","","","",""
"","do_trial","148","764730","0.0-126.0-0.0","662.4000000059605","","","","49","0,1,0","2","highway","81","probe-231","0.4564501570985477","1","0.1319291641698692","0","","","","","",""
"","do_trial","149","770632","0.0-127.0-0.0","348","","","","50","0,1,0","2","highway","82","probe-106","0.4087568347668421","1","0.11335113539327521","1","","","","","",""
"","do_trial","150","776577","0.0-128.0-0.0","390.90000000596046","","","","50","1,1,0","2","highway","83","probe-115","0.4330362899778418","1","0.08643478964877634","1","","","","","",""
"","do_trial","151","782451","0.0-129.0-0.0","321","","","","50","1,1,0","2","highway","84","probe-86","0.4149789032195648","0.9075164967056328","0.1560871845504246","1","","","","","",""
"","do_trial","152","789440","0.0-130.0-0.0","1432.3999999761581","","","","50","0,0,0","2","highway","85","probe-28","0.33621149904810504","0.924041538994402","0.1187573467813867","0","","","","","",""
"","do_trial","153","795756","0.0-131.0-0.0","758.9000000059605","","","","49","0,1,0","2","highway","86","probe-15","0.36384115007289125","0.682171803792605","0.0560520963821402","0","","","","","",""
"","do_trial","154","801645","0.0-132.0-0.0","332","","","","50","0,0,0","2","highway","87","probe-48","0.33013955344604695","0.7312788743969902","0.18370341162268683","0","","","","","",""
"","do_trial","155","807451","0.0-133.0-0.0","248.09999999403954","","","","51","0,0,1","2","highway","88","probe-185","0.4225459198403181","0.7331377622113844","0.2864610730125838","1","","","","","",""
"","do_trial","156","813915","0.0-134.0-0.0","908.0999999940395","","","","51","0,1,0","2","highway","89","probe-210","0.41890520281996124","0.7953783200916696","0.29795741116230195","0","","","","","",""
"","do_trial","157","820467","0.0-135.0-0.0","994.9000000059605","","","","51","0,0,0","2","highway","90","probe-138","0.29583172248974404","0.6366868522656729","0.6150389583707123","0","","","","","",""
"","do_trial","158","826550","0.0-136.0-0.0","526.0999999940395","","","","50","0,0,1","2","highway","91","probe-05","0.23578953887432252","0.48115587079672895","0.8114564864004793","0","","","","","",""
"","do_trial","159","833599","0.0-137.0-0.0","1490.5","","","","50","1,0,1","2","highway","92","probe-209","0.33235119559071047","0.454576150988732","0.6765059521433386","0","","","","","",""
"","do_trial","160","839584","0.0-138.0-0.0","432.19999998807907","","","","49","0,1,1","2","highway","93","probe-218","0.2897421633780284","0.3654392502075647","0.8490913559899402","0","","","","","",""
"","do_trial","161","845827","0.0-139.0-0.0","686.8000000119209","","","","51","0,1,1","2","highway","94","probe-189","0.1278207709922731","0.36779111990171387","0.785254881581488","1","","","","","",""
"","do_trial","162","853229","0.0-140.0-0.0","1842.699999988079","","","","51","0,1,1","2","highway","95","probe-129","0.16164139846501954","0.42220205355695306","0.8261358725151964","1","","","","","",""
"","do_trial","163","859398","0.0-141.0-0.0","610.8999999761581","","","","51","0,0,1","2","highway","96","probe-109","0.15073401148353435","0.3674291639305464","0.809252433178912","1","","","","","",""
"","do_trial","164","865387","0.0-142.0-0.0","433.2000000178814","","","","51","0,0,1","2","highway","97","probe-173","0.22791576254737236","0.19870221450179038","0.8277108020947506","1","","","","","",""
"","do_trial","165","871448","0.0-143.0-0.0","null","","","","null","0,0,1","2","highway","98","probe-237","0.18507471581353346","0.2673040829032735","0.7591548072264371","","","","","","",""
"","do_trial","166","877510","0.0-144.0-0.0","null","","","","null","0,0,0","2","highway","99","probe-63","0.06302958711272584","0.3743915185548224","0.6836215280189311","","","","","","",""
"","do_trial","167","885504","0.0-145.0-0.0","2438","","","","49","0,0,1","2","highway","100","probe-07","0.09171986654915419","0.3744544261474142","0.6584945287218867","0","","","","","",""
"","do_trial","168","892825","0.0-146.0-0.0","1763.9000000059605","","","","50","0,1,0","2","highway","101","probe-84","0.06713170414365699","0.5019772518441465","0.6610873732884969","1","","","","","",""
"","do_trial","169","899224","0.0-147.0-0.0","840.9000000059605","","","","50","0,0,1","2","highway","102","probe-162","0.13450697399712286","0.474502359366866","0.9459692404851465","0","","","","","",""
"","do_trial","170","905748","0.0-148.0-0.0","967.5","","","","51","0,1,1","2","highway","103","probe-20","0.09736970796450707","0.48431464291828363","0.7861509959042207","1","","","","","",""
"","do_trial","171","911839","0.0-149.0-0.0","533.4000000059605","","","","51","0,0,1","2","highway","104","probe-144","0.19431021883641364","0.3607569673903535","0.8124135530711027","1","","","","","",""
"","do_trial","172","917900","0.0-150.0-0.0","null","","","","null","0,1,1","2","highway","105","probe-113","0.16945965251458614","0.44393903218655906","0.7584335928974079","","","","","","",""
"","do_trial","173","924550","0.0-151.0-0.0","1094.5999999940395","","","","51","0,0,0","2","highway","106","probe-117","0.1962196098978407","0.45898087385026876","0.6809222874926116","0","","","","","",""
"","do_trial","174","930859","0.0-152.0-0.0","756.8000000119209","","","","50","1,1,1","2","highway","107","probe-49","0.2853029686422392","0.3273885686725195","0.7563640030993632","1","","","","","",""
"","do_trial","175","936839","0.0-153.0-0.0","425.10000002384186","","","","50","0,0,0","2","highway","108","probe-70","0.088709279161587","0.22925887993977476","0.8096061206591785","0","","","","","",""
"","do_trial","176","943195","0.0-154.0-0.0","782","","","","50","0,0,1","2","highway","109","probe-204","0.06982173560070497","0.18797169700363184","0.8503081562003308","0","","","","","",""
"","do_trial","177","949157","0.0-155.0-0.0","405","","","","49","0,1,1","2","highway","110","probe-220","0.05175614240343565","0.45863703256247534","0.7276722921048875","0","","","","","",""
"","do_trial","178","955218","0.0-156.0-0.0","502.69999998807907","","","","51","1,0,1","2","highway","111","probe-42","0.10729250121961757","0.3777357923627633","0.8113145940032486","1","","","","","",""
"","do_trial","179","961276","0.0-157.0-0.0","null","","","","null","0,0,1","2","highway","112","probe-182","0.12629026355874187","0.3760740383083176","0.8455674789521999","","","","","","",""
"","do_trial","180","967956","0.0-158.0-0.0","1127.5999999940395","","","","51","0,0,1","2","highway","113","probe-18","0.10981687043869594","0.37534529589928833","0.8986683417742066","1","","","","","",""
"","do_trial","181","974901","0.0-159.0-0.0","1386.5","","","","51","1,0,1","2","highway","114","probe-10","0.2624899313489347","0.3967299894976978","0.9349621962997213","1","","","","","",""
"","do_trial","182","981518","0.0-160.0-0.0","1060","","","","51","0,0,1","2","highway","115","probe-152","0.2979650475665639","0.2882153140530839","0.9394223037845667","1","","","","","",""
"","do_trial","183","989699","0.0-161.0-0.0","2623.2999999821186","","","","51","0,1,1","2","highway","116","probe-167","0.22546356102788326","0.27855811638246314","0.7560325409284923","1","","","","","",""
"","do_trial","184","996048","0.0-162.0-0.0","794.1000000238419","","","","51","1,0,1","2","highway","117","probe-102","0.24253695657597213","0.33831986944497516","0.8647966300887514","1","","","","","",""
"","do_trial","185","1004272","0.0-163.0-0.0","2667.5","","","","51","0,0,1","2","highway","118","probe-229","0.10493755522220631","0.3501240159819689","0.8619876440707371","1","","","","","",""
"","do_trial","186","1010333","0.0-164.0-0.0","null","","","","null","1,0,1","2","highway","119","probe-44","0.1399503579925658","0.2702337343754758","0.8945367895863688","","","","","","",""
"","do_bye","187","1011841","0.0-165.0-0.0","null","","","","null","","","","","","","","","","","","","","",""
"","do_travel","188","1017848","0.0-166.0-0.0","null","","","","null","","","","","","","","","","","","","","",""
"","do_welcome","189","1019358","0.0-166.0-1.0","null","","","","null","","","","","","","","","","","","","","",""
"","do_trial","190","1026119","0.0-167.0-0.0","1207.199999988079","","","","50","0,0,1","3","mountain","120","probe-133","0.10390866678910422","0.1443766354409109","1","0","","","","","",""
"","do_trial","191","1032060","0.0-168.0-0.0","387.09999999403954","","","","49","0,0,1","3","mountain","121","probe-55","0.21917960428362854","0.10882237937041382","1","0","","","","","",""
"","do_trial","192","1038825","0.0-169.0-0.0","1208.2999999821186","","","","51","0,0,1","3","mountain","122","probe-36","0.21061362158672545","0.09486701106946292","1","1","","","","","",""
"","do_trial","193","1045617","0.0-170.0-0.0","1238.7000000178814","","","","51","0,0,1","3","mountain","123","probe-183","0.11995561902501878","0.1723515986983415","1","1","","","","","",""
"","do_trial","194","1052654","0.0-171.0-0.0","1479","","","","51","0,0,1","3","mountain","124","probe-178","0.1287322019634856","0.05035135058145581","0.9132730752545068","1","","","","","",""
"","do_trial","195","1059398","0.0-172.0-0.0","1186.699999988079","","","","51","0,1,1","3","mountain","125","probe-41","0.059456582692739034","0.1348316462048169","0.9081777294257731","1","","","","","",""
"","do_trial","196","1065809","0.0-173.0-0.0","853.5","","","","51","0,0,1","3","mountain","126","probe-67","0.07288282463262873","0.1663532941764283","0.8839597979652486","1","","","","","",""
"","do_trial","197","1072856","0.0-174.0-0.0","1488.9000000059605","","","","51","1,0,1","3","mountain","127","probe-33","0.09931650374117135","0.21087349529127278","0.9389637363737111","1","","","","","",""
"","do_trial","198","1080343","0.0-175.0-0.0","1932.4000000059605","","","","51","0,1,1","3","mountain","128","probe-43","0.1282258714494126","0.30974595676854394","0.8936215471280441","1","","","","","",""
"","do_trial","199","1086310","0.0-176.0-0.0","409.5","","","","51","0,0,1","3","mountain","129","probe-77","0.08585691372851863","0.3060349934972298","0.7383398876758845","1","","","","","",""
"","do_trial","200","1094413","0.0-177.0-0.0","2550","","","","51","0,0,0","3","mountain","130","probe-46","0.18991184860448163","0.5641197430412082","0.464131038473571","0","","","","","",""
"","do_trial","201","1100312","0.0-178.0-0.0","341.7000000178814","","","","50","1,1,1","3","mountain","131","probe-206","0.3242318129510134","0.6868903379888798","0.3609441712615453","1","","","","","",""
"","do_trial","202","1106163","0.0-179.0-0.0","294.09999999403954","","","","50","1,1,1","3","mountain","132","probe-234","0.4296306440390931","0.7380983727778404","0.22808155095075955","1","","","","","",""
"","do_trial","203","1112446","0.0-180.0-0.0","724.5999999940395","","","","50","0,1,0","3","mountain","133","probe-99","0.509261799071181","0.6302720386204519","0.23050561104881837","1","","","","","",""
"","do_trial","204","1118538","0.0-181.0-0.0","537.5","","","","50","1,1,0","3","mountain","134","probe-145","0.539849427218521","0.6302414186345564","0.2601731536432306","1","","","","","",""
"","do_trial","205","1124595","0.0-182.0-0.0","null","","","","null","1,1,0","3","mountain","135","probe-93","0.5045065296496242","0.7594089504493923","0.17927427024132567","","","","","","",""
"","do_trial","206","1131177","0.0-183.0-0.0","1026.5999999940395","","","","50","0,0,0","3","mountain","136","probe-114","0.5748813533611877","0.7454885006448744","0.15859871619344165","0","","","","","",""
"","do_trial","207","1138155","0.0-184.0-0.0","1418","","","","49","1,1,0","3","mountain","137","probe-121","0.4553169949658893","0.7751657688740309","0.22123078505258315","1","","","","","",""
"","do_trial","208","1144361","0.0-185.0-0.0","648.3000000119209","","","","49","0,1,1","3","mountain","138","probe-101","0.3631007800248735","0.7258497407004212","0.17862125471728998","0","","","","","",""
"","do_trial","209","1150255","0.0-186.0-0.0","340.7999999821186","","","","49","1,0,0","3","mountain","139","probe-137","0.3725007352621316","0.6731263368487307","0.2832536562421392","1","","","","","",""
"","do_trial","210","1156317","0.0-187.0-0.0","null","","","","null","0,1,0","3","mountain","140","probe-230","0.3523118734049123","0.8415686733705908","0.2463812402944671","","","","","","",""
"","do_trial","211","1162374","0.0-188.0-0.0","null","","","","null","1,0,1","3","mountain","141","probe-202","0.3906836398183146","0.7879900651644935","0.3772849751908959","","","","","","",""
"","do_trial","212","1168922","0.0-189.0-0.0","992.8000000119209","","","","49","1,1,0","3","mountain","142","probe-75","0.353838462297002","0.8043103457308719","0.34893293113996393","1","","","","","",""
"","do_trial","213","1174618","0.0-190.0-0.0","143","","","","49","0,1,1","3","mountain","143","probe-171","0.4057556544852527","0.719598357656906","0.40910226216540635","0","","","","","",""
"","do_trial","214","1181812","0.0-191.0-0.0","1638","","","","49","0,1,1","3","mountain","144","probe-125","0.4047018583172124","0.8036770818771826","0.23359645963553913","0","","","","","",""
"","do_trial","215","1188049","0.0-192.0-0.0","684.8000000119209","","","","50","1,1,0","3","mountain","145","probe-58","0.4220780574632811","0.8723786717671818","0.1383195462015068","1","","","","","",""
"","do_trial","216","1194722","0.0-193.0-0.0","1116.5999999940395","","","","50","0,0,0","3","mountain","146","probe-19","0.3884193828388692","0.7829246717561935","0.12338740678565226","0","","","","","",""
"","do_trial","217","1200590","0.0-194.0-0.0","311.80000001192093","","","","51","0,1,0","3","mountain","147","probe-54","0.4611726836860588","0.824452068343692","0.11708801661295183","0","","","","","",""
"","do_trial","218","1207448","0.0-195.0-0.0","1301.5999999940395","","","","49","0,1,0","3","mountain","148","probe-81","0.46565090768051276","0.7952131934164585","0.08002935452995968","0","","","","","",""
"","do_trial","219","1213505","0.0-196.0-0.0","null","","","","null","0,1,0","3","mountain","149","probe-193","0.5189574968305903","0.7769954049792388","0.16288148916812448","","","","","","",""
"","do_trial","220","1219564","0.0-197.0-0.0","null","","","","null","1,1,0","3","mountain","150","probe-50","0.490552042212361","0.9407014446109127","0.3098021966159737","","","","","","",""
"","do_trial","221","1226070","0.0-198.0-0.0","954.9000000059605","","","","50","1,1,0","3","mountain","151","probe-191","0.32473673437247136","0.8270937255224355","0.11649433996709194","1","","","","","",""
"","do_trial","222","1234388","0.0-199.0-0.0","2761.199999988079","","","","50","0,1,0","3","mountain","152","probe-111","0.4177348221914432","0.8689138628064933","0.10024894362106901","1","","","","","",""
"","do_trial","223","1240376","0.0-200.0-0.0","434.69999998807907","","","","50","0,1,1","3","mountain","153","probe-96","0.32690358192134983","0.6195435460070908","0.1485576269643164","1","","","","","",""
"","do_trial","224","1246965","0.0-201.0-0.0","1036","","","","50","0,1,0","3","mountain","154","probe-53","0.34034846396332524","0.6826492349218458","0.05560223549184924","1","","","","","",""
"","do_trial","225","1252874","0.0-202.0-0.0","352.09999999403954","","","","50","1,1,0","3","mountain","155","probe-164","0.4115626538312313","0.7135557303027562","0.11592807445504645","1","","","","","",""
"","do_trial","226","1258824","0.0-203.0-0.0","392.5","","","","50","0,0,1","3","mountain","156","probe-187","0.42340975035235673","0.6347332645281705","0.22995029533941258","0","","","","","",""
"","do_trial","227","1264769","0.0-204.0-0.0","387.69999998807907","","","","51","1,1,0","3","mountain","157","probe-151","0.40495379645624857","0.6699407599878642","0.10819322379244115","0","","","","","",""
"","do_trial","228","1271309","0.0-205.0-0.0","983.1000000238419","","","","49","1,1,0","3","mountain","158","probe-59","0.5104056336260451","0.6857893278001972","0.23352908371829664","1","","","","","",""
"","do_trial","229","1277371","0.0-206.0-0.0","null","","","","null","0,1,0","3","mountain","159","probe-156","0.42754969434603884","0.563187500659006","0.1264945955816393","","","","","","",""
"","do_bye","230","1278883","0.0-207.0-0.0","null","","","","null","","","","","","","","","","","","","","",""
"","do_travel","231","1284892","0.0-208.0-0.0","null","","","","null","","","","","","","","","","","","","","",""
"","do_welcome","232","1286404","0.0-208.0-1.0","null","","","","null","","","","","","","","","","","","","","",""
"","do_trial","233","1292465","0.0-209.0-0.0","null","","","","null","1,1,1","4","city","160","probe-213","0.3774592888619976","1","0.11312949200780655","","","","","","",""
"","do_trial","234","1298574","0.0-210.0-0.0","559.1999999880791","","","","51","0,1,0","4","city","161","probe-165","0.39334347338953896","1","0.2683683797182589","0","","","","","",""
"","do_trial","235","1304630","0.0-211.0-0.0","null","","","","null","0,1,1","4","city","162","probe-04","0.2864111136451308","1","0.17636100501461305","","","","","","",""
"","do_trial","236","1311209","0.0-212.0-0.0","1022.5999999940395","","","","50","1,1,0","4","city","163","probe-141","0.24402335763391342","1","0.24774182674602013","1","","","","","",""
"","do_trial","237","1317445","0.0-213.0-0.0","682.6999999880791","","","","50","1,1,0","4","city","164","probe-205","0.41529561861767383","0.892221112106584","0.13833594422673312","1","","","","","",""
"","do_trial","238","1323617","0.0-214.0-0.0","615","","","","50","1,1,1","4","city","165","probe-166","0.2543453919028297","0.8888257392438352","0.079772771373388","1","","","","","",""
"","do_trial","239","1329993","0.0-215.0-0.0","823.2000000178814","","","","50","0,1,0","4","city","166","probe-161","0.33500123550922206","0.8672694503229507","0.08325680288403373","1","","","","","",""
"","do_trial","240","1336053","0.0-216.0-0.0","null","","","","null","0,1,0","4","city","167","probe-69","0.4076860871075762","0.774284511151971","0.14622727261046553","","","","","","",""
"","do_trial","241","1342721","0.0-217.0-0.0","1112.300000011921","","","","50","0,1,0","4","city","168","probe-148","0.493846089707732","0.8197180949835416","0.2311340322513846","1","","","","","",""
"","do_trial","242","1350535","0.0-218.0-0.0","2260.4000000059605","","","","50","1,1,0","4","city","169","probe-177","0.5385549677389215","0.8699015724239275","0.12488861313479632","1","","","","","",""
"","do_trial","243","1357114","0.0-219.0-0.0","1020.6999999880791","","","","50","0,1,0","4","city","170","probe-146","0.37442639032675445","0.5850288044030518","0.399034274952219","1","","","","","",""
"","do_trial","244","1365058","0.0-220.0-0.0","2385.199999988079","","","","50","0,1,0","4","city","171","probe-103","0.3193557259382353","0.4394051220094312","0.6532564289032261","1","","","","","",""
"","do_trial","245","1371618","0.0-221.0-0.0","1007.1000000238419","","","","50","0,0,0","4","city","172","probe-158","0.17220880862797344","0.3631690741296504","0.7778516492295714","0","","","","","",""
"","do_trial","246","1377675","0.0-222.0-0.0","null","","","","null","0,0,1","4","city","173","probe-78","0.06357800379110513","0.3363568889282623","0.8658564585318727","","","","","","",""
"","do_trial","247","1385882","0.0-223.0-0.0","2649.2999999821186","","","","51","0,0,1","4","city","174","probe-124","0.0984964897534664","0.44520249526433703","0.9293164946315201","1","","","","","",""
"","do_trial","248","1392802","0.0-224.0-0.0","1363.2000000178814","","","","51","1,0,0","4","city","175","probe-51","0.09175036249739645","0.39959182366283524","0.8100737379930649","0","","","","","",""
"","do_trial","249","1399182","0.0-225.0-0.0","821.5","","","","49","0,1,1","4","city","176","probe-180","0.1755451267935297","0.547506024376212","0.8538536935094589","0","","","","","",""
"","do_trial","250","1405865","0.0-226.0-0.0","1125.300000011921","","","","50","0,1,1","4","city","177","probe-198","0.07878120388033998","0.4896389439311799","0.7274712758073053","1","","","","","",""
"","do_trial","251","1412723","0.0-227.0-0.0","1306.4000000059605","","","","50","0,1,1","4","city","178","probe-159","0.10877326519149583","0.4166897859429095","0.6466342199291434","1","","","","","",""
"","do_trial","252","1419757","0.0-228.0-0.0","1482.0999999940395","","","","50","0,0,1","4","city","179","probe-174","0.23096657899851158","0.4374385287790609","0.7569292294751949","0","","","","","",""
"","do_trial","253","1426776","0.0-229.0-0.0","1461.7000000178814","","","","51","0,1,1","4","city","180","probe-194","0.09862451299671329","0.47827870940580336","0.8150304140150677","1","","","","","",""
"","do_trial","254","1433178","0.0-230.0-0.0","844.3000000119209","","","","51","0,1,1","4","city","181","probe-123","0.0890903872274908","0.4296586183926612","0.7103340992301843","1","","","","","",""
"","do_trial","255","1439531","0.0-231.0-0.0","793.6999999880791","","","","51","0,0,1","4","city","182","probe-149","0.22231867844375564","0.3744188272784417","0.690517782048252","1","","","","","",""
"","do_trial","256","1445953","0.0-232.0-0.0","864.3000000119209","","","","51","0,1,1","4","city","183","probe-120","0.18352874339894093","0.5074788514808153","0.6198753715086841","1","","","","","",""
"","do_trial","257","1452943","0.0-233.0-0.0","1432.8999999761581","","","","51","1,1,1","4","city","184","probe-76","0.0935587756869839","0.4951671111674605","0.7360804888969436","1","","","","","",""
"","do_trial","258","1461062","0.0-234.0-0.0","2563.5","","","","51","1,1,1","4","city","185","probe-83","0.0617507311426734","0.5024755842901654","0.86249548513245","1","","","","","",""
"","do_trial","259","1467122","0.0-235.0-0.0","null","","","","null","0,1,0","4","city","186","probe-82","0.07587202884341825","0.5003249443346446","0.753710780092521","","","","","","",""
"","do_trial","260","1474197","0.0-236.0-0.0","1518.9000000059605","","","","51","0,1,1","4","city","187","probe-17","0.14960923776984522","0.4877185453410556","0.7090395004515853","1","","","","","",""
"","do_trial","261","1481575","0.0-237.0-0.0","1823.5","","","","51","0,1,1","4","city","188","probe-25","0.12899627528863364","0.5647709607081635","0.6317191849351127","1","","","","","",""
"","do_trial","262","1488846","0.0-238.0-0.0","1713.8999999761581","","","","51","1,0,1","4","city","189","probe-90","0.10823742841953989","0.36845555222621956","0.7947719771400703","1","","","","","",""
"","do_trial","263","1496235","0.0-239.0-0.0","1835.199999988079","","","","51","0,1,1","4","city","190","probe-107","0.10652000271251463","0.4617549533343425","0.8610263542272157","1","","","","","",""
"","do_trial","264","1502780","0.0-240.0-0.0","990.5","","","","51","0,0,1","4","city","191","probe-12","0.10391947847148267","0.453069288930548","0.9404440328782242","1","","","","","",""
"","do_trial","265","1510170","0.0-241.0-0.0","1832.199999988079","","","","51","0,0,1","4","city","192","probe-24","0.05387889519191846","0.4468832810264241","0.9180417636349648","1","","","","","",""
"","do_trial","266","1516697","0.0-242.0-0.0","969.7999999821186","","","","51","0,0,1","4","city","193","probe-74","0.11870846168221715","0.47352383752416416","0.7848143114128329","1","","","","","",""
"","do_trial","267","1522753","0.0-243.0-0.0","null","","","","null","0,0,0","4","city","194","probe-226","0.1595251162058471","0.5407563475606492","0.8036244072692591","","","","","","",""
"","do_trial","268","1530447","0.0-244.0-0.0","2136.7000000178814","","","","51","0,0,1","4","city","195","probe-136","0.081974053992791","0.5076022650129618","0.5733678547212292","1","","","","","",""
"","do_trial","269","1537723","0.0-245.0-0.0","1722.5999999940395","","","","51","0,1,1","4","city","196","probe-38","0.1450310827244427","0.44594252817395513","0.7182279344446947","1","","","","","",""
"","do_trial","270","1543787","0.0-246.0-0.0","null","","","","null","0,1,1","4","city","197","probe-45","0.19389878006929603","0.3229112058981322","0.8304824431164336","","","","","","",""
"","do_trial","271","1550986","0.0-247.0-0.0","1641.4000000059605","","","","51","0,1,1","4","city","198","probe-73","0.19904582040682312","0.410287632317055","0.8495209563045522","1","","","","","",""
"","do_trial","272","1558875","0.0-248.0-0.0","2333.399999976158","","","","51","0,1,1","4","city","199","probe-118","0.10881237531296155","0.4339011803420848","0.8410535257241304","1","","","","","",""
"","do_bye","273","1560385","0.0-249.0-0.0","null","","","","null","","","","","","","","","","","","","","",""
"","do_travel","274","1566393","0.0-250.0-0.0","null","","","","null","","","","","","","","","","","","","","",""
"","do_welcome","275","1567905","0.0-250.0-1.0","null","","","","null","","","","","","","","","","","","","","",""
"","do_trial","276","1573803","0.0-251.0-0.0","345","","","","49","0,1,1","5","forest","200","probe-105","0.12373874884972359","0.3774377598876","1","0","","","","","",""
"","do_trial","277","1579883","0.0-252.0-0.0","526.0999999940395","","","","50","0,0,1","5","forest","201","probe-32","0.23774921154153114","0.3452967319208427","1","0","","","","","",""
"","do_trial","278","1585976","0.0-253.0-0.0","540.2999999821186","","","","51","0,0,1","5","forest","202","probe-172","0.09473054385375748","0.2471011305044685","1","1","","","","","",""
"","do_trial","279","1592475","0.0-254.0-0.0","937","","","","51","0,0,1","5","forest","203","probe-68","0.08575616426396385","0.24283891621485676","1","1","","","","","",""
"","do_trial","280","1598972","0.0-255.0-0.0","950","","","","51","0,0,1","5","forest","204","probe-09","0.060412957793132466","0.15050443586002493","0.8410053910792331","1","","","","","",""
"","do_trial","281","1605289","0.0-256.0-0.0","762.7999999821186","","","","51","1,0,1","5","forest","205","probe-197","0.10369488061911858","0.19696471050020775","0.7229308982486193","1","","","","","",""
"","do_trial","282","1612271","0.0-257.0-0.0","1429.7999999821186","","","","51","0,1,1","5","forest","206","probe-22","0.06010747971312332","0.2842558466075277","0.7507066846014224","1","","","","","",""
"","do_trial","283","1619878","0.0-258.0-0.0","2050.5999999940395","","","","51","0,1,0","5","forest","207","probe-217","0.07963786604249422","0.3323251858747389","0.8221648574768469","0","","","","","",""
"","do_trial","284","1627066","0.0-259.0-0.0","1630.9000000059605","","","","51","0,0,0","5","forest","208","probe-240","0.2292118248461312","0.30843317462882075","0.7009103203635979","0","","","","","",""
"","do_trial","285","1634497","0.0-260.0-0.0","1872.699999988079","","","","50","0,0,0","5","forest","209","probe-131","0.15241029315797688","0.3515713005708274","0.7532131024840262","0","","","","","",""
"","do_trial","286","1642743","0.0-261.0-0.0","2687.9000000059605","","","","50","0,1,1","5","forest","210","probe-88","0.07029084787774387","0.5445218863384832","0.6177467805025324","1","","","","","",""
"","do_trial","287","1648896","0.0-262.0-0.0","594.7999999821186","","","","50","0,1,1","5","forest","211","probe-98","0.06983233831340656","0.5271793025094037","0.5922737984866683","1","","","","","",""
"","do_trial","288","1655029","0.0-263.0-0.0","578.4000000059605","","","","50","0,1,0","5","forest","212","probe-64","0.052542728797322726","0.8254239044299387","0.5501809822160882","1","","","","","",""
"","do_trial","289","1661085","0.0-264.0-0.0","null","","","","null","0,1,1","5","forest","213","probe-47","0.17164607463795126","0.9157742719723246","0.5588582022927034","","","","","","",""
"","do_trial","290","1667069","0.0-265.0-0.0","427.59999999403954","","","","50","1,0,0","5","forest","214","probe-140","0.09647250522490065","0.7451772933291292","0.5944616086242378","0","","","","","",""
"","do_trial","291","1673020","0.0-266.0-0.0","393.80000001192093","","","","49","0,1,1","5","forest","215","probe-186","0.10467365057006324","0.75373404990325","0.5553782344690682","0","","","","","",""
"","do_trial","292","1678951","0.0-267.0-0.0","376.80000001192093","","","","51","0,1,0","5","forest","216","probe-02","0.21647323484012693","0.7784227797897344","0.6097302212340475","0","","","","","",""
"","do_trial","293","1685003","0.0-268.0-0.0","493.80000001192093","","","","49","0,1,1","5","forest","217","probe-100","0.14877609627430757","0.8527800921447333","0.5870977897625856","0","","","","","",""
"","do_trial","294","1690889","0.0-269.0-0.0","329.59999999403954","","","","50","0,1,1","5","forest","218","probe-94","0.06844095938320027","0.6256536835452678","0.6227187732420004","1","","","","","",""
"","do_trial","295","1697572","0.0-270.0-0.0","1127.2999999821186","","","","50","0,0,0","5","forest","219","probe-85","0.08622656537925064","0.636250073212683","0.5940548915094582","0","","","","","",""
"","do_trial","296","1703745","0.0-271.0-0.0","613.5999999940395","","","","51","0,1,1","5","forest","220","probe-188","0.1623205604772793","0.7070790955252235","0.520628257319716","1","","","","","",""
"","do_trial","297","1710081","0.0-272.0-0.0","780.1000000238419","","","","51","0,0,1","5","forest","221","probe-203","0.0742281516667518","0.7038279967668418","0.43947822737765907","1","","","","","",""
"","do_trial","298","1716159","0.0-273.0-0.0","521.5","","","","51","1,1,1","5","forest","222","probe-219","0.18333154408657465","0.6592611673327669","0.3657154928504856","1","","","","","",""
"","do_trial","299","1724374","0.0-274.0-0.0","2663","","","","51","0,0,0","5","forest","223","probe-224","0.10401687535645515","0.654271594409964","0.35804153601813776","0","","","","","",""
"","do_trial","300","1731382","0.0-275.0-0.0","1450.9000000059605","","","","51","1,1,0","5","forest","224","probe-72","0.10208344315651248","0.7174822442606918","0.34909964834412016","0","","","","","",""
"","do_trial","301","1738727","0.0-276.0-0.0","1789.8999999761581","","","","50","0,0,0","5","forest","225","probe-119","0.07920801933280819","0.8215688409707969","0.2910526036168581","0","","","","","",""
"","do_trial","302","1745260","0.0-277.0-0.0","976","","","","49","0,1,0","5","forest","226","probe-126","0.11566462726732922","0.6693481535449419","0.31363118254821776","0","","","","","",""
"","do_trial","303","1751607","0.0-278.0-0.0","794.0999999940395","","","","51","0,1,1","5","forest","227","probe-23","0.09551743541440239","0.8941858232282687","0.21153532255754465","1","","","","","",""
"","do_trial","304","1758992","0.0-279.0-0.0","1820.199999988079","","","","51","0,1,0","5","forest","228","probe-132","0.07357323384019879","0.8108881350004025","0.38227053755724527","0","","","","","",""
"","do_trial","305","1765097","0.0-280.0-0.0","547.5","","","","49","0,0,0","5","forest","229","probe-150","0.11191624175435286","0.799461255525879","0.5277121643784344","0","","","","","",""
"","do_trial","306","1771945","0.0-281.0-0.0","1293.199999988079","","","","51","0,0,1","5","forest","230","probe-14","0.20653461151988864","0.8104173985578592","0.42229962915645547","1","","","","","",""
"","do_trial","307","1778004","0.0-282.0-0.0","null","","","","null","0,1,1","5","forest","231","probe-160","0.09715665115910412","0.7821866778312461","0.30624430572479827","","","","","","",""
"","do_trial","308","1785461","0.0-283.0-0.0","1901","","","","51","0,0,1","5","forest","232","probe-91","0.050754401746859974","0.6807887324407587","0.3415997984369602","1","","","","","",""
"","do_trial","309","1792889","0.0-284.0-0.0","1873.5","","","","51","1,1,0","5","forest","233","probe-176","0.08214790115067958","0.8609781934842894","0.37419796211542206","0","","","","","",""
"","do_trial","310","1800259","0.0-285.0-0.0","1813.5","","","","51","0,1,1","5","forest","234","probe-37","0.1760354973027786","0.8597204821281328","0.2931412433333613","1","","","","","",""
"","do_trial","311","1807032","0.0-286.0-0.0","1215.1000000238419","","","","51","0,0,1","5","forest","235","probe-181","0.17017646028785552","0.7547372436394959","0.2876408201873682","1","","","","","",""
"","do_trial","312","1813873","0.0-287.0-0.0","1286.1000000238419","","","","51","0,1,1","5","forest","236","probe-13","0.20236548221733885","0.6037459598985467","0.39518235034918997","1","","","","","",""
"","do_trial","313","1820513","0.0-288.0-0.0","1082.699999988079","","","","51","1,0,1","5","forest","237","probe-222","0.2114510850778703","0.6876656917971657","0.43510881006617685","1","","","","","",""
"","do_trial","314","1826811","0.0-289.0-0.0","742.0999999940395","","","","51","1,0,0","5","forest","238","probe-39","0.18751977560686647","0.7199084284787232","0.23483859471042023","0","","","","","",""
"","do_trial","315","1833276","0.0-290.0-0.0","907.3999999761581","","","","50","1,1,0","5","forest","239","probe-112","0.21289747713975146","0.7549962865035234","0.15978663646546196","1","","","","","",""
"","do_bye","316","1834788","0.0-291.0-0.0","null","","","","null","","","","","","","","","","","","","","",""
"","html-keyboard-response","317","1841054","0.0-291.0-1.0","6265.199999988079","<div class='center'><p>You may take a break now!</p><p> Stretch for a little bit. Get a glass of water.</p><p> You have two minutes to rest. Then, the game will automatically move on.</p><p>If you’d like to get started on the second half of the experiment sooner, then press the <b>space bar</b></p></div>","32","","","","","","","","","","","","","","","","",""
"","html-keyboard-response","318","1848653","0.0-291.0-2.0","7598.0999999940395","<div class='center'><p>You’ve arrived at the final destination of your journey! Unfortunately, it’s very foggy out, so you won’t be able to see it in the distance like in previous places you've visited.</p><p>You’ll still be deciding which pirates you want to rob ships. However, because of the fog you also won’t be able to see the ship in the distance. </p><p><b>[Press the space bar to continue]</b></p></div>","32","","","","","","","","","","","","","","","","",""
"","html-keyboard-response","319","1875288","0.0-291.0-3.0","26632.59999999404","<div class='center'><p> Sometimes you’ll be asked if you’ve seen a ship before (see the example below). You will use the 5, 6, 7, 8 buttons on your keyboard to respond. </p><p> If you definitely did not see the ship, pick the the big red thumbs down by pressing <b>5</b>.</p><p> If you don’t think you saw it but aren’t sure, then pick the small red thumbs down by pressing <b>6</b>.</p><p> If you think you might have seen it, then pick the small green thumbs up by pressing <b>7</b>.</p><p> If you definitely did see this ship before, then pick the big thumb green thumbs up by pressing <b>8</b>.</p><p> If you recall correctly, then you’ll get a gold coin!</p><p><b>[Press the space bar to begin the next phase of the experiment]</b></p><p><img src='run_exp/static/images/example_recog_trial.png' height='500'></p></div>","32","","","","","","","","","","","","","","","","",""
"","do_welcome","320","1876797","0.0-291.0-4.0","null","","","","null","","","","","","","","","","","","","","",""
"","do_trial","321","1882472","0.0-292.0-0.0","2114.899999976158","","","","51","0,1,0","6","blank","240","null","0.18512226841673568","1","0.1454958963053457","0","","","","","",""
"","do_trial","322","1888389","0.0-293.0-0.0","2359.199999988079","","","","50","0,1,0","6","blank","241","null","0.12840938762392326","0.8370279309289554","0.20109485100552058","1","","","","","",""
"","do_trial","323","1894321","0.0-294.0-0.0","2376.800000011921","","","","50","1,1,0","6","blank","242","null","0.20881176759028044","0.7049168414334319","0.31037031808607085","1","","","","","",""
"","do_recog","324","1900337","0.0-295.0-0.0","null","","","","null","","","","243","probe-257","","","","","0","[object Object]","null","null","0",""
"","do_trial","325","1906625","0.0-296.0-0.0","2735.5999999940395","","","","50","0,1,1","6","blank","244","null","0.1483030741616048","0.7572373944056275","0.3299169097736216","1","","","","","",""
"","do_trial","326","1912681","0.0-297.0-0.0","null","","","","null","0,1,1","6","blank","245","null","0.16383994795206008","0.7647725769590639","0.359832930040711","","","","","","",""
"","do_trial","327","1917135","0.0-298.0-0.0","897.3000000119209","","","","50","0,1,0","6","blank","246","null","0.14050564280151887","0.8678856414524581","0.347522452286095","1","","","","","",""
"","do_recog","328","1921746","0.0-299.0-0.0","3099.300000011921","","","","53","","","","247","probe-143","","","","","1","[object Object]","47","1","0",""
"","do_trial","329","1926883","0.0-300.0-0.0","1572.199999988079","","","","50","0,0,1","6","blank","248","null","0.05205927972951197","0.7821641784408666","0.44546151222111335","0","","","","","",""
"","do_recog","330","1931942","0.0-301.0-0.0","3545.2999999821186","","","","56","","","","249","probe-106","","","","","1","[object Object]","82","2","1",""
"","do_trial","331","1938000","0.0-302.0-0.0","null","","","","null","0,1,1","6","blank","250","null","0.16845373943070563","0.8872804595417649","0.6096289173772271","","","","","","",""
"","do_trial","332","1942458","0.0-303.0-0.0","901.7999999821186","","","","50","0,1,0","6","blank","251","null","0.052894452641725175","0.7854294897485364","0.43416929755796463","1","","","","","",""
"","do_trial","333","1948314","0.0-304.0-0.0","2298.0999999940395","","","","50","0,1,0","6","blank","252","null","0.05369728865477539","0.702482003529628","0.38317677957362406","1","","","","","",""
"","do_trial","334","1953351","0.0-305.0-0.0","1479.199999988079","","","","50","1,1,1","6","blank","253","null","0.155097766803318","0.5897275247919636","0.6105099254971047","1","","","","","",""
"","do_trial","335","1957754","0.0-306.0-0.0","847.4000000059605","","","","50","0,0,1","6","blank","254","null","0.26947411998225607","0.34301380881030424","0.6838171319351051","0","","","","","",""
"","do_recog","336","1962475","0.0-307.0-0.0","3207.699999988079","","","","56","","","","255","probe-48","","","","","1","[object Object]","87","2","1",""
"","do_trial","337","1967677","0.0-308.0-0.0","1641.8999999761581","","","","50","0,0,0","6","blank","256","null","0.090279135757836","0.36389333666112555","0.9094290710932955","0","","","","","",""
"","do_recog","338","1970694","0.0-309.0-0.0","1508.5","","","","56","","","","257","probe-241","","","","","0","[object Object]","null","null","0",""
"","do_trial","339","1975322","0.0-310.0-0.0","1074.9000000059605","","","","51","0,0,1","6","blank","258","null","0.0792431195819175","0.454697930063052","0.9172843874682499","1","","","","","",""
"","do_recog","340","1978336","0.0-311.0-0.0","1503.5999999940395","","","","56","","","","259","probe-141","","","","","1","[object Object]","163","4","1",""
"","do_trial","341","1983186","0.0-312.0-0.0","1295.4000000059605","","","","51","0,0,1","6","blank","260","null","0.07031230103257713","0.3985074684246011","0.8913693623133003","1","","","","","",""
"","do_recog","342","1985723","0.0-313.0-0.0","1025.7999999821186","","","","56","","","","261","probe-177","","","","","1","[object Object]","169","4","1",""
"","do_trial","343","1989852","0.0-314.0-0.0","575","","","","51","0,0,0","6","blank","262","null","0.05944033291532444","0.3682781209961487","0.8774955361056573","0","","","","","",""
"","do_trial","344","1994108","0.0-315.0-0.0","700.3999999761581","","","","50","0,0,1","6","blank","263","null","0.09905515190682461","0.3308484087505037","0.7876450031774589","0","","","","","",""
"","do_trial","345","1998024","0.0-316.0-0.0","356.39999997615814","","","","49","1,0,1","6","blank","264","null","0.1308407848260474","0.3269268932667867","0.7459636966045301","1","","","","","",""
"","do_recog","346","2000660","0.0-317.0-0.0","1125","","","","56","","","","265","probe-197","","","","","1","[object Object]","205","5","1",""
"","do_trial","347","2005239","0.0-318.0-0.0","1020","","","","49","0,1,1","6","blank","266","null","0.15627885092902372","0.4040473797059272","0.6076296879428261","0","","","","","",""
"","do_trial","348","2009135","0.0-319.0-0.0","338.69999998807907","","","","51","0,0,1","6","blank","267","null","0.06209084044179879","0.4947068446622703","0.7335259491582129","1","","","","","",""
"","do_trial","349","2013474","0.0-320.0-0.0","781.6999999880791","","","","51","0,0,1","6","blank","268","null","0.08955332547552322","0.4743460089342294","0.6555562864803679","1","","","","","",""
"","do_trial","350","2018393","0.0-321.0-0.0","1364.300000011921","","","","51","0,1,1","6","blank","269","null","0.08078200031586615","0.530203499081671","0.8392336699791202","1","","","","","",""
"","do_trial","351","2023728","0.0-322.0-0.0","1772.5","","","","51","0,0,1","6","blank","270","null","0.08029876237364313","0.5180389248781938","0.7782707381850356","1","","","","","",""
"","do_trial","352","2028134","0.0-323.0-0.0","847.0999999940395","","","","51","0,1,1","6","blank","271","null","0.12784448344130225","0.3823203580752534","0.7948914333938569","1","","","","","",""
"","do_recog","353","2031861","0.0-324.0-0.0","2212.5999999940395","","","","53","","","","272","probe-41","","","","","1","[object Object]","125","3","0",""
"","do_trial","354","2036456","0.0-325.0-0.0","1037.800000011921","","","","51","0,0,1","6","blank","273","null","0.09223564809534927","0.3109725705557213","0.9348491719010378","1","","","","","",""
"","do_recog","355","2039969","0.0-326.0-0.0","2001.4000000059605","","","","56","","","","274","probe-148","","","","","1","[object Object]","168","4","1",""
"","do_trial","356","2045500","0.0-327.0-0.0","1972.300000011921","","","","51","1,0,1","6","blank","275","null","0.17497777050649518","0.38676226342252307","0.9257181791420375","1","","","","","",""
"","do_trial","357","2051091","0.0-328.0-0.0","2033.5","","","","51","0,1,1","6","blank","276","null","0.31061318900785784","0.37690708096992515","0.7687009244593408","1","","","","","",""
"","do_recog","358","2054987","0.0-329.0-0.0","2382.800000011921","","","","53","","","","277","probe-32","","","","","1","[object Object]","201","5","0",""
"","do_trial","359","2061042","0.0-330.0-0.0","null","","","","null","0,0,1","6","blank","278","null","0.2402809711888548","0.3031581277781975","0.7875844811271621","","","","","","",""
"","do_trial","360","2065771","0.0-331.0-0.0","1175","","","","51","0,0,1","6","blank","279","null","0.14251528585104412","0.3359631629431438","0.8236368348585529","1","","","","","",""
"","do_trial","361","2071667","0.0-332.0-0.0","2340.800000011921","","","","51","0,1,1","6","blank","280","null","0.06593537119875024","0.3779468912185881","0.8328256792883673","1","","","","","",""
"","do_trial","362","2076216","0.0-333.0-0.0","991.5","","","","51","0,1,1","6","blank","281","null","0.16541541516338457","0.4881824943882322","1","1","","","","","",""
"","do_recog","363","2079137","0.0-334.0-0.0","1406.300000011921","","","","54","","","","282","probe-86","","","","","1","[object Object]","84","2","0",""
"","do_trial","364","2083652","0.0-335.0-0.0","963.5","","","","51","0,0,1","6","blank","283","null","0.09365415910293091","0.4595510072986164","0.8801433536699803","1","","","","","",""
"","do_recog","365","2086639","0.0-336.0-0.0","1472.7999999821186","","","","56","","","","284","probe-179","","","","","1","[object Object]","48","1","1",""
"","do_trial","366","2091021","0.0-337.0-0.0","829.1999999880791","","","","51","0,0,1","6","blank","285","null","0.062351804280667625","0.38284790046142647","0.8474530876596634","1","","","","","",""
"","do_recog","367","2093658","0.0-338.0-0.0","1127.300000011921","","","","55","","","","286","probe-195","","","","","1","[object Object]","42","1","1",""
"","do_trial","368","2098542","0.0-339.0-0.0","1325.9000000059605","","","","51","0,0,1","6","blank","287","null","0.05417482449259979","0.2904054044035798","0.8047299138722014","1","","","","","",""
"","do_recog","369","2101399","0.0-340.0-0.0","1348","","","","56","","","","288","probe-196","","","","","1","[object Object]","43","1","1",""
"","do_trial","370","2106053","0.0-341.0-0.0","1100.300000011921","","","","51","0,0,1","6","blank","289","null","0.09670189619855821","0.3538509038509103","0.9088570575931553","1","","","","","",""
"","do_recog","371","2108376","0.0-342.0-0.0","808.7000000178814","","","","53","","","","290","probe-247","","","","","0","[object Object]","null","null","1",""
"","do_trial","372","2112423","0.0-343.0-0.0","490.09999999403954","","","","51","0,0,0","6","blank","291","null","0.19325119866285703","0.34421784150657675","0.7663033694252355","0","","","","","",""
"","do_trial","373","2116323","0.0-344.0-0.0","347.09999999403954","","","","50","0,1,1","6","blank","292","null","0.12125984783226428","0.47562876745239957","0.7544298182420001","1","","","","","",""
"","do_recog","374","2119339","0.0-345.0-0.0","1506.9000000059605","","","","56","","","","293","probe-185","","","","","1","[object Object]","88","2","1",""
"","do_trial","375","2124029","0.0-346.0-0.0","1132.9000000059605","","","","51","0,0,0","6","blank","294","null","0.13054137528718632","0.44153906785308067","0.7525841118884594","0","","","","","",""
"","do_trial","376","2128052","0.0-347.0-0.0","465.90000000596046","","","","49","0,0,1","6","blank","295","null","0.09265802650303429","0.5880053699050735","0.790623567814011","0","","","","","",""
"","do_trial","377","2132004","0.0-348.0-0.0","393.09999999403954","","","","50","0,0,1","6","blank","296","null","0.07100914140053764","0.5349489505223641","0.852679940021182","0","","","","","",""
"","do_recog","378","2134856","0.0-349.0-0.0","1338.7000000178814","","","","56","","","","297","probe-77","","","","","1","[object Object]","129","3","1",""
"","do_trial","379","2139006","0.0-350.0-0.0","594.9000000059605","","","","51","0,0,1","6","blank","298","null","0.10119216972220084","0.5854601793830531","0.8297589962493538","1","","","","","",""
"","do_trial","380","2144286","0.0-351.0-0.0","1723.0999999940395","","","","51","1,1,1","6","blank","299","null","0.23838222967340617","0.4741226302702407","0.8642579793592751","1","","","","","",""
"","do_trial","381","2148220","0.0-352.0-0.0","372.30000001192093","","","","51","0,1,0","6","blank","300","null","0.46130872200371154","0.4025762812593981","0.5694746779522942","0","","","","","",""
"","do_trial","382","2152178","0.0-353.0-0.0","403.10000002384186","","","","51","1,1,0","6","blank","301","null","0.7400359504822832","0.36109173891562224","0.40638240584729646","0","","","","","",""
"","do_recog","383","2155209","0.0-354.0-0.0","1519.3999999761581","","","","56","","","","302","probe-183","","","","","1","[object Object]","123","3","1",""
"","do_trial","384","2159118","0.0-355.0-0.0","354.60000002384186","","","","50","0,0,0","6","blank","303","null","0.8469220613850484","0.26838200531410566","0.23977316814354957","0","","","","","",""
"","do_trial","385","2163091","0.0-356.0-0.0","414.59999999403954","","","","49","1,1,0","6","blank","304","null","0.7359089544449179","0.3619058019322197","0.2768008996270432","1","","","","","",""
"","do_recog","386","2166472","0.0-357.0-0.0","1872.5","","","","53","","","","305","probe-09","","","","","1","[object Object]","204","5","0",""
"","do_trial","387","2171172","0.0-358.0-0.0","1144.4000000059605","","","","51","1,0,0","6","blank","306","null","0.887348374329424","0.30117451765851305","0.08378600029501877","0","","","","","",""
"","do_recog","388","2173717","0.0-359.0-0.0","1031.2000000178814","","","","54","","","","307","probe-166","","","","","1","[object Object]","165","4","0",""
"","do_trial","389","2178190","0.0-360.0-0.0","916.2999999821186","","","","49","1,0,0","6","blank","308","null","0.9385848016057345","0.23086218528511104","0.1605011485235942","1","","","","","",""
"","do_recog","390","2180852","0.0-361.0-0.0","1148.0999999940395","","","","56","","","","309","probe-110","","","","","1","[object Object]","46","1","1",""
"","do_trial","391","2185208","0.0-362.0-0.0","798.3000000119209","","","","50","1,1,1","6","blank","310","null","0.901829685785087","0.3662556242202858","0.33496688717721257","1","","","","","",""
"","do_recog","392","2189658","0.0-363.0-0.0","2940.4000000059605","","","","55","","","","311","probe-33","","","","","1","[object Object]","127","3","1",""
"","do_trial","393","2193884","0.0-364.0-0.0","671.8999999761581","","","","51","1,1,1","6","blank","312","null","0.9159754000366345","0.501441182452953","0.15015722078870788","1","","","","","",""
"","do_trial","394","2198359","0.0-365.0-0.0","918.1000000238419","","","","50","0,0,0","6","blank","313","null","0.7813368055204837","0.4714332073044548","0.1710708417479951","0","","","","","",""
"","do_recog","395","2201818","0.0-366.0-0.0","1949.300000011921","","","","55","","","","314","probe-36","","","","","1","[object Object]","122","3","1",""
"","do_trial","396","2206295","0.0-367.0-0.0","918.9000000059605","","","","49","1,0,1","6","blank","315","null","0.9102037740948203","0.3492332595373905","0.23343467622279243","1","","","","","",""
"","do_recog","397","2209263","0.0-368.0-0.0","1454.5999999940395","","","","55","","","","316","probe-67","","","","","1","[object Object]","126","3","1",""
"","do_trial","398","2213337","0.0-369.0-0.0","516","","","","51","1,0,0","6","blank","317","null","0.778712122294725","0.38104233230499435","0.14786999258671055","0","","","","","",""
"","do_trial","399","2217202","0.0-370.0-0.0","306.2999999821186","","","","50","0,1,0","6","blank","318","null","0.8096946732683006","0.49523621865876155","0.1027964592437663","1","","","","","",""
"","do_trial","400","2221740","0.0-371.0-0.0","979.6999999880791","","","","50","1,0,0","6","blank","319","null","0.758708688457307","0.43016390974479024","0.1442396768802509","0","","","","","",""
"","do_trial","401","2225651","0.0-372.0-0.0","355.89999997615814","","","","51","1,0,0","6","blank","320","null","0.8595099422521058","0.358577191578607","0.07211893817798319","0","","","","","",""
"","do_recog","402","2228735","0.0-373.0-0.0","1570","","","","55","","","","321","probe-205","","","","","1","[object Object]","164","4","1",""
"","do_trial","403","2232992","0.0-374.0-0.0","699.3000000119209","","","","51","1,1,0","6","blank","322","null","0.7720206868693936","0.3602800094074894","0.11787263556679144","0","","","","","",""
"","do_recog","404","2235829","0.0-375.0-0.0","1324.300000011921","","","","56","","","","323","probe-246","","","","","0","[object Object]","null","null","0",""
"","do_trial","405","2239944","0.0-376.0-0.0","561.7000000178814","","","","50","1,0,0","6","blank","324","null","0.8741173429531807","0.41164329517099013","0.07831335780746042","0","","","","","",""
"","do_recog","406","2243164","0.0-377.0-0.0","1708.6000000238419","","","","56","","","","325","probe-55","","","","","1","[object Object]","121","3","1",""
"","do_trial","407","2247614","0.0-378.0-0.0","891.8000000119209","","","","50","1,0,0","6","blank","326","null","0.9325927927287182","0.326648678765641","0.11269471927129891","0","","","","","",""
"","do_trial","408","2251635","0.0-379.0-0.0","467.80000001192093","","","","51","1,0,0","6","blank","327","null","0.9050485084852116","0.43685523402414983","0.11072068423514896","0","","","","","",""
"","do_trial","409","2255600","0.0-380.0-0.0","410.40000000596046","","","","49","1,0,0","6","blank","328","null","1","0.4046991731837568","0.06751307770052015","1","","","","","",""
"","do_recog","410","2258402","0.0-381.0-0.0","1288.5999999940395","","","","56","","","","329","probe-254","","","","","0","[object Object]","null","null","0",""
"","do_trial","411","2263470","0.0-382.0-0.0","1513.7000000178814","","","","51","0,0,0","6","blank","330","null","0.8379289889698674","0.28984038677842977","0.11165777596777524","0","","","","","",""
"","do_recog","412","2269490","0.0-383.0-0.0","5652.4000000059605","","","","56","","","","331","probe-172","","","","","1","[object Object]","202","5","1",""
"","do_trial","413","2273955","0.0-384.0-0.0","912.5999999940395","","","","50","1,1,0","6","blank","332","null","0.8129006574760793","0.40292136529472294","0.05899565825758101","1","","","","","",""
"","do_recog","414","2278425","0.0-385.0-0.0","2956.2999999821186","","","","56","","","","333","probe-251","","","","","0","[object Object]","null","null","0",""
"","do_trial","415","2282668","0.0-386.0-0.0","685.5","","","","50","1,0,0","6","blank","334","null","0.9018359973920862","0.3672611580546699","0.20382630790387177","0","","","","","",""
"","do_recog","416","2285810","0.0-387.0-0.0","1631.7999999821186","","","","55","","","","335","probe-22","","","","","1","[object Object]","206","5","1",""
"","do_trial","417","2290765","0.0-388.0-0.0","1402.3999999761581","","","","49","1,0,0","6","blank","336","null","0.7224380837256804","0.40656155147725215","0.2690695565893529","1","","","","","",""
"","do_recog","418","2293498","0.0-389.0-0.0","1219.7999999821186","","","","56","","","","337","probe-178","","","","","1","[object Object]","124","3","1",""
"","do_trial","419","2297717","0.0-390.0-0.0","662","","","","51","0,0,0","6","blank","338","null","0.729023212782869","0.18925635073753708","0.29401528889083195","0","","","","","",""
"","do_trial","420","2302110","0.0-391.0-0.0","835.5","","","","50","1,1,0","6","blank","339","null","0.7020059473226475","0.389281171975725","0.2274716691078182","1","","","","","",""
"","do_trial","421","2307193","0.0-392.0-0.0","1521.2999999821186","","","","51","1,1,0","6","blank","340","null","0.727239171592137","0.2789873421678082","0.2689239992089314","0","","","","","",""
"","do_recog","422","2310211","0.0-393.0-0.0","1508.4000000059605","","","","56","","","","341","probe-133","","","","","1","[object Object]","120","3","1",""
"","do_trial","423","2314373","0.0-394.0-0.0","609.1999999880791","","","","50","1,0,0","6","blank","342","null","0.8584191258520947","0.3000922305895738","0.1874912229928626","0","","","","","",""
"","do_recog","424","2317220","0.0-395.0-0.0","1334.5999999940395","","","","55","","","","343","probe-131","","","","","1","[object Object]","209","5","1",""
"","do_trial","425","2321353","0.0-396.0-0.0","577.5999999940395","","","","49","1,1,0","6","blank","344","null","0.7776129122872217","0.2810235383763532","0.18050880574240757","1","","","","","",""
"","do_trial","426","2326791","0.0-397.0-0.0","1879.9000000059605","","","","49","1,0,0","6","blank","345","null","0.6609568477987144","0.39827812443039157","0.19776860299858784","1","","","","","",""
"","do_trial","427","2332278","0.0-398.0-0.0","1931.4000000059605","","","","51","1,0,0","6","blank","346","null","0.495810480937173","0.5524384712684743","0.2283116850915424","0","","","","","",""
"","do_trial","428","2336232","0.0-399.0-0.0","395.7999999821186","","","","49","0,1,1","6","blank","347","null","0.5309685327334323","0.6518521016838497","0.21679450363656294","0","","","","","",""
"","do_trial","429","2340138","0.0-400.0-0.0","353","","","","50","1,1,0","6","blank","348","null","0.5229691610798897","0.7074545262682331","0.08080755089898803","1","","","","","",""
"","do_recog","430","2342939","0.0-401.0-0.0","1286.7000000178814","","","","56","","","","349","probe-105","","","","","1","[object Object]","200","5","1",""
"","do_trial","431","2347092","0.0-402.0-0.0","596.3000000119209","","","","50","1,1,0","6","blank","350","null","0.5788280988662845","0.7515081656266961","0.12724400510807105","1","","","","","",""
"","do_recog","432","2349964","0.0-403.0-0.0","1360.2000000178814","","","","56","","","","351","probe-128","","","","","1","[object Object]","41","1","1",""
"","do_trial","433","2354354","0.0-404.0-0.0","836.4000000059605","","","","50","1,1,0","6","blank","352","null","0.6192965626489327","0.8246885664050074","0.05864367654707806","1","","","","","",""
"","do_trial","434","2359238","0.0-405.0-0.0","1328.7000000178814","","","","50","1,0,1","6","blank","353","null","0.3899885253523739","0.8129210704738141","0.07525694499916456","0","","","","","",""
"","do_trial","435","2363513","0.0-406.0-0.0","720.5","","","","51","0,1,0","6","blank","354","null","0.40903505305972154","0.8436927068037184","0.1382423916174016","0","","","","","",""
"","do_trial","436","2367602","0.0-407.0-0.0","535.9000000059605","","","","49","1,1,0","6","blank","355","null","0.46833327175164285","0.8512143928899828","0.18931382344923428","1","","","","","",""
"","do_trial","437","2371812","0.0-408.0-0.0","649.4000000059605","","","","49","1,1,1","6","blank","356","null","0.6353719790685256","0.8754781917356401","0.24452543653190617","1","","","","","",""
"","do_recog","438","2374573","0.0-409.0-0.0","1247","","","","55","","","","357","probe-139","","","","","1","[object Object]","45","1","1",""
"","do_trial","439","2378857","0.0-410.0-0.0","727","","","","50","0,1,0","6","blank","358","null","0.5443395798712433","0.9211468701566514","0.32729782179233075","1","","","","","",""
"","do_trial","440","2384867","0.0-411.0-0.0","2454.100000023842","","","","51","0,1,1","6","blank","359","null","0.3608294365977936","0.9486903318373586","0.3775139515448312","1","","","","","",""
"","do_recog","441","2388168","0.0-412.0-0.0","1786.5999999940395","","","","56","","","","360","probe-28","","","","","1","[object Object]","85","2","1",""
"","do_trial","442","2392682","0.0-413.0-0.0","960.3000000119209","","","","51","0,1,0","6","blank","361","null","0.4386611466476794","0.89999512149058","0.22327630418596042","0","","","","","",""
"","do_trial","443","2396724","0.0-414.0-0.0","491","","","","50","0,1,0","6","blank","362","null","0.3060292852666144","0.7610775118450116","0.09878757577586138","1","","","","","",""
"","do_recog","444","2399677","0.0-415.0-0.0","1439","","","","55","","","","363","probe-238","","","","","1","[object Object]","80","2","1",""
"","do_trial","445","2404581","0.0-416.0-0.0","1348.0999999940395","","","","51","0,1,0","6","blank","364","null","0.32488825249877684","0.8320933836761373","0.13616575956982252","0","","","","","",""
"","do_recog","446","2407577","0.0-417.0-0.0","1482.2000000178814","","","","56","","","","365","probe-228","","","","","1","[object Object]","49","1","1",""
"","do_trial","447","2412150","0.0-418.0-0.0","1014.4000000059605","","","","50","0,1,0","6","blank","366","null","0.45244393250042175","0.7816594788497753","0.0784882721143585","1","","","","","",""
"","do_recog","448","2416588","0.0-419.0-0.0","2928.9000000059605","","","","56","","","","367","probe-142","","","","","1","[object Object]","44","1","1",""
"","do_trial","449","2420877","0.0-420.0-0.0","742.6000000238419","","","","50","1,1,0","6","blank","368","null","0.3075805560778802","0.6322098849160642","0.1217724010625285","1","","","","","",""
"","do_recog","450","2426880","0.0-421.0-0.0","null","","","","null","","","","369","probe-68","","","","","1","[object Object]","203","5","0",""
"","do_trial","451","2432579","0.0-422.0-0.0","2154.300000011921","","","","50","0,0,0","6","blank","370","null","0.4046069339794658","0.6826169742875972","0.08258521980541703","0","","","","","",""
"","do_trial","452","2436562","0.0-423.0-0.0","432.40000000596046","","","","51","1,0,0","6","blank","371","null","0.4850454641369553","0.7285806741132204","0.08122974046091937","0","","","","","",""
"","do_trial","453","2440510","0.0-424.0-0.0","394.39999997615814","","","","49","1,1,0","6","blank","372","null","0.49109203720710864","0.7408101034955438","0.06639101567696383","1","","","","","",""
"","do_trial","454","2445303","0.0-425.0-0.0","1241.5","","","","51","1,1,1","6","blank","373","null","0.4325739928082943","1","0.07283848962827831","1","","","","","",""
"","do_trial","455","2449547","0.0-426.0-0.0","687.5","","","","51","1,0,1","6","blank","374","null","0.44649094870333755","0.8697112125442911","0.07439786134405339","1","","","","","",""
"","do_trial","456","2453742","0.0-427.0-0.0","639","","","","51","1,1,1","6","blank","375","null","0.4840169953613443","0.892584420937796","0.15042181801467686","1","","","","","",""
"","do_trial","457","2457958","0.0-428.0-0.0","661.9000000059605","","","","51","0,1,0","6","blank","376","null","0.3922680793724915","0.794858584707637","0.2345833710327615","0","","","","","",""
"","do_recog","458","2460803","0.0-429.0-0.0","1330.699999988079","","","","56","","","","377","probe-161","","","","","1","[object Object]","166","4","1",""
"","do_trial","459","2464857","0.0-430.0-0.0","497.7000000178814","","","","50","0,0,0","6","blank","378","null","0.45503496786300435","0.8096703056388522","0.11677810084471979","0","","","","","",""
"","do_recog","460","2467527","0.0-431.0-0.0","1160","","","","56","","","","379","probe-165","","","","","1","[object Object]","161","4","1",""
"","do_trial","461","2472245","0.0-432.0-0.0","1167.199999988079","","","","49","1,0,0","6","blank","380","null","0.41615764205517664","0.8079052083322726","0.09534862562155481","1","","","","","",""
"","do_recog","462","2474684","0.0-433.0-0.0","928.4000000059605","","","","56","","","","381","probe-231","","","","","1","[object Object]","81","2","1",""
"","do_trial","463","2478587","0.0-434.0-0.0","349.7000000178814","","","","51","0,1,0","6","blank","382","null","0.4247892312354482","0.7333199830120871","0.09943994794185981","0","","","","","",""
"","do_recog","464","2482181","0.0-435.0-0.0","2080.600000023842","","","","55","","","","383","probe-15","","","","","1","[object Object]","86","2","1",""
"","do_trial","465","2486726","0.0-436.0-0.0","991.6999999880791","","","","50","0,1,0","6","blank","384","null","0.32133426383914226","0.8406187787546336","0.06371478030763796","1","","","","","",""
"","do_recog","466","2489678","0.0-437.0-0.0","1438.2999999821186","","","","56","","","","385","probe-43","","","","","1","[object Object]","128","3","1",""
"","do_trial","467","2493653","0.0-438.0-0.0","418.40000000596046","","","","51","1,0,0","6","blank","386","null","0.3414548500149055","0.7867703624076948","0.1615514388414264","0","","","","","",""
"","do_trial","468","2497721","0.0-439.0-0.0","511.90000000596046","","","","49","1,1,1","6","blank","387","null","0.5033126287365712","0.9201271430174904","0.07431343080708104","1","","","","","",""
"","do_trial","469","2503136","0.0-440.0-0.0","1857.300000011921","","","","50","1,1,0","6","blank","388","null","0.6274501981951824","0.7675439550015044","0.12321798414846231","1","","","","","",""
"","do_trial","470","2507335","0.0-441.0-0.0","644.0999999940395","","","","51","0,1,0","6","blank","389","null","0.6078695777909605","0.6826785654617952","0.11043484382257131","0","","","","","",""
"","do_recog","471","2510182","0.0-442.0-0.0","1333","","","","56","","","","390","probe-115","","","","","1","[object Object]","83","2","1",""
"","do_trial","472","2514637","0.0-443.0-0.0","897.4000000059605","","","","51","1,0,1","6","blank","391","null","0.6679223063134612","0.5407450509430964","0.09336832775362275","1","","","","","",""
"","do_recog","473","2517475","0.0-444.0-0.0","1324.5","","","","56","","","","392","probe-217","","","","","1","[object Object]","207","5","1",""
"","do_trial","474","2521366","0.0-445.0-0.0","336.90000000596046","","","","51","1,0,0","6","blank","393","null","0.7508917348769327","0.5712403367539044","0.27128620803594716","0","","","","","",""
"","do_recog","475","2524217","0.0-446.0-0.0","1340.5","","","","55","","","","394","probe-210","","","","","1","[object Object]","89","2","1",""
"","do_trial","476","2528084","0.0-447.0-0.0","309.5","","","","49","1,0,0","6","blank","395","null","0.6179608417079041","0.5620093399722028","0.13082557862311675","1","","","","","",""
"","do_trial","477","2532335","0.0-448.0-0.0","698.2000000178814","","","","50","1,1,0","6","blank","396","null","0.6024314084593511","0.4390843782166791","0.08070743374483381","1","","","","","",""
