"success","trial_type","trial_index","time_elapsed","internal_node_id","rt","stimulus","key_press","subject_id","response","choice_outcomes","context_n","context_img_id","trial_n","probe_img_id","pR_red","pR_white","pR_black","outcome","is_valid","image_to_show","probed_trial","probed_context","correct","context_id"
"true","fullscreen","0","7119","0.0-0.0","","","","","","","","","","","","","","","","","","","",""
"","pavlovia","1","7124","0.0-1.0","","","","","","","","","","","","","","","","","","","",""
"","html-keyboard-response","2","30582","0.0-2.0","23458.000000000015","<div class='center'><p>Welcome! This experiment will last ~1 hour. In this experiment, you are the head captain of a pirate ship traveling around the world to different places. You will complete several different tasks during this experiment. Here is an overview of these tasks:</p><br><p>1. Tutorial and quiz</p><p>2. Pick a pirate game in 6 different places</p><p>3. Pick a pirate game and memory game</p><p>4. Final questions and payment</p><br><p>If you complete the entire experiment, you will receive $15 and a possible bonus payment.</p><p><b>[Press the space bar to begin the tutorial]</b></p></div>","32","613fb7bb37e9fd4f268e0dd5","","","","","","","","","","","","","","","",""
"","html-keyboard-response","3","42041","0.0-3.0","11457","<div class='center'><p>You are the head captain of a pirate ship.</p><p> Your pirates rob other ships as they leave the marketplace port.</p> These ships have just sold all their goods at the marketplace, so they have lots and lots of gold on them.</p><p><img src='run_exp/static/images/ship_center.png' height='400'></p><p><b>[Press the space bar to continue]</b></p></div>","32","","","","","","","","","","","","","","","","",""
"","html-keyboard-response","4","67662","0.0-4.0","25621","<div class='center'><p>As the head captain, you do not have to rob any ships yourself.</p><p>You get to choose which pirate you want to rob the next ship. </p><p>If they are successful at robbing the ship, then you will get gold coins.</p><p> If they are not successful, then you will get no gold coins.</p><p> The more coins you collect, the more bonus money you will win. So, choose your pirate wisely.</p><p><img src='run_exp/static/images/goal.png' height='400'></p><p><b>[Press the space bar to continue]</b></p><div>","32","","","","","","","","","","","","","","","","",""
"","html-keyboard-response","5","85797","0.0-5.0","18133.000000000015","<div class='center'><p>Even the most skilled pirate will not be able to rob EVERY ship.</p><p> Some ships will have very strong defenses against attacks.</p><p> For example, blue beard, here,  is very good at robbing ships.</p><p> You can press the <b>‘1’</b> button on the keyboard to choose him.</p><p> Try choosing him 10 times to see how often he is successful at robbing ships. </p><p><img src='run_exp/static/images/blue.png' height='500'></p></div>","49","","","","","","","","","","","","","","","","",""
"","html-keyboard-response","6","87300","0.0-6.0","null","<br><br><br><br><p><img src='run_exp/static/images/blue_win.png' height='500'></p>","null","","","","","","","","","","","","","","","","",""
"","html-keyboard-response","7","87414","0.0-7.0","113","<br><br><br><br><p><img src='run_exp/static/images/blue.png' height='500'></p>","49","","","","","","","","","","","","","","","","",""
"","html-keyboard-response","8","88916","0.0-8.0","null","<br><br><br><br><p><img src='run_exp/static/images/blue_win.png' height='500'></p>","null","","","","","","","","","","","","","","","","",""
"","html-keyboard-response","9","92330","0.0-9.0","3412","<br><br><br><br><p><img src='run_exp/static/images/blue.png' height='500'></p>","49","","","","","","","","","","","","","","","","",""
"","html-keyboard-response","10","93833","0.0-10.0","null","<br><br><br><br><p><img src='run_exp/static/images/blue_win.png' height='500'></p>","null","","","","","","","","","","","","","","","","",""
"","html-keyboard-response","11","94899","0.0-11.0","1064","<br><br><br><br><p><img src='run_exp/static/images/blue.png' height='500'></p>","49","","","","","","","","","","","","","","","","",""
"","html-keyboard-response","12","96402","0.0-12.0","null","<br><br><br><br><p><img src='run_exp/static/images/blue_no_win.png' height='500'></p>","null","","","","","","","","","","","","","","","","",""
"","html-keyboard-response","13","102756","0.0-13.0","6351.999999999971","<br><br><br><br><p><img src='run_exp/static/images/blue.png' height='500'></p>","49","","","","","","","","","","","","","","","","",""
"","html-keyboard-response","14","104259","0.0-14.0","null","<br><br><br><br><p><img src='run_exp/static/images/blue_win.png' height='500'></p>","null","","","","","","","","","","","","","","","","",""
"","html-keyboard-response","15","104695","0.0-15.0","433.9999999999709","<br><br><br><br><p><img src='run_exp/static/images/blue.png' height='500'></p>","49","","","","","","","","","","","","","","","","",""
"","html-keyboard-response","16","106198","0.0-16.0","null","<br><br><br><br><p><img src='run_exp/static/images/blue_win.png' height='500'></p>","null","","","","","","","","","","","","","","","","",""
"","html-keyboard-response","17","108458","0.0-17.0","2258","<br><br><br><br><p><img src='run_exp/static/images/blue.png' height='500'></p>","49","","","","","","","","","","","","","","","","",""
"","html-keyboard-response","18","109961","0.0-18.0","null","<br><br><br><br><p><img src='run_exp/static/images/blue_win.png' height='500'></p>","null","","","","","","","","","","","","","","","","",""
"","html-keyboard-response","19","110982","0.0-19.0","1019","<br><br><br><br><p><img src='run_exp/static/images/blue.png' height='500'></p>","49","","","","","","","","","","","","","","","","",""
"","html-keyboard-response","20","112485","0.0-20.0","null","<br><br><br><br><p><img src='run_exp/static/images/blue_no_win.png' height='500'></p>","null","","","","","","","","","","","","","","","","",""
"","html-keyboard-response","21","118174","0.0-21.0","5687","<br><br><br><br><p><img src='run_exp/static/images/blue.png' height='500'></p>","49","","","","","","","","","","","","","","","","",""
"","html-keyboard-response","22","119676","0.0-22.0","null","<br><br><br><br><p><img src='run_exp/static/images/blue_win.png' height='500'></p>","null","","","","","","","","","","","","","","","","",""
"","html-keyboard-response","23","120960","0.0-23.0","1282","<br><br><br><br><p><img src='run_exp/static/images/blue.png' height='500'></p>","49","","","","","","","","","","","","","","","","",""
"","html-keyboard-response","24","122463","0.0-24.0","null","<br><br><br><br><p><img src='run_exp/static/images/blue_win.png' height='500'></p>","null","","","","","","","","","","","","","","","","",""
"","html-keyboard-response","25","128528","0.0-25.0","6063.000000000029","<div class='center'><p> See, he was successful at robbing the ships most of the time but not every time. </p><p><b>[Press the space bar to continue]</b></p></div>","32","","","","","","","","","","","","","","","","",""
"","html-keyboard-response","26","146779","0.0-26.0","18249","<div class='center'><p>In the game, you will get to choose which of three pirates you want to rob the next ship. <p>Press the <b>‘1’</b> button on your keyboard to pick the pirate with the red beard.</p><p> Press <b>‘2’</b> to pick the pirate with the white beard.</p><p> Press <b>‘3’</b> to pick the pirate with the black beard.</p><p>Try picking a pirate now!</p><p><img src='run_exp/static/images/all_pirates.png' height='500'></p></div>","51","","","","","","","","","","","","","","","","",""
"","html-keyboard-response","27","150087","0.0-27.0-0.0","3305","<div class='center'><p>This pirate was successful at robbing the ship!</p><p><img src='run_exp/static/images/black_win.png' height='500'></p><p><b>[Press the space bar to continue]</b></p></div>","32","","","","","","","","","","","","","","","","",""
"","html-keyboard-response","28","154950","0.0-27.0-1.0","4862.000000000029","<div class='center'><p>Now try choosing another</p><p><img src='run_exp/static/images/all_pirates.png' height='500'></p></div>","49","","","","","","","","","","","","","","","","",""
"","html-keyboard-response","29","156985","0.0-28.0-0.0","2031","<div class='center'><p>This pirate was not successful at robbing the ship!</p><p><img src='run_exp/static/images/red_no_win.png' height='500'></p><p><b>[Press the space bar to continue]</b></p></div>","32","","","","","","","","","","","","","","","","",""
"","html-keyboard-response","30","166460","0.0-29.0-0.0","9474","<div class='center'><p>You’ll stop at these 6 places on your journey.</p><p><img src='run_exp/static/images/all_contexts.png' height='500'></p><p><b>[Press the space bar to continue]</b></p></div>","32","","","","","","","","","","","","","","","","",""
"","html-keyboard-response","31","178612","0.0-29.0-1.0","12149.99999999997","<div class='center'><p>How good a pirate is at robbing ships will depend on the current place.</p><p> Some pirates will have been to the place before, and will have more experience robbing ships there.</p><p>So, they will be more successful at stealing gold and bringing it back to you.</p><p><b>[Press the space bar to continue]</b></p></div>","32","","","","","","","","","","","","","","","","",""
"","html-keyboard-response","32","192745","0.0-29.0-2.0","14131","<div class='center'><p>How successful a pirate is at robbing ships can also change in a place.<p> Ships may hear about the pirates coming and will improve their defenses. This may make it more difficult to rob them.</p><p> Ships may also grow lazy and lower their defenses. This may make it easier to rob them.</p><br><p>Things are always changing on the high seas! So, try your best to pay attention!</p><p><img src='run_exp/static/images/contingency.png' height='500'></p><p><b>[Press the space bar to continue]</b></p></div>","32","","","","","","","","","","","","","","","","",""
"","html-keyboard-response","33","265366","0.0-29.0-3.0","72620","<div class='center'><p>Once you choose a pirate to rob a ship, you’ll be shown the ship they are robbing.</p><p>The ship will have a picture of the item they sold at the marketplace.</p><p> Try your best to remember the ship and where you saw the ship.</p><p> You’ll have to remember this for later, and remembering this correctly will help you win more bonus money!</p><p>You can remember the ship by remembering the item they sold at the marketplace</p><p>A helpful strategy is to try to come up with a story of the chosen pirate and ship’s item interacting with the scene.</p><p> For example, a ship might have sold travel mugs and you could imagine red beard walking through the city with a travel mug. </p><p>Or imagine an apple falling from a tree into white beard's hands in the forest.</p><p><img src='run_exp/static/images/example_probe.png' height='500'></p><p><b>[Press the space bar to continue]</b></p></div>","32","","","","","","","","","","","","","","","","",""
"","html-keyboard-response","34","286027","0.0-29.0-4.0","20659.00000000006","<div class='center'><p>If you don’t make your choice fast enough, you’ll have to wait a few seconds before you can make another one. </p><p>You can’t win more gold. You just have to sit and wait.</p><p><img src='run_exp/static/images/hurry_up.png' height='500'></p><p><b>[Press the space bar to continue]</b></p></div>","32","","","","","","","","","","","","","","","","",""
"","html-keyboard-response","35","331836","0.0-29.0-5.0","45807","<div class='center'><p>Again, you have two important things to do: </p><b><p> 1. Pick the pirate who you think will be most successful at robbing the next ship.</p></b><b><p> 2. Remember where a pirate robbed a ship.</p> </b><p>Both are important in determining how much bonus money you’ll win.</p><br><p>Let’s try a practice game. The game will start by showing you the pirates. First pick a pirate using the <b> 1, 2, 3 </b> buttons on your keyboard. When you are shown a ship, try to remember the place you’re in by making up a story.</p><p> You only have 3 seconds to pick a pirate, so please make a choice quickly! If you are too slow, you’ll have to wait a bit during the time out.</p><p> Don’t feel rushed, but please do try to make a choice every time.</p><p>How good a pirate is at robbing a ship will change depending on the place they are in and how good the defenses are of the ship.</p> <p>This is just a practice game, so you’re not playing for money. </p><p>You’ll receive a bag which may or may not contain gold coins.</p><p> In the real game, though, you’ll be able to see whether or not you received the gold coins.</p><p> Good luck, remember press <b>'1'</b> to choose red beard, <b>'2'</b> to choose white beard, and <b>'3'</b> to choose black beard</p><p><b>[Press the space bar to begin the practice game]</b></p></div>","32","","","","","","","","","","","","","","","","",""
"","do_trial_prac","36","339255","0.0-29.0-6.0","2909","","","","50","","","","","","","","","","","","","","",""
"","do_trial_prac","37","345178","0.0-29.0-7.0","1412.9999999999418","","","","49","","","","","","","","","","","","","","",""
"","do_trial_prac","38","351427","0.0-29.0-8.0","1746.9999999999418","","","","49","","","","","","","","","","","","","","",""
"","do_trial_prac","39","357460","0.0-29.0-9.0","1536","","","","51","","","","","","","","","","","","","","",""
"","do_trial_prac","40","364323","0.0-29.0-10.0","2362","","","","49","","","","","","","","","","","","","","",""
"","html-keyboard-response","41","371885","0.0-29.0-11.0","7566","<div class='center'><p>Great job on the practice game!</p><p> Now, you will be asked you some true or false questions to make sure you really understand the rules of the game.</p><p> Press <b>'1'</b> on the keyboard for true and press <b>'2'</b> for false.</p><p><b>[Press the space bar to begin the quiz]</b></p></div>","32","","","","","","","","","","","","","","","","",""
"","html-keyboard-response","42","379388","0.0-29.0-12.0","7504.000000000058","<div class='center'><p>You win bonus money by making choices as fast as possible.</p><p>Press 1 for true and press  2 for false.</p></div>","49","","","","","","","","","","","","","","","","",""
"","html-keyboard-response","43","383598","0.0-30.0-0.0","4209","<br><br><br><br><p>That’s incorrect! You win bonus money by collecting as many gold coins as possible!</p><p><b>[press the space bar to continue with the quiz]</b></p>","32","","","","","","","","","","","","","","","","",""
"","html-keyboard-response","44","393382","0.0-30.0-1.0","9784.999999999942","<div class='center'><p>You press the <b>‘3’</b> button on the keyboard to choose the red bearded pirate? </p><p>Press 1 for true and press  2 for false.</p></div>","50","","","","","","","","","","","","","","","","",""
"","html-keyboard-response","45","395512","0.0-31.0-0.0","2127","<br><br><br><br><p>That's correct!</p> <p><b>[press the space bar to continue with the quiz]</b></p>","32","","","","","","","","","","","","","","","","",""
"","html-keyboard-response","46","400512","0.0-31.0-1.0","4999","<div class='center'><p>A pirate will always be equally successful at robbing ships in each place</p><p>Press 1 for true and press  2 for false.</p></div>","50","","","","","","","","","","","","","","","","",""
"","html-keyboard-response","47","401951","0.0-32.0-0.0","1436","<br><br><br><br><p>That's correct!</p> <p><b>[press the space bar to continue with the quiz]</b></p>","32","","","","","","","","","","","","","","","","",""
"","html-keyboard-response","48","420826","0.0-32.0-1.0","18874","<div class='center'><p>You should remember the place where a pirate robbed a ship.</p><p>Press 1 for true and press  2 for false.</p></div>","49","","","","","","","","","","","","","","","","",""
"","html-keyboard-response","49","422522","0.0-33.0-0.0","1694","<br><br><br><br><p>That's correct!</p> <p><b>[press the space bar to continue with the quiz]</b></p>","32","","","","","","","","","","","","","","","","",""
"","html-keyboard-response","50","430872","0.0-34.0-0.0","8347.999999999942","<br><br><br><br><p>Oops, you missed some questions. Now that you’ve heard the correct answers. Try the quiz again! If you fail the quiz too many times, you won’t be able to do the experiment. </p> <p><br>[press the space bar to repeat the quiz]</br></p>","32","","","","","","","","","","","","","","","","",""
"","html-keyboard-response","51","434672","0.0-34.0-1.0","3798","<div class='center'><p>You win bonus money by making choices as fast as possible.</p><p>Press 1 for true and press  2 for false.</p></div>","50","","","","","","","","","","","","","","","","",""
"","html-keyboard-response","52","436362","0.0-35.0-0.0","1688","<br><br><br><br><p>That's correct!</p> <p><b>[press the space bar to continue with the quiz]</b></p>","32","","","","","","","","","","","","","","","","",""
"","html-keyboard-response","53","440471","0.0-35.0-1.0","4108","<div class='center'><p>You press the <b>‘3’</b> button on the keyboard to choose the red bearded pirate? </p><p>Press 1 for true and press  2 for false.</p></div>","50","","","","","","","","","","","","","","","","",""
"","html-keyboard-response","54","441809","0.0-36.0-0.0","1336.0000000000582","<br><br><br><br><p>That's correct!</p> <p><b>[press the space bar to continue with the quiz]</b></p>","32","","","","","","","","","","","","","","","","",""
"","html-keyboard-response","55","445106","0.0-36.0-1.0","3295","<div class='center'><p>A pirate will always be equally successful at robbing ships in each place</p><p>Press 1 for true and press  2 for false.</p></div>","50","","","","","","","","","","","","","","","","",""
"","html-keyboard-response","56","445874","0.0-37.0-0.0","766.0000000000582","<br><br><br><br><p>That's correct!</p> <p><b>[press the space bar to continue with the quiz]</b></p>","32","","","","","","","","","","","","","","","","",""
"","html-keyboard-response","57","448366","0.0-37.0-1.0","2490","<div class='center'><p>You should remember the place where a pirate robbed a ship.</p><p>Press 1 for true and press  2 for false.</p></div>","49","","","","","","","","","","","","","","","","",""
"","html-keyboard-response","58","449339","0.0-38.0-0.0","959","<br><br><br><br><p>That's correct!</p> <p><b>[press the space bar to continue with the quiz]</b></p>","32","","","","","","","","","","","","","","","","",""
"","html-keyboard-response","59","452074","0.0-39.0-0.0","2732","<br><br><br><br><p>Good job! You’re now ready to move on to the real game!</p> <p><br>[press the space bar to begin!]</br></p>","32","","","","","","","","","","","","","","","","",""
"","do_welcome","60","453584","0.0-40.0-0.0","null","","","","null","","","","","","","","","","","","","","",""
"","do_trial","61","461911","0.0-41.0-0.0","2782.999999999942","","","","50","1,0,0","0","forest","0","probe-26","1","0.4","0.1","0","","","","","",""
"","do_trial","62","468860","0.0-42.0-0.0","1406.9999999999418","","","","51","1,0,0","0","forest","1","probe-162","1","0.5701619687867866","0.1374382481840658","0","","","","","",""
"","do_trial","63","475797","0.0-43.0-0.0","1377","","","","49","1,1,0","0","forest","2","probe-139","1","0.4811322081915177","0.05789505336049615","1","","","","","",""
"","do_trial","64","483163","0.0-44.0-0.0","1804.9999999999418","","","","49","1,1,0","0","forest","3","probe-112","1","0.4536188507835073","0.3021029556157822","1","","","","","",""
"","do_trial","65","489258","0.0-45.0-0.0","537.9999999998836","","","","49","1,1,0","0","forest","4","probe-196","0.851717396966713","0.557376314356566","0.22292799955810935","1","","","","","",""
"","do_trial","66","495780","0.0-46.0-0.0","967","","","","49","1,1,0","0","forest","5","probe-77","0.8155338390329988","0.5049200968637283","0.08141002092269496","1","","","","","",""
"","do_trial","67","502046","0.0-47.0-0.0","720","","","","49","1,1,0","0","forest","6","probe-159","0.7782837585853442","0.38018853833944277","0.12486377972124522","1","","","","","",""
"","do_trial","68","508452","0.0-48.0-0.0","862.9999999998836","","","","49","0,0,0","0","forest","7","probe-50","0.7451947701951628","0.36973910364709967","0.20934049985599448","0","","","","","",""
"","do_trial","69","515344","0.0-49.0-0.0","1349.0000000001164","","","","50","0,0,0","0","forest","8","probe-180","0.7387834709575394","0.33657161721393836","0.22704840613507726","0","","","","","",""
"","do_trial","70","521799","0.0-50.0-0.0","913","","","","51","0,0,1","0","forest","9","probe-106","0.8705165157776338","0.4583925457988032","0.1677010816656058","1","","","","","",""
"","do_trial","71","527979","0.0-51.0-0.0","632","","","","51","1,1,0","0","forest","10","probe-143","0.6280410443063003","0.6148008515049587","0.09014357991397408","0","","","","","",""
"","do_trial","72","534320","0.0-52.0-0.0","794.0000000001164","","","","49","1,0,0","0","forest","11","probe-134","0.4310724988657828","0.5645517840516255","0.09454461173502936","1","","","","","",""
"","do_trial","73","540833","0.0-53.0-0.0","969.9999999998836","","","","50","1,1,0","0","forest","12","probe-115","0.5241251759433866","0.7060565599744254","0.1634347566026215","1","","","","","",""
"","do_trial","74","547039","0.0-54.0-0.0","661","","","","49","1,1,0","0","forest","13","probe-230","0.47281462885172093","0.880659410926648","0.09750879637143194","1","","","","","",""
"","do_trial","75","553291","0.0-55.0-0.0","702","","","","51","0,1,0","0","forest","14","probe-72","0.3425085886724476","0.8433819624711539","0.06432113474704113","0","","","","","",""
"","do_trial","76","559520","0.0-56.0-0.0","686","","","","51","0,1,1","0","forest","15","probe-182","0.3765485177393091","0.8593915098515446","0.1597108297325816","1","","","","","",""
"","do_trial","77","565631","0.0-57.0-0.0","565","","","","49","0,1,1","0","forest","16","probe-63","0.40375009698455755","0.934819638329787","0.3754377874621305","0","","","","","",""
"","do_trial","78","571773","0.0-58.0-0.0","595","","","","50","1,1,1","0","forest","17","probe-222","0.27676717469021694","0.8496777895046396","0.31098529607936004","1","","","","","",""
"","do_trial","79","579106","0.0-59.0-0.0","1789","","","","51","0,1,0","0","forest","18","probe-90","0.4367642253764554","0.768543920263782","0.2529551563826065","0","","","","","",""
"","do_trial","80","585111","0.0-60.0-0.0","460","","","","49","1,1,0","0","forest","19","probe-78","0.39340265036623934","0.745345912583877","0.062125253043913385","1","","","","","",""
"","do_trial","81","592590","0.0-61.0-0.0","1936","","","","51","0,1,0","0","forest","20","probe-114","0.3660122321146582","0.7139322317328278","0.10537862724544983","0","","","","","",""
"","do_trial","82","598518","0.0-62.0-0.0","382.9999999998836","","","","50","0,1,0","0","forest","21","probe-119","0.44274551599262835","0.8899980690986768","0.18011250719627447","1","","","","","",""
"","do_trial","83","604656","0.0-63.0-0.0","590","","","","49","0,0,0","0","forest","22","probe-109","0.3938767463875385","0.7220739481816051","0.31916982464955174","0","","","","","",""
"","do_trial","84","611642","0.0-64.0-0.0","1444","","","","49","1,1,0","0","forest","23","probe-73","0.3712400519661563","0.7865603029523218","0.15768970364598392","1","","","","","",""
"","do_trial","85","618972","0.0-65.0-0.0","1784","","","","51","0,1,0","0","forest","24","probe-09","0.248528098183096","0.683820227869778","0.1363171205109681","0","","","","","",""
"","do_trial","86","624910","0.0-66.0-0.0","389.9999999998836","","","","50","0,1,0","0","forest","25","probe-195","0.37702764290402035","0.7985563424362023","0.09224002678026766","1","","","","","",""
"","do_trial","87","631267","0.0-67.0-0.0","814","","","","49","0,1,0","0","forest","26","probe-131","0.23088166034985066","0.8414871292661514","0.13805357723542053","0","","","","","",""
"","do_trial","88","638276","0.0-68.0-0.0","1462","","","","51","0,1,0","0","forest","27","probe-135","0.312885107595305","0.7664354286549174","0.26665869235013306","0","","","","","",""
"","do_trial","89","644835","0.0-69.0-0.0","1006","","","","51","0,0,1","0","forest","28","probe-27","0.4140360942400725","0.6605153447336742","0.20283973711249903","1","","","","","",""
"","do_trial","90","650605","0.0-70.0-0.0","226","","","","49","1,0,0","0","forest","29","probe-149","0.5368168421822851","0.702241232696598","0.08903220141051536","1","","","","","",""
"","do_trial","91","656289","0.0-71.0-0.0","133","","","","50","1,1,0","0","forest","30","probe-129","0.5336235668537127","0.6861117571044689","0.10301501087686464","1","","","","","",""
"","do_trial","92","662286","0.0-72.0-0.0","448.9999999998836","","","","49","0,0,0","0","forest","31","probe-105","0.4937648739497854","0.7208881638807588","0.08423780337502486","0","","","","","",""
"","do_trial","93","668314","0.0-73.0-0.0","483","","","","51","0,1,0","0","forest","32","probe-83","0.3911831110410251","0.751357980389348","0.2515854009805287","0","","","","","",""
"","do_trial","94","675119","0.0-74.0-0.0","1261.0000000001164","","","","50","0,1,0","0","forest","33","probe-225","0.2761009719346281","0.7602378111849224","0.2839869360346724","1","","","","","",""
"","do_trial","95","681039","0.0-75.0-0.0","375","","","","49","0,0,0","0","forest","34","probe-59","0.26381129556056643","0.8052183361664578","0.18453489578770677","0","","","","","",""
"","do_trial","96","687011","0.0-76.0-0.0","426.9999999998836","","","","50","1,1,0","0","forest","35","probe-183","0.31230279176951325","0.871693553146159","0.07156816922977378","1","","","","","",""
"","do_trial","97","693564","0.0-77.0-0.0","1010","","","","50","0,1,0","0","forest","36","probe-213","0.27155466776258025","0.8676245862186691","0.11351480187284922","1","","","","","",""
"","do_trial","98","700055","0.0-78.0-0.0","947","","","","50","0,1,0","0","forest","37","probe-205","0.3832303981400792","0.751972128538275","0.15489832633909287","1","","","","","",""
"","do_trial","99","706080","0.0-79.0-0.0","485","","","","50","1,1,0","0","forest","38","probe-240","0.5182698527247496","0.9064880087400116","0.1898263055007866","1","","","","","",""
"","do_trial","100","711983","0.0-80.0-0.0","358","","","","50","0,1,0","0","forest","39","probe-84","0.44032693143849927","0.8538625254014022","0.08092814212418961","1","","","","","",""
"","do_bye","101","713493","0.0-81.0-0.0","null","","","","null","","","","","","","","","","","","","","",""
"","do_travel","102","719499","0.0-82.0-0.0","null","","","","null","","","","","","","","","","","","","","",""
"","do_welcome","103","721007","0.0-82.0-1.0","null","","","","null","","","","","","","","","","","","","","",""
"","do_trial","104","727046","0.0-83.0-0.0","null","","","","null","1,1,0","1","mountain","40","probe-169","0.4590743601335778","1","0.11760322889850491","","","","","","",""
"","do_trial","105","733187","0.0-84.0-0.0","595","","","","50","0,1,1","1","mountain","41","probe-173","0.5642942624270754","1","0.12194771429706558","1","","","","","",""
"","do_trial","106","739073","0.0-85.0-0.0","346","","","","50","0,1,0","1","mountain","42","probe-206","0.6073369876221683","1","0.1026723985901173","1","","","","","",""
"","do_trial","107","744953","0.0-86.0-0.0","334","","","","49","1,1,0","1","mountain","43","probe-120","0.6233154935951312","1","0.20624322187483793","1","","","","","",""
"","do_trial","108","750956","0.0-87.0-0.0","458","","","","49","0,0,0","1","mountain","44","probe-218","0.5110924673977809","0.8949865340665281","0.14131189004858283","0","","","","","",""
"","do_trial","109","757008","0.0-88.0-0.0","506","","","","50","0,1,0","1","mountain","45","probe-238","0.42231215789602233","0.928016783453247","0.20380428024790964","1","","","","","",""
"","do_trial","110","763787","0.0-89.0-0.0","1236","","","","51","0,1,0","1","mountain","46","probe-48","0.41545249247646243","0.9171795349220746","0.05528175363132611","0","","","","","",""
"","do_trial","111","769552","0.0-90.0-0.0","219.00000000011642","","","","50","0,1,1","1","mountain","47","probe-117","0.38609431254998683","0.8914312406661768","0.10339456593796634","1","","","","","",""
"","do_trial","112","777100","0.0-91.0-0.0","2001","","","","49","1,1,0","1","mountain","48","probe-223","0.4106795385042485","0.9260353374455828","0.09969723557882593","1","","","","","",""
"","do_trial","113","783017","0.0-92.0-0.0","375","","","","49","1,1,0","1","mountain","49","probe-104","0.5767283760260711","0.7945162671361332","0.17228960440119018","1","","","","","",""
"","do_trial","114","788925","0.0-93.0-0.0","365","","","","49","0,1,0","1","mountain","50","probe-239","0.6083992153023189","0.6376494169966745","0.05099193482340672","0","","","","","",""
"","do_trial","115","794809","0.0-94.0-0.0","337","","","","50","1,0,0","1","mountain","51","probe-176","0.698517626037571","0.5019306755537931","0.1268919682684073","0","","","","","",""
"","do_trial","116","800714","0.0-95.0-0.0","361","","","","51","0,1,0","1","mountain","52","probe-53","0.7512475883869726","0.4901165388825235","0.23789263579726644","0","","","","","",""
"","do_trial","117","806655","0.0-96.0-0.0","395","","","","49","1,0,0","1","mountain","53","probe-155","0.7154399982152759","0.43056444822402135","0.17913909261836092","1","","","","","",""
"","do_trial","118","812847","0.0-97.0-0.0","646.9999999998836","","","","49","1,0,0","1","mountain","54","probe-136","0.6761146867333748","0.5341996368379622","0.06299836692604309","1","","","","","",""
"","do_trial","119","818897","0.0-98.0-0.0","null","","","","null","1,1,0","1","mountain","55","probe-98","0.7506081191750515","0.5445364082960706","0.11254001200950939","","","","","","",""
"","do_trial","120","824838","0.0-99.0-0.0","387","","","","50","1,0,1","1","mountain","56","probe-140","0.7767849784630962","0.579565257107828","0.13138585006532463","0","","","","","",""
"","do_trial","121","830883","0.0-100.0-0.0","495","","","","49","1,0,0","1","mountain","57","probe-16","0.8380876874613159","0.334382537262047","0.06913418561246523","1","","","","","",""
"","do_trial","122","836680","0.0-101.0-0.0","247.00000000011642","","","","51","1,0,1","1","mountain","58","probe-221","0.8059826715159842","0.28396155708203286","0.19686261840724306","1","","","","","",""
"","do_trial","123","842634","0.0-102.0-0.0","404","","","","49","1,0,0","1","mountain","59","probe-30","0.7467635392751116","0.35205992560192734","0.2372523880652164","1","","","","","",""
"","do_trial","124","848695","0.0-103.0-0.0","509","","","","49","1,0,1","1","mountain","60","probe-92","0.8351138135604868","0.4592203537279918","0.16331171911973982","1","","","","","",""
"","do_trial","125","854820","0.0-104.0-0.0","572.9999999998836","","","","50","0,0,0","1","mountain","61","probe-70","0.8421557233274405","0.521865722014376","0.1950681029412234","0","","","","","",""
"","do_trial","126","860732","0.0-105.0-0.0","356","","","","51","0,0,0","1","mountain","62","probe-13","0.6673978774131883","0.542495610182131","0.2623382843320937","0","","","","","",""
"","do_trial","127","866625","0.0-106.0-0.0","345","","","","49","1,0,0","1","mountain","63","probe-175","0.6290212938430765","0.47940130589400226","0.2824621404570656","1","","","","","",""
"","do_trial","128","873012","0.0-107.0-0.0","844","","","","50","1,1,0","1","mountain","64","probe-23","0.7081259600828971","0.2907187789855326","0.2406248921128086","1","","","","","",""
"","do_trial","129","879282","0.0-108.0-0.0","726","","","","49","1,0,0","1","mountain","65","probe-55","0.7004818697581243","0.39143885056817923","0.19005283435740072","1","","","","","",""
"","do_trial","130","885221","0.0-109.0-0.0","394","","","","51","0,0,0","1","mountain","66","probe-74","0.7085480510710241","0.38334466966618325","0.14701232622981883","0","","","","","",""
"","do_trial","131","891046","0.0-110.0-0.0","280","","","","49","1,0,0","1","mountain","67","probe-137","0.733419890689395","0.37344409141070467","0.09512782685192232","1","","","","","",""
"","do_trial","132","897041","0.0-111.0-0.0","448","","","","49","0,1,0","1","mountain","68","probe-43","0.8016026287863522","0.5314812736475376","0.12455026032668823","0","","","","","",""
"","do_trial","133","902653","0.0-112.0-0.0","67","","","","50","0,0,0","1","mountain","69","probe-41","0.7759480865111986","0.41712395871435914","0.11117199788784106","0","","","","","",""
"","do_trial","134","908997","0.0-113.0-0.0","798","","","","51","1,0,0","1","mountain","70","probe-122","0.8192321706716048","0.40005580832388954","0.09769641779934586","0","","","","","",""
"","do_trial","135","915201","0.0-114.0-0.0","656","","","","49","1,1,0","1","mountain","71","probe-145","0.7582008248552528","0.34174540467094566","0.1502036438664879","1","","","","","",""
"","do_trial","136","921160","0.0-115.0-0.0","415","","","","49","0,1,0","1","mountain","72","probe-99","0.7520361999680557","0.5281274954785856","0.05182266916916401","0","","","","","",""
"","do_trial","137","926838","0.0-116.0-0.0","134","","","","50","0,0,0","1","mountain","73","probe-150","0.6666439317886466","0.4576982507473117","0.15828051557861075","0","","","","","",""
"","do_trial","138","932447","0.0-117.0-0.0","67","","","","51","1,1,0","1","mountain","74","probe-160","0.7035909686122694","0.43428029329920914","0.21665385960501504","0","","","","","",""
"","do_trial","139","938338","0.0-118.0-0.0","346","","","","49","1,1,0","1","mountain","75","probe-76","0.6383965165451391","0.29538223459862223","0.16512076895296635","1","","","","","",""
"","do_trial","140","944023","0.0-119.0-0.0","142.00000000011642","","","","49","1,1,1","1","mountain","76","probe-101","0.5935481873958642","0.39645341313332294","0.1939438156173439","1","","","","","",""
"","do_trial","141","949809","0.0-120.0-0.0","242","","","","49","1,0,0","1","mountain","77","probe-208","0.5621838695962286","0.3921529405158324","0.08105910126595958","1","","","","","",""
"","do_trial","142","955655","0.0-121.0-0.0","299","","","","49","0,1,0","1","mountain","78","probe-49","0.7581274849753378","0.3574900559186099","0.10118400746534668","0","","","","","",""
"","do_trial","143","961583","0.0-122.0-0.0","381","","","","51","1,1,0","1","mountain","79","probe-237","0.7444684634113573","0.4715863887222971","0.07632449641197343","0","","","","","",""
"","do_bye","144","963092","0.0-123.0-0.0","null","","","","null","","","","","","","","","","","","","","",""
"","do_travel","145","969097","0.0-124.0-0.0","null","","","","null","","","","","","","","","","","","","","",""
"","do_welcome","146","970606","0.0-124.0-1.0","null","","","","null","","","","","","","","","","","","","","",""
"","do_trial","147","976735","0.0-125.0-0.0","583","","","","50","1,1,0","2","city","80","probe-69","1","0.6376044110817765","0.06550096510621944","1","","","","","",""
"","do_trial","148","982565","0.0-126.0-0.0","287","","","","50","1,1,0","2","city","81","probe-11","1","0.5563527594084147","0.181163782759307","1","","","","","",""
"","do_trial","149","988918","0.0-127.0-0.0","802.9999999998836","","","","49","1,1,0","2","city","82","probe-29","1","0.5496821033046042","0.2772960485583229","1","","","","","",""
"","do_trial","150","995496","0.0-128.0-0.0","1036.0000000001164","","","","50","1,0,0","2","city","83","probe-22","1","0.5185270908126233","0.05071789331126361","0","","","","","",""
"","do_trial","151","1001382","0.0-129.0-0.0","343","","","","51","1,0,0","2","city","84","probe-219","0.8297941904428291","0.46277395012772743","0.09924321930946008","0","","","","","",""
"","do_trial","152","1007212","0.0-130.0-0.0","283.9999999998836","","","","49","1,0,0","2","city","85","probe-24","0.8279348128561463","0.5221719059303916","0.11359768528140095","1","","","","","",""
"","do_trial","153","1013390","0.0-131.0-0.0","637","","","","49","1,0,0","2","city","86","probe-228","0.6925549332445988","0.6465989237329154","0.1600485529819472","1","","","","","",""
"","do_trial","154","1019378","0.0-132.0-0.0","442","","","","50","1,1,1","2","city","87","probe-212","0.8357876486853871","0.621050717788598","0.198399533455349","1","","","","","",""
"","do_trial","155","1026308","0.0-133.0-0.0","1387","","","","51","1,0,0","2","city","88","probe-148","0.7801053754676831","0.4870809960565362","0.15342966064519659","0","","","","","",""
"","do_trial","156","1032204","0.0-134.0-0.0","349","","","","49","1,0,0","2","city","89","probe-200","0.6338466777021424","0.5452626062414614","0.11462010621131168","1","","","","","",""
"","do_trial","157","1037959","0.0-135.0-0.0","210","","","","49","0,1,0","2","city","90","probe-133","0.27859124162773086","0.3954417396930488","0.35524679247862617","0","","","","","",""
"","do_trial","158","1043662","0.0-136.0-0.0","159.99999999976717","","","","51","0,0,1","2","city","91","probe-198","0.20962183095881393","0.4500983567477204","0.4981440422187447","1","","","","","",""
"","do_trial","159","1049555","0.0-137.0-0.0","349","","","","50","0,0,1","2","city","92","probe-34","0.15420710956356778","0.46167526639161993","0.6123833279205004","0","","","","","",""
"","do_trial","160","1055323","0.0-138.0-0.0","223","","","","49","0,0,0","2","city","93","probe-10","0.0725085006584641","0.3543774529340923","0.7544091171778683","0","","","","","",""
"","do_trial","161","1061081","0.0-139.0-0.0","212","","","","49","0,1,1","2","city","94","probe-226","0.10019522989270536","0.38443767509311016","0.793136143620651","0","","","","","",""
"","do_trial","162","1066797","0.0-140.0-0.0","169","","","","51","0,0,1","2","city","95","probe-178","0.09834813570943603","0.2947468053714294","0.903998526755456","1","","","","","",""
"","do_trial","163","1072684","0.0-141.0-0.0","340.00000000023283","","","","51","0,1,1","2","city","96","probe-236","0.1688680765285272","0.4775971059564387","0.7576247613020171","1","","","","","",""
"","do_trial","164","1079230","0.0-142.0-0.0","1001","","","","50","0,0,1","2","city","97","probe-100","0.08446348695698577","0.48138337876155596","0.7601673360556092","0","","","","","",""
"","do_trial","165","1085182","0.0-143.0-0.0","407","","","","51","0,0,1","2","city","98","probe-80","0.20025653762480466","0.5554532102174536","0.7026993196251904","1","","","","","",""
"","do_trial","166","1091143","0.0-144.0-0.0","415","","","","51","0,0,1","2","city","99","probe-86","0.27477460331066916","0.5270230516718704","0.8456570155443419","1","","","","","",""
"","do_trial","167","1097134","0.0-145.0-0.0","445","","","","51","0,1,1","2","city","100","probe-61","0.13416432211702714","0.5979837882834318","0.790562689500975","1","","","","","",""
"","do_trial","168","1103367","0.0-146.0-0.0","690","","","","49","0,1,1","2","city","101","probe-67","0.08542955098074076","0.4821795965419217","0.7208969047432149","0","","","","","",""
"","do_trial","169","1109425","0.0-147.0-0.0","512","","","","51","0,0,1","2","city","102","probe-60","0.05609818301631862","0.47949236760247493","0.8555866541579655","1","","","","","",""
"","do_trial","170","1115995","0.0-148.0-0.0","1028","","","","50","0,0,0","2","city","103","probe-103","0.05086082514392814","0.5120433588254016","0.7931991509298315","0","","","","","",""
"","do_trial","171","1122036","0.0-149.0-0.0","495","","","","51","0,0,1","2","city","104","probe-116","0.07740251717461169","0.338812083610253","0.7010752456919721","1","","","","","",""
"","do_trial","172","1127983","0.0-150.0-0.0","402","","","","51","0,0,1","2","city","105","probe-79","0.06330792657405546","0.38075642969326146","0.732202418464394","1","","","","","",""
"","do_trial","173","1134339","0.0-151.0-0.0","810","","","","51","0,0,1","2","city","106","probe-12","0.23872567135651818","0.24587517774198603","0.7529006265192523","1","","","","","",""
"","do_trial","174","1140228","0.0-152.0-0.0","343","","","","51","0,0,1","2","city","107","probe-185","0.2673587414508835","0.2015925304850841","0.6596135878272233","1","","","","","",""
"","do_trial","175","1145891","0.0-153.0-0.0","118","","","","51","0,0,0","2","city","108","probe-71","0.0690294193576129","0.3652356550468362","0.7446079344332843","0","","","","","",""
"","do_trial","176","1151577","0.0-154.0-0.0","141","","","","49","0,0,1","2","city","109","probe-127","0.08859743364094541","0.3038321046801463","0.7223696462813429","0","","","","","",""
"","do_trial","177","1157249","0.0-155.0-0.0","125.99999999976717","","","","50","1,1,1","2","city","110","probe-68","0.06300953101312232","0.33601761712351896","0.7920379618535432","1","","","","","",""
"","do_trial","178","1163176","0.0-156.0-0.0","381","","","","51","1,0,1","2","city","111","probe-04","0.08052969988886922","0.3422370186367678","0.8059686402558187","1","","","","","",""
"","do_trial","179","1169179","0.0-157.0-0.0","456","","","","50","0,1,1","2","city","112","probe-89","0.14884545512992617","0.4200290569246058","0.7200209129053211","1","","","","","",""
"","do_trial","180","1175035","0.0-158.0-0.0","308","","","","49","0,0,1","2","city","113","probe-57","0.11528083821105972","0.4518915461266817","0.7559009740126059","0","","","","","",""
"","do_trial","181","1181373","0.0-159.0-0.0","787.0000000002328","","","","51","0,0,1","2","city","114","probe-214","0.21453148048656648","0.43300128268547666","0.6670908935001469","1","","","","","",""
"","do_trial","182","1187432","0.0-160.0-0.0","508","","","","51","0,1,1","2","city","115","probe-121","0.2840966894688601","0.46587318680012824","0.725721636023293","1","","","","","",""
"","do_trial","183","1193335","0.0-161.0-0.0","353","","","","50","0,0,0","2","city","116","probe-191","0.16270265751532975","0.48875434930971806","0.6878151226529181","0","","","","","",""
"","do_trial","184","1199298","0.0-162.0-0.0","421","","","","49","0,1,1","2","city","117","probe-38","0.2943905189544358","0.45877819612322124","0.6031672308488895","0","","","","","",""
"","do_trial","185","1205141","0.0-163.0-0.0","292.00000000023283","","","","51","0,1,1","2","city","118","probe-113","0.10655302113273672","0.40922772388673495","0.7840124973299237","1","","","","","",""
"","do_trial","186","1210724","0.0-164.0-0.0","32","","","","51","0,1,0","2","city","119","probe-39","0.10919240164271427","0.5369904877823153","0.8279866658778025","0","","","","","",""
"","do_bye","187","1212234","0.0-165.0-0.0","null","","","","null","","","","","","","","","","","","","","",""
"","do_travel","188","1218239","0.0-166.0-0.0","null","","","","null","","","","","","","","","","","","","","",""
"","do_welcome","189","1219750","0.0-166.0-1.0","null","","","","null","","","","","","","","","","","","","","",""
"","do_trial","190","1226208","0.0-167.0-0.0","911","","","","50","0,1,1","3","coast","120","probe-231","0.11404005955709073","0.5193226235669173","1","1","","","","","",""
"","do_trial","191","1232299","0.0-168.0-0.0","543.9999999997672","","","","51","0,1,1","3","coast","121","probe-186","0.06166924523341424","0.5377786683404397","1","1","","","","","",""
"","do_trial","192","1238475","0.0-169.0-0.0","627","","","","51","0,0,1","3","coast","122","probe-81","0.1356309681224945","0.5367980468385158","1","1","","","","","",""
"","do_trial","193","1244949","0.0-170.0-0.0","924","","","","49","0,1,1","3","coast","123","probe-147","0.1515074684200857","0.5269391709068885","1","0","","","","","",""
"","do_trial","194","1250628","0.0-171.0-0.0","129","","","","51","0,0,1","3","coast","124","probe-229","0.24978527037021855","0.4899087303896761","0.9213433949699217","1","","","","","",""
"","do_trial","195","1256776","0.0-172.0-0.0","596","","","","51","0,1,0","3","coast","125","probe-88","0.12848112193682582","0.41572326505711305","0.8288677926180834","0","","","","","",""
"","do_trial","196","1262573","0.0-173.0-0.0","247","","","","50","0,0,1","3","coast","126","probe-52","0.12625410707804424","0.35802948236338233","0.870864461842225","0","","","","","",""
"","do_trial","197","1268192","0.0-174.0-0.0","72.99999999976717","","","","49","0,0,1","3","coast","127","probe-224","0.10036283851248629","0.3280318082119243","0.7609284062516659","0","","","","","",""
"","do_trial","198","1273995","0.0-175.0-0.0","258.00000000023283","","","","51","0,0,0","3","coast","128","probe-82","0.262787379144247","0.4352650587525853","0.7953979220602583","0","","","","","",""
"","do_trial","199","1280000","0.0-176.0-0.0","457.99999999976717","","","","50","0,1,1","3","coast","129","probe-215","0.22315484774323532","0.3808472040034065","0.7121907088720226","1","","","","","",""
"","do_trial","200","1285989","0.0-177.0-0.0","446","","","","49","0,1,0","3","coast","130","probe-118","0.2600568161946455","0.6313947343587851","0.6535231649753303","0","","","","","",""
"","do_trial","201","1291843","0.0-178.0-0.0","309","","","","51","0,0,0","3","coast","131","probe-171","0.3214260686088869","0.6323657316881695","0.4017120133060981","0","","","","","",""
"","do_trial","202","1297559","0.0-179.0-0.0","171","","","","50","0,1,0","3","coast","132","probe-102","0.3323016042455762","0.7487211465383169","0.2418966730347223","1","","","","","",""
"","do_trial","203","1303116","0.0-180.0-0.0","12","","","","50","0,1,0","3","coast","133","probe-28","0.38606561803638545","0.8139290580625231","0.21274585239866192","1","","","","","",""
"","do_trial","204","1308775","0.0-181.0-0.0","119","","","","50","0,1,0","3","coast","134","probe-44","0.5749057241969924","0.8595501244811418","0.1780641075417774","1","","","","","",""
"","do_trial","205","1314409","0.0-182.0-0.0","91","","","","50","0,1,0","3","coast","135","probe-126","0.41713014604240967","0.8272707215325618","0.12736208006011887","1","","","","","",""
"","do_trial","206","1320027","0.0-183.0-0.0","72","","","","50","0,1,0","3","coast","136","probe-144","0.34585343458487033","0.8849263490814633","0.10006404237974344","1","","","","","",""
"","do_trial","207","1325685","0.0-184.0-0.0","112.99999999976717","","","","50","0,0,0","3","coast","137","probe-17","0.3468363539265812","0.8635432350596055","0.14002153210246118","0","","","","","",""
"","do_trial","208","1331352","0.0-185.0-0.0","122","","","","49","0,1,0","3","coast","138","probe-138","0.4330078243572097","0.7849399641352868","0.1266594342499839","0","","","","","",""
"","do_trial","209","1337114","0.0-186.0-0.0","217.99999999976717","","","","51","0,1,1","3","coast","139","probe-111","0.4165015126923477","0.8183004749165141","0.07581094826547215","1","","","","","",""
"","do_trial","210","1343017","0.0-187.0-0.0","360","","","","50","1,0,0","3","coast","140","probe-75","0.35221686692333615","0.8157741172120564","0.0892815652186899","0","","","","","",""
"","do_trial","211","1349024","0.0-188.0-0.0","463","","","","49","0,1,0","3","coast","141","probe-217","0.2745885318980624","0.8574396814222232","0.09927024002860177","0","","","","","",""
"","do_trial","212","1354929","0.0-189.0-0.0","360","","","","51","0,1,0","3","coast","142","probe-108","0.4104244479802482","0.9437455523038817","0.17822277579414053","0","","","","","",""
"","do_trial","213","1360713","0.0-190.0-0.0","238","","","","50","1,0,0","3","coast","143","probe-14","0.4057626250133511","0.7866989675832933","0.22619521684915975","0","","","","","",""
"","do_trial","214","1366330","0.0-191.0-0.0","68","","","","49","0,1,1","3","coast","144","probe-06","0.4058435821500832","0.8144852226096156","0.11267019394576643","0","","","","","",""
"","do_trial","215","1372164","0.0-192.0-0.0","294","","","","51","0,0,0","3","coast","145","probe-232","0.47542148514397886","0.8329978113029596","0.28984799806129696","0","","","","","",""
"","do_trial","216","1377984","0.0-193.0-0.0","275","","","","50","1,1,0","3","coast","146","probe-166","0.45861310676316164","0.9156111261675048","0.14778130911029108","1","","","","","",""
"","do_trial","217","1384044","0.0-194.0-0.0","514.9999999997672","","","","50","0,1,0","3","coast","147","probe-54","0.3963381796661448","0.9390211729015111","0.09154332773878526","1","","","","","",""
"","do_trial","218","1390691","0.0-195.0-0.0","1100","","","","50","1,1,1","3","coast","148","probe-209","0.3370818987714606","0.703321681880814","0.08652427524810678","1","","","","","",""
"","do_trial","219","1397637","0.0-196.0-0.0","1396","","","","49","1,1,0","3","coast","149","probe-93","0.287992688050436","0.7834706652335305","0.13456753083178727","1","","","","","",""
"","do_trial","220","1403695","0.0-197.0-0.0","513","","","","50","0,1,0","3","coast","150","probe-56","0.383475129403659","0.7895211743550785","0.18467900052537775","1","","","","","",""
"","do_trial","221","1410096","0.0-198.0-0.0","856","","","","50","0,1,0","3","coast","151","probe-190","0.49358268498259605","0.7451984854278898","0.22886376413715467","1","","","","","",""
"","do_trial","222","1416252","0.0-199.0-0.0","608.9999999997672","","","","51","0,1,0","3","coast","152","probe-123","0.444112845948901","0.7215506407243002","0.07067610444275696","0","","","","","",""
"","do_trial","223","1422356","0.0-200.0-0.0","557.9999999997672","","","","49","1,1,0","3","coast","153","probe-187","0.31499102743295615","0.757530840052404","0.2740902209505637","1","","","","","",""
"","do_trial","224","1428216","0.0-201.0-0.0","313.99999999976717","","","","50","1,1,0","3","coast","154","probe-170","0.4033556883342743","0.7593232936984765","0.2118568522575799","1","","","","","",""
"","do_trial","225","1433837","0.0-202.0-0.0","78","","","","49","0,1,0","3","coast","155","probe-177","0.4521703871267472","0.8096769680536935","0.1525471164548589","0","","","","","",""
"","do_trial","226","1439690","0.0-203.0-0.0","307.00000000023283","","","","50","0,1,0","3","coast","156","probe-197","0.4729192057362537","0.8077016815655286","0.1290420945725532","1","","","","","",""
"","do_trial","227","1445277","0.0-204.0-0.0","42.00000000023283","","","","51","1,0,1","3","coast","157","probe-02","0.4525898651487904","0.8945745149667584","0.18238181037002696","1","","","","","",""
"","do_trial","228","1451177","0.0-205.0-0.0","355","","","","49","0,1,0","3","coast","158","probe-151","0.4270448968239161","0.8521442245675952","0.1181899473806535","0","","","","","",""
"","do_trial","229","1457068","0.0-206.0-0.0","350","","","","50","1,1,0","3","coast","159","probe-179","0.5122338249182279","0.9118664031479737","0.1912148732637459","1","","","","","",""
"","do_bye","230","1458576","0.0-207.0-0.0","null","","","","null","","","","","","","","","","","","","","",""
"","do_travel","231","1464581","0.0-208.0-0.0","null","","","","null","","","","","","","","","","","","","","",""
"","do_welcome","232","1466090","0.0-208.0-1.0","null","","","","null","","","","","","","","","","","","","","",""
"","do_trial","233","1474044","0.0-209.0-0.0","2409","","","","50","1,1,0","4","highway","160","probe-156","0.6039367427921645","1","0.1625382788513717","1","","","","","",""
"","do_trial","234","1479957","0.0-210.0-0.0","369","","","","49","0,1,0","4","highway","161","probe-167","0.5488664148232194","1","0.10323411311186767","0","","","","","",""
"","do_trial","235","1485877","0.0-211.0-0.0","374","","","","50","1,1,0","4","highway","162","probe-35","0.6792085372636472","1","0.2617767874030601","1","","","","","",""
"","do_trial","236","1491783","0.0-212.0-0.0","361.99999999976717","","","","50","0,1,1","4","highway","163","probe-46","0.5556827923086027","1","0.29691935057715596","1","","","","","",""
"","do_trial","237","1497666","0.0-213.0-0.0","337","","","","50","0,1,0","4","highway","164","probe-174","0.4873490097660782","0.8862403780584438","0.21541369328235127","1","","","","","",""
"","do_trial","238","1505641","0.0-214.0-0.0","2432.000000000233","","","","51","0,1,1","4","highway","165","probe-65","0.5379505644337613","0.8378312366507317","0.0860789342596504","1","","","","","",""
"","do_trial","239","1511572","0.0-215.0-0.0","387.00000000023283","","","","51","1,1,0","4","highway","166","probe-08","0.38509138085797345","0.842776880468656","0.06542615999034307","0","","","","","",""
"","do_trial","240","1517544","0.0-216.0-0.0","429.00000000023283","","","","49","0,1,0","4","highway","167","probe-202","0.2949058267219729","0.9231043939117645","0.14240814800043122","0","","","","","",""
"","do_trial","241","1523554","0.0-217.0-0.0","464","","","","50","0,0,0","4","highway","168","probe-220","0.41143784256635263","0.8892193937854391","0.2183026122573231","0","","","","","",""
"","do_trial","242","1529491","0.0-218.0-0.0","390","","","","51","0,1,1","4","highway","169","probe-107","0.41732142428095637","0.8734666758609864","0.19584869681898254","1","","","","","",""
"","do_trial","243","1535732","0.0-219.0-0.0","697.9999999997672","","","","51","0,1,0","4","highway","170","probe-01","0.5702553213217505","0.6078316709145771","0.2706664213220645","0","","","","","",""
"","do_trial","244","1541542","0.0-220.0-0.0","268.99999999976717","","","","49","0,1,0","4","highway","171","probe-110","0.6984324034517633","0.4186509827452911","0.366847503892397","0","","","","","",""
"","do_trial","245","1547430","0.0-221.0-0.0","345","","","","50","1,0,0","4","highway","172","probe-37","0.8027055001327951","0.2221818644166091","0.4997109176553724","0","","","","","",""
"","do_trial","246","1553394","0.0-222.0-0.0","423","","","","49","1,0,0","4","highway","173","probe-33","0.8330799925268245","0.18301508674592729","0.3597941743404184","1","","","","","",""
"","do_trial","247","1559306","0.0-223.0-0.0","367","","","","49","0,0,0","4","highway","174","probe-25","0.8860357180181041","0.19515172670772402","0.5330297227933771","0","","","","","",""
"","do_trial","248","1564934","0.0-224.0-0.0","86","","","","51","1,1,0","4","highway","175","probe-91","0.9356007755301134","0.24610086606120238","0.4076863295200594","0","","","","","",""
"","do_trial","249","1571039","0.0-225.0-0.0","564.9999999997672","","","","50","1,0,0","4","highway","176","probe-132","0.949643717021018","0.17363261442587244","0.529316089272852","0","","","","","",""
"","do_trial","250","1576905","0.0-226.0-0.0","319","","","","49","1,0,0","4","highway","177","probe-20","0.9287091412520261","0.06475018341160009","0.5233909048981877","1","","","","","",""
"","do_trial","251","1582764","0.0-227.0-0.0","314","","","","49","1,0,0","4","highway","178","probe-128","0.9220731174019499","0.1322436786230974","0.3154174396758572","1","","","","","",""
"","do_trial","252","1588313","0.0-228.0-0.0","4","","","","51","0,0,1","4","highway","179","probe-62","0.8928979575741824","0.196968328339123","0.435184839919006","1","","","","","",""
"","do_trial","253","1593941","0.0-229.0-0.0","84","","","","50","1,0,1","4","highway","180","probe-95","0.8326217148970874","0.33850387999181814","0.4018321542302165","0","","","","","",""
"","do_trial","254","1599749","0.0-230.0-0.0","264","","","","49","0,0,0","4","highway","181","probe-163","0.8089604223568385","0.29488783231716653","0.44359897557588307","0","","","","","",""
"","do_trial","255","1605376","0.0-231.0-0.0","82","","","","49","1,0,1","4","highway","182","probe-165","0.7301306613077886","0.22167416097289866","0.38128202004856143","1","","","","","",""
"","do_trial","256","1611542","0.0-232.0-0.0","618","","","","50","1,0,1","4","highway","183","probe-211","0.712124263776389","0.15723021589896088","0.3083747854544438","0","","","","","",""
"","do_trial","257","1617377","0.0-233.0-0.0","291","","","","51","1,0,0","4","highway","184","probe-146","0.8503996244619897","0.19922033607949488","0.4448286699652445","0","","","","","",""
"","do_trial","258","1623433","0.0-234.0-0.0","510","","","","49","1,0,1","4","highway","185","probe-161","0.9248256665646244","0.07656727127739762","0.26775958635217556","1","","","","","",""
"","do_trial","259","1630629","0.0-235.0-0.0","1650","","","","49","1,0,0","4","highway","186","probe-152","0.7244318446907179","0.08881757087920314","0.25374125517143087","1","","","","","",""
"","do_trial","260","1636356","0.0-236.0-0.0","180","","","","49","1,1,1","4","highway","187","probe-130","0.8095211644626147","0.09017085950401019","0.17971378725885104","1","","","","","",""
"","do_trial","261","1642700","0.0-237.0-0.0","799","","","","49","0,0,0","4","highway","188","probe-164","0.8151747473918972","0.06673659244884009","0.3992585648819686","0","","","","","",""
"","do_trial","262","1648700","0.0-238.0-0.0","454","","","","50","0,0,0","4","highway","189","probe-168","0.8277382476030998","0.10964292703507036","0.3112795393904943","0","","","","","",""
"","do_trial","263","1654682","0.0-239.0-0.0","436","","","","51","1,0,1","4","highway","190","probe-157","0.802307903364208","0.19231610793079623","0.2685094303691022","1","","","","","",""
"","do_trial","264","1661126","0.0-240.0-0.0","901","","","","51","1,1,1","4","highway","191","probe-47","0.7740819306675032","0.24452388608484357","0.33596007655711246","1","","","","","",""
"","do_trial","265","1666740","0.0-241.0-0.0","71.00000000023283","","","","51","1,1,1","4","highway","192","probe-154","0.6808895852214883","0.29501345607870627","0.23202046146578748","1","","","","","",""
"","do_trial","266","1672390","0.0-242.0-0.0","111.99999999976717","","","","51","1,0,1","4","highway","193","probe-192","0.9330905518050121","0.0649473149699001","0.31242947503761787","1","","","","","",""
"","do_trial","267","1678628","0.0-243.0-0.0","694.9999999997672","","","","51","1,0,0","4","highway","194","probe-31","0.8962306886757979","0.06241490883908415","0.1890444419132136","0","","","","","",""
"","do_trial","268","1684500","0.0-244.0-0.0","324.99999999976717","","","","50","1,1,0","4","highway","195","probe-05","0.714643922406036","0.18219273734849892","0.27665009717089223","1","","","","","",""
"","do_trial","269","1690589","0.0-245.0-0.0","543.0000000002328","","","","50","1,0,1","4","highway","196","probe-153","0.7661026190349627","0.0768229917125252","0.2507232675009919","0","","","","","",""
"","do_trial","270","1696427","0.0-246.0-0.0","292","","","","49","1,0,0","4","highway","197","probe-194","0.844162495249547","0.08964329165764348","0.3210939576998918","1","","","","","",""
"","do_trial","271","1702370","0.0-247.0-0.0","398","","","","49","1,0,0","4","highway","198","probe-142","0.7154889804967016","0.18985688770980994","0.45423967175523106","1","","","","","",""
"","do_trial","272","1708173","0.0-248.0-0.0","258.99999999976717","","","","49","0,0,0","4","highway","199","probe-85","0.7236896645168587","0.15127050690948704","0.46425219121494865","0","","","","","",""
"","do_bye","273","1709681","0.0-249.0-0.0","null","","","","null","","","","","","","","","","","","","","",""
"","do_travel","274","1715686","0.0-250.0-0.0","null","","","","null","","","","","","","","","","","","","","",""
"","do_welcome","275","1717194","0.0-250.0-1.0","null","","","","null","","","","","","","","","","","","","","",""
"","do_trial","276","1723764","0.0-251.0-0.0","1024.9999999997672","","","","50","1,0,0","5","countryside","200","probe-51","1","0.16381785012896313","0.47624217005873215","0","","","","","",""
"","do_trial","277","1729695","0.0-252.0-0.0","384","","","","49","1,0,1","5","countryside","201","probe-216","1","0.27208419193480143","0.5734628152716135","1","","","","","",""
"","do_trial","278","1735851","0.0-253.0-0.0","613","","","","49","1,1,1","5","countryside","202","probe-188","1","0.2315509132458191","0.4942949745797439","1","","","","","",""
"","do_trial","279","1741451","0.0-254.0-0.0","54","","","","49","1,0,1","5","countryside","203","probe-45","1","0.20598287989259306","0.37354025175838235","1","","","","","",""
"","do_trial","280","1747267","0.0-255.0-0.0","270","","","","51","1,0,0","5","countryside","204","probe-64","0.8260112114379541","0.15075502383732967","0.28361013601348417","0","","","","","",""
"","do_trial","281","1753190","0.0-256.0-0.0","380.00000000023283","","","","49","0,0,1","5","countryside","205","probe-21","0.759766570085188","0.2375888786367984","0.2961783449619184","0","","","","","",""
"","do_trial","282","1758933","0.0-257.0-0.0","201","","","","50","1,0,0","5","countryside","206","probe-124","0.8061065213855841","0.18923979430328383","0.15603616488459565","0","","","","","",""
"","do_trial","283","1764884","0.0-258.0-0.0","404","","","","51","1,1,0","5","countryside","207","probe-210","0.7514073851092736","0.15545261540480057","0.27979829346925644","0","","","","","",""
"","do_trial","284","1770818","0.0-259.0-0.0","386","","","","49","1,0,0","5","countryside","208","probe-204","0.797783940582935","0.13399909708176724","0.3108488924056736","1","","","","","",""
"","do_trial","285","1776608","0.0-260.0-0.0","244.99999999976717","","","","49","1,0,0","5","countryside","209","probe-94","0.9196020312227144","0.10842524735003681","0.3973247428979281","1","","","","","",""
"","do_trial","286","1782437","0.0-261.0-0.0","288","","","","49","1,1,0","5","countryside","210","probe-199","0.6908098291010301","0.4906453508224031","0.28868086850104246","1","","","","","",""
"","do_trial","287","1788070","0.0-262.0-0.0","83","","","","49","0,0,0","5","countryside","211","probe-03","0.47430524658060946","0.42743503174425584","0.1213373399293735","0","","","","","",""
"","do_trial","288","1793689","0.0-263.0-0.0","73","","","","50","0,1,0","5","countryside","212","probe-40","0.4691271172039668","0.3496418422331569","0.09771312621836989","1","","","","","",""
"","do_trial","289","1799233","0.0-264.0-0.0","0","","","","51","0,1,0","5","countryside","213","probe-42","0.5775903687554967","0.5208336410936772","0.05597119551641954","0","","","","","",""
"","do_trial","290","1804985","0.0-265.0-0.0","209","","","","49","1,1,0","5","countryside","214","probe-227","0.5615132682589357","0.7311325952704519","0.11567694628739858","1","","","","","",""
"","do_trial","291","1810645","0.0-266.0-0.0","114","","","","50","0,1,1","5","countryside","215","probe-15","0.5448890775074152","0.6996070090198069","0.22248393939476732","1","","","","","",""
"","do_trial","292","1816553","0.0-267.0-0.0","358","","","","49","0,0,0","5","countryside","216","probe-235","0.39720815907830137","0.6919001045527046","0.21807167950114476","0","","","","","",""
"","do_trial","293","1822632","0.0-268.0-0.0","532","","","","49","1,1,0","5","countryside","217","probe-158","0.39696002875109365","0.7004508871482509","0.14516159235203735","1","","","","","",""
"","do_trial","294","1828410","0.0-269.0-0.0","233.00000000023283","","","","51","1,1,1","5","countryside","218","probe-201","0.3732704810051817","0.6889040172188352","0.23431013980307733","1","","","","","",""
"","do_trial","295","1834475","0.0-270.0-0.0","522.0000000002328","","","","51","0,1,0","5","countryside","219","probe-207","0.49429186660186275","0.8493893274709832","0.05425157571918628","0","","","","","",""
"","do_trial","296","1840070","0.0-271.0-0.0","49","","","","49","1,1,0","5","countryside","220","probe-172","0.47735440024371956","0.8113594961708112","0.06961477103518993","1","","","","","",""
"","do_trial","297","1845784","0.0-272.0-0.0","172","","","","49","1,1,0","5","countryside","221","probe-66","0.36474098508985436","0.8435021898326065","0.1622619096977808","1","","","","","",""
"","do_trial","298","1851328","0.0-273.0-0.0","0","","","","50","0,0,0","5","countryside","222","probe-233","0.3855982019256415","0.8424864315560566","0.08554245166465821","0","","","","","",""
"","do_trial","299","1856988","0.0-274.0-0.0","119","","","","51","0,1,0","5","countryside","223","probe-19","0.4357237822626717","0.8929582699951883","0.08490668222589488","0","","","","","",""
"","do_trial","300","1862569","0.0-275.0-0.0","37","","","","49","1,1,0","5","countryside","224","probe-184","0.36152593866079896","0.9102749575454889","0.056648078408394566","1","","","","","",""
"","do_trial","301","1868261","0.0-276.0-0.0","151","","","","49","1,1,0","5","countryside","225","probe-125","0.4058861923781017","0.809230518592149","0.07291692445525529","1","","","","","",""
"","do_trial","302","1874030","0.0-277.0-0.0","215.99999999976717","","","","49","1,1,0","5","countryside","226","probe-181","0.3010212663320516","0.9177345266085205","0.09969829581135246","1","","","","","",""
"","do_trial","303","1879632","0.0-278.0-0.0","54","","","","51","0,1,0","5","countryside","227","probe-193","0.4017867321345801","0.9195940163345635","0.07239128716958516","0","","","","","",""
"","do_trial","304","1885478","0.0-279.0-0.0","294","","","","49","0,1,0","5","countryside","228","probe-141","0.40779172350041715","0.9427294713228558","0.11382897537141977","0","","","","","",""
"","do_trial","305","1891346","0.0-280.0-0.0","321","","","","49","0,1,0","5","countryside","229","probe-36","0.35022140655205086","0.838519283091112","0.13796960663445754","0","","","","","",""
"","do_trial","306","1896965","0.0-281.0-0.0","68.00000000023283","","","","50","0,1,0","5","countryside","230","probe-18","0.3940867715388167","0.7898630020370027","0.10590183091158409","1","","","","","",""
"","do_trial","307","1903995","0.0-282.0-0.0","1483.9999999997672","","","","51","0,1,0","5","countryside","231","probe-96","0.4364573351684321","0.7616670523944251","0.11766982457709414","0","","","","","",""
"","do_trial","308","1909680","0.0-283.0-0.0","136","","","","50","1,1,0","5","countryside","232","probe-32","0.48715101281281875","0.6839400931352901","0.11925412657440003","1","","","","","",""
"","do_trial","309","1915683","0.0-284.0-0.0","453","","","","51","0,1,0","5","countryside","233","probe-07","0.32798302324454","0.7331647955647985","0.11073982986756117","0","","","","","",""
"","do_trial","310","1921230","0.0-285.0-0.0","2","","","","49","0,1,0","5","countryside","234","probe-97","0.25601888098921294","0.7498548298936553","0.1718964953419548","0","","","","","",""
"","do_trial","311","1926924","0.0-286.0-0.0","143","","","","50","1,1,0","5","countryside","235","probe-234","0.27749459661084375","0.6846177493072391","0.11710004772244222","1","","","","","",""
"","do_trial","312","1932647","0.0-287.0-0.0","175.00000000023283","","","","50","0,1,0","5","countryside","236","probe-87","0.41960423990696727","0.7385717113269812","0.06851918213787371","1","","","","","",""
"","do_trial","313","1940427","0.0-288.0-0.0","2231","","","","49","1,1,0","5","countryside","237","probe-58","0.346238422052425","0.6548679109953807","0.0800036091412477","1","","","","","",""
"","do_trial","314","1946296","0.0-289.0-0.0","318","","","","49","0,1,0","5","countryside","238","probe-203","0.35044874410187393","0.7563835663436942","0.12023986587090914","0","","","","","",""
"","do_trial","315","1952082","0.0-290.0-0.0","235.99999999976717","","","","51","0,1,0","5","countryside","239","probe-189","0.3487327249498931","0.9120971272102313","0.12059172839598956","0","","","","","",""
"","do_bye","316","1953592","0.0-291.0-0.0","null","","","","null","","","","","","","","","","","","","","",""
"","html-keyboard-response","317","2000586","0.0-291.0-1.0","46992.99999999977","<div class='center'><p>You may take a break now!</p><p> Stretch for a little bit. Get a glass of water.</p><p> You have two minutes to rest. Then, the game will automatically move on.</p><p>If you’d like to get started on the second half of the experiment sooner, then press the <b>space bar</b></p></div>","32","","","","","","","","","","","","","","","","",""
"","html-keyboard-response","318","2024772","0.0-291.0-2.0","24183.000000000233","<div class='center'><p>You’ve arrived at the final destination of your journey! Unfortunately, it’s very foggy out, so you won’t be able to see it in the distance like in previous places you've visited.</p><p>You’ll still be deciding which pirates you want to rob ships. However, because of the fog you also won’t be able to see the ship in the distance. </p><p><b>[Press the space bar to continue]</b></p></div>","32","","","","","","","","","","","","","","","","",""
"","html-keyboard-response","319","2042343","0.0-291.0-3.0","17566.000000000233","<div class='center'><p> Sometimes you’ll be asked if you’ve seen a ship before (see the example below). You will use the 5, 6, 7, 8 buttons on your keyboard to respond. </p><p> If you definitely did not see the ship, pick the the big red thumbs down by pressing <b>5</b>.</p><p> If you don’t think you saw it but aren’t sure, then pick the small red thumbs down by pressing <b>6</b>.</p><p> If you think you might have seen it, then pick the small green thumbs up by pressing <b>7</b>.</p><p> If you definitely did see this ship before, then pick the big thumb green thumbs up by pressing <b>8</b>.</p><p> If you recall correctly, then you’ll get a gold coin!</p><p><b>[Press the space bar to begin the next phase of the experiment]</b></p><p><img src='run_exp/static/images/example_recog_trial.png' height='500'></p></div>","32","","","","","","","","","","","","","","","","",""
"","do_welcome","320","2043850","0.0-291.0-4.0","null","","","","null","","","","","","","","","","","","","","",""
"","do_trial","321","2049905","0.0-292.0-0.0","null","","","","null","0,1,1","6","blank","240","null","0.33586553917396555","1","0.2842177371071108","","","","","","",""
"","do_trial","322","2053991","0.0-293.0-0.0","538","","","","49","1,1,1","6","blank","241","null","0.27552420374194864","0.921971286023706","0.30045207973460625","1","","","","","",""
"","do_trial","323","2058832","0.0-294.0-0.0","1294.0000000002328","","","","50","0,1,1","6","blank","242","null","0.39533279723333825","0.8549029962119405","0.3709283649596262","1","","","","","",""
"","do_trial","324","2064515","0.0-295.0-0.0","2130","","","","49","1,1,1","6","blank","243","null","0.4145184600998076","0.7394636815673602","0.31622172474157034","1","","","","","",""
"","do_trial","325","2068355","0.0-296.0-0.0","291","","","","51","0,1,1","6","blank","244","null","0.430768291620264","0.7896559206885454","0.4261866813568216","1","","","","","",""
"","do_trial","326","2071904","0.0-297.0-0.0","0","","","","49","1,1,0","6","blank","245","null","0.2487496639503318","0.8688999099570194","0.42278957355696994","1","","","","","",""
"","do_recog","327","2076816","0.0-298.0-0.0","3399","","","","56","","","","246","probe-252","","","","","0","[object Object]","null","null","0",""
"","do_trial","328","2082864","0.0-299.0-0.0","null","","","","null","0,1,1","6","blank","247","null","0.3151153387262113","0.8229412478858822","0.3357415128515229","","","","","","",""
"","do_recog","329","2088878","0.0-300.0-0.0","null","","","","null","","","","248","probe-224","","","","","1","[object Object]","127","3","0",""
"","do_trial","330","2094445","0.0-301.0-0.0","2016","","","","49","1,1,0","6","blank","249","null","0.21123611026526148","0.9022251863773544","0.1818916276976865","1","","","","","",""
"","do_recog","331","2097119","0.0-302.0-0.0","1163","","","","56","","","","250","probe-251","","","","","0","[object Object]","null","null","0",""
"","do_trial","332","2101798","0.0-303.0-0.0","1127","","","","49","0,1,0","6","blank","251","null","0.10053493361134631","0.933323526433875","0.13406694342175346","0","","","","","",""
"","do_trial","333","2105982","0.0-304.0-0.0","635.9999999995343","","","","51","0,1,0","6","blank","252","null","0.3324731743624038","0.7990152527660602","0.17808500064209784","0","","","","","",""
"","do_trial","334","2109930","0.0-305.0-0.0","395","","","","50","1,1,1","6","blank","253","null","0.4264487848549682","0.4900823508324647","0.5157876082529785","1","","","","","",""
"","do_trial","335","2114299","0.0-306.0-0.0","816","","","","50","1,1,0","6","blank","254","null","0.451504067549119","0.3756418270860334","0.6210318685458889","1","","","","","",""
"","do_trial","336","2118396","0.0-307.0-0.0","536","","","","50","1,1,1","6","blank","255","null","0.40742276609134875","0.2964876224292492","0.9037737530898244","1","","","","","",""
"","do_trial","337","2121942","0.0-308.0-0.0","3","","","","49","0,1,1","6","blank","256","null","0.3793424019986018","0.20328772596459577","0.8229638080408012","0","","","","","",""
"","do_recog","338","2124777","0.0-309.0-0.0","1324","","","","56","","","","257","probe-228","","","","","1","[object Object]","86","2","1",""
"","do_trial","339","2129026","0.0-310.0-0.0","701","","","","49","1,0,0","6","blank","258","null","0.4488402787468583","0.11882941064715315","0.786104361923007","1","","","","","",""
"","do_recog","340","2131445","0.0-311.0-0.0","908","","","","54","","","","259","probe-35","","","","","1","[object Object]","162","4","0",""
"","do_trial","341","2137298","0.0-312.0-0.0","2295","","","","49","1,0,1","6","blank","260","null","0.37147617184517445","0.10614142265444183","0.8244063129812372","1","","","","","",""
"","do_trial","342","2141361","0.0-313.0-0.0","499","","","","51","1,1,1","6","blank","261","null","0.5005398033878997","0.17218261137786908","0.9022353637937097","1","","","","","",""
"","do_trial","343","2145547","0.0-314.0-0.0","622.0000000004657","","","","51","0,0,1","6","blank","262","null","0.5950662318348355","0.3115032164308564","0.8505923943531619","1","","","","","",""
"","do_trial","344","2149650","0.0-315.0-0.0","549","","","","50","1,0,1","6","blank","263","null","0.6057153028635072","0.1813857291226921","0.7700218182534668","0","","","","","",""
"","do_recog","345","2153180","0.0-316.0-0.0","2019","","","","54","","","","264","probe-215","","","","","1","[object Object]","129","3","0",""
"","do_trial","346","2157628","0.0-317.0-0.0","904","","","","49","0,0,0","6","blank","265","null","0.4377528618611982","0.13345125411052836","0.8486528688081179","0","","","","","",""
"","do_recog","347","2161288","0.0-318.0-0.0","2149","","","","56","","","","266","probe-88","","","","","1","[object Object]","125","3","1",""
"","do_trial","348","2165408","0.0-319.0-0.0","575","","","","51","0,0,1","6","blank","267","null","0.21794806822884005","0.0973802009329184","0.8208110012571281","1","","","","","",""
"","do_trial","349","2169297","0.0-320.0-0.0","346","","","","50","0,0,0","6","blank","268","null","0.3674362734136171","0.16012232959394598","0.6747918737799884","0","","","","","",""
"","do_trial","350","2173149","0.0-321.0-0.0","306","","","","49","0,0,1","6","blank","269","null","0.41839464651852065","0.082581773812385","0.7400678208091004","0","","","","","",""
"","do_trial","351","2176693","0.0-322.0-0.0","0","","","","51","1,0,1","6","blank","270","null","0.5237645848890577","0.0754324722219658","0.861500648618511","1","","","","","",""
"","do_trial","352","2180592","0.0-323.0-0.0","357","","","","51","0,0,0","6","blank","271","null","0.5835042346712329","0.09251334605419585","0.7699024697085018","0","","","","","",""
"","do_recog","353","2184323","0.0-324.0-0.0","2219.9999999995343","","","","54","","","","272","probe-22","","","","","1","[object Object]","83","2","0",""
"","do_trial","354","2188543","0.0-325.0-0.0","676","","","","50","1,1,1","6","blank","273","null","0.5310578998084174","0.16721401200241176","0.8626181407193895","1","","","","","",""
"","do_recog","355","2191412","0.0-326.0-0.0","1358","","","","56","","","","274","probe-249","","","","","0","[object Object]","null","null","0",""
"","do_trial","356","2195699","0.0-327.0-0.0","739","","","","49","0,1,1","6","blank","275","null","0.4782887564649647","0.27248149198195154","0.8288655196315466","0","","","","","",""
"","do_recog","357","2199138","0.0-328.0-0.0","1927","","","","55","","","","276","probe-173","","","","","1","[object Object]","41","1","1",""
"","do_trial","358","2203176","0.0-329.0-0.0","496","","","","50","0,0,1","6","blank","277","null","0.4012826567956627","0.17596950336881118","0.7501868549291543","0","","","","","",""
"","do_trial","359","2206876","0.0-330.0-0.0","157","","","","51","1,0,1","6","blank","278","null","0.39594933801674986","0.1094218816699978","0.8751537359861419","1","","","","","",""
"","do_trial","360","2210623","0.0-331.0-0.0","202","","","","49","0,0,1","6","blank","279","null","0.39642449008709113","0.09118810101502225","0.7780295606297298","0","","","","","",""
"","do_trial","361","2214260","0.0-332.0-0.0","91.99999999953434","","","","50","1,0,1","6","blank","280","null","0.638652176078479","0.07135420772141637","1","0","","","","","",""
"","do_trial","362","2217807","0.0-333.0-0.0","0","","","","49","1,0,1","6","blank","281","null","0.3883170056293331","0.15804734448998084","0.8541283285613015","1","","","","","",""
"","do_trial","363","2221770","0.0-334.0-0.0","421","","","","49","0,0,1","6","blank","282","null","0.30706009935507966","0.059088942361818705","0.8469834135426009","0","","","","","",""
"","do_recog","364","2225200","0.0-335.0-0.0","1918","","","","54","","","","283","probe-81","","","","","1","[object Object]","122","3","0",""
"","do_trial","365","2229489","0.0-336.0-0.0","746","","","","49","1,0,1","6","blank","284","null","0.45466598299069844","0.13897093844436995","0.9083582044126038","1","","","","","",""
"","do_recog","366","2231938","0.0-337.0-0.0","937.0000000004657","","","","56","","","","285","probe-202","","","","","1","[object Object]","167","4","1",""
"","do_trial","367","2235893","0.0-338.0-0.0","407.99999999953434","","","","49","1,0,1","6","blank","286","null","0.4088079042986332","0.09103034392281305","0.8804415432657361","1","","","","","",""
"","do_trial","368","2240209","0.0-339.0-0.0","768.9999999995343","","","","51","1,0,0","6","blank","287","null","0.3807022122881686","0.05540377178184417","0.8739420318682523","0","","","","","",""
"","do_trial","369","2243751","0.0-340.0-0.0","0","","","","49","1,0,1","6","blank","288","null","0.37907529220898395","0.08619033489681224","0.8718762435544664","1","","","","","",""
"","do_trial","370","2247387","0.0-341.0-0.0","92","","","","49","0,0,1","6","blank","289","null","0.379618191074458","0.12226110165266037","0.8517272732455987","0","","","","","",""
"","do_trial","371","2251085","0.0-342.0-0.0","155","","","","50","0,0,1","6","blank","290","null","0.19419185476119427","0.15777979791937044","0.9278679450045485","0","","","","","",""
"","do_recog","372","2253434","0.0-343.0-0.0","839","","","","56","","","","291","probe-167","","","","","1","[object Object]","161","4","1",""
"","do_trial","373","2257450","0.0-344.0-0.0","472","","","","49","0,0,1","6","blank","292","null","0.3536570873897404","0.12842612652853957","0.8277188570671856","0","","","","","",""
"","do_recog","374","2259377","0.0-345.0-0.0","416","","","","56","","","","293","probe-223","","","","","1","[object Object]","48","1","1",""
"","do_trial","375","2263745","0.0-346.0-0.0","819.0000000004657","","","","49","0,0,1","6","blank","294","null","0.26614335228792124","0.11040219661178746","0.6964826267044838","0","","","","","",""
"","do_recog","376","2267608","0.0-347.0-0.0","2349","","","","54","","","","295","probe-51","","","","","1","[object Object]","200","5","0",""
"","do_trial","377","2271914","0.0-348.0-0.0","758","","","","49","0,0,1","6","blank","296","null","0.40271562837762687","0.128471661365575","0.6971230601765568","0","","","","","",""
"","do_recog","378","2275073","0.0-349.0-0.0","1647","","","","56","","","","297","probe-21","","","","","1","[object Object]","205","5","1",""
"","do_trial","379","2280419","0.0-350.0-0.0","1795","","","","49","1,0,0","6","blank","298","null","0.5301683636752613","0.15562750648114304","0.5393935944363666","1","","","","","",""
"","do_recog","380","2283255","0.0-351.0-0.0","1323","","","","56","","","","299","probe-216","","","","","1","[object Object]","201","5","1",""
"","do_trial","381","2287377","0.0-352.0-0.0","576","","","","49","0,0,1","6","blank","300","null","0.5103794200933938","0.19152108371127646","0.4361094670949832","0","","","","","",""
"","do_recog","382","2291482","0.0-353.0-0.0","2593","","","","54","","","","301","probe-64","","","","","1","[object Object]","204","5","0",""
"","do_trial","383","2295502","0.0-354.0-0.0","475","","","","51","1,0,0","6","blank","302","null","0.5201802231599904","0.29213114395916817","0.18463137083575723","0","","","","","",""
"","do_trial","384","2299505","0.0-355.0-0.0","572","","","","50","1,0,0","6","blank","303","null","0.7618084817898987","0.2200481020129233","0.2511389470460075","0","","","","","",""
"","do_trial","385","2303497","0.0-356.0-0.0","446","","","","49","0,0,1","6","blank","304","null","0.7155747920664064","0.18620607289999805","0.3435780895858689","0","","","","","",""
"","do_trial","386","2307375","0.0-357.0-0.0","334","","","","51","0,0,0","6","blank","305","null","0.7435379964116672","0.2537430533192303","0.3003983946769431","0","","","","","",""
"","do_recog","387","2310904","0.0-358.0-0.0","2019","","","","56","","","","306","probe-238","","","","","1","[object Object]","45","1","1",""
"","do_trial","388","2314838","0.0-359.0-0.0","387","","","","49","1,0,1","6","blank","307","null","0.9182691581908161","0.12441234683976937","0.4947221564657619","1","","","","","",""
"","do_trial","389","2318920","0.0-360.0-0.0","536","","","","50","1,0,1","6","blank","308","null","0.9222556219886461","0.05059824096384583","0.3915792973411156","0","","","","","",""
"","do_recog","390","2321587","0.0-361.0-0.0","1156","","","","56","","","","309","probe-231","","","","","1","[object Object]","120","3","1",""
"","do_trial","391","2326468","0.0-362.0-0.0","1334","","","","49","1,0,1","6","blank","310","null","0.9186194452041039","0.07486431853076819","0.4697265265805627","1","","","","","",""
"","do_recog","392","2329035","0.0-363.0-0.0","1057","","","","56","","","","311","probe-120","","","","","1","[object Object]","43","1","1",""
"","do_trial","393","2333677","0.0-364.0-0.0","1106.9999999995343","","","","49","1,0,0","6","blank","312","null","0.8544064778748997","0.14319740776630677","0.37003061758435757","1","","","","","",""
"","do_trial","394","2337819","0.0-365.0-0.0","605","","","","49","1,0,1","6","blank","313","null","0.8268806727846476","0.10775289954865384","0.37553811192744113","1","","","","","",""
"","do_trial","395","2341801","0.0-366.0-0.0","435","","","","49","1,0,0","6","blank","314","null","0.8651776812551838","0.07025746935558817","0.3733887150564823","1","","","","","",""
"","do_recog","396","2344834","0.0-367.0-0.0","1523","","","","56","","","","315","probe-94","","","","","1","[object Object]","209","5","1",""
"","do_trial","397","2349152","0.0-368.0-0.0","774","","","","49","1,0,0","6","blank","316","null","0.8786018335787632","0.08473703438863255","0.5235122119851203","1","","","","","",""
"","do_recog","398","2352889","0.0-369.0-0.0","2226","","","","54","","","","317","probe-107","","","","","1","[object Object]","169","4","0",""
"","do_trial","399","2357148","0.0-370.0-0.0","714.9999999995343","","","","49","1,0,1","6","blank","318","null","0.9358451734876779","0.055953943101379515","0.4718644109629044","1","","","","","",""
"","do_recog","400","2360642","0.0-371.0-0.0","1984","","","","56","","","","319","probe-147","","","","","1","[object Object]","123","3","1",""
"","do_trial","401","2364904","0.0-372.0-0.0","718","","","","49","1,1,1","6","blank","320","null","0.9445499057844795","0.21688599534931793","0.5594876391728418","1","","","","","",""
"","do_recog","402","2369563","0.0-373.0-0.0","3148","","","","56","","","","321","probe-212","","","","","1","[object Object]","87","2","1",""
"","do_trial","403","2373830","0.0-374.0-0.0","721","","","","49","1,0,1","6","blank","322","null","0.8402508464487691","0.23739078439911954","0.4459906911154039","1","","","","","",""
"","do_recog","404","2377403","0.0-375.0-0.0","2062","","","","56","","","","323","probe-244","","","","","0","[object Object]","null","null","0",""
"","do_trial","405","2382151","0.0-376.0-0.0","1204","","","","50","1,0,0","6","blank","324","null","0.8322075846107945","0.09487035081066339","0.3595411326676397","0","","","","","",""
"","do_recog","406","2385049","0.0-377.0-0.0","1388","","","","56","","","","325","probe-104","","","","","1","[object Object]","49","1","1",""
"","do_trial","407","2389339","0.0-378.0-0.0","750","","","","49","1,0,0","6","blank","326","null","0.8239009003165488","0.0731030437956069","0.41638308193906476","1","","","","","",""
"","do_recog","408","2391905","0.0-379.0-0.0","1054","","","","56","","","","327","probe-124","","","","","1","[object Object]","206","5","1",""
"","do_trial","409","2396066","0.0-380.0-0.0","616","","","","49","1,0,1","6","blank","328","null","1","0.11962628970833648","0.3917806967088715","1","","","","","",""
"","do_recog","410","2398764","0.0-381.0-0.0","1188","","","","56","","","","329","probe-69","","","","","1","[object Object]","80","2","1",""
"","do_trial","411","2402973","0.0-382.0-0.0","666","","","","50","1,0,0","6","blank","330","null","0.8929586140365297","0.1306410477862222","0.46754230843694233","0","","","","","",""
"","do_recog","412","2406157","0.0-383.0-0.0","1673","","","","56","","","","331","probe-204","","","","","1","[object Object]","208","5","1",""
"","do_trial","413","2410119","0.0-384.0-0.0","418","","","","49","0,0,1","6","blank","332","null","0.8657536347532545","0.16638789362408016","0.6086515500159885","0","","","","","",""
"","do_recog","414","2412620","0.0-385.0-0.0","990","","","","56","","","","333","probe-220","","","","","1","[object Object]","168","4","1",""
"","do_trial","415","2416722","0.0-386.0-0.0","556","","","","51","1,1,0","6","blank","334","null","0.9488254871659163","0.22372431362458717","0.6135396298886564","0","","","","","",""
"","do_recog","416","2419071","0.0-387.0-0.0","838","","","","56","","","","335","probe-156","","","","","1","[object Object]","160","4","1",""
"","do_trial","417","2423506","0.0-388.0-0.0","893","","","","50","1,0,0","6","blank","336","null","0.8998725023575762","0.24595553300910517","0.4969386198511077","0","","","","","",""
"","do_recog","418","2425538","0.0-389.0-0.0","521","","","","56","","","","337","probe-82","","","","","1","[object Object]","128","3","1",""
"","do_trial","419","2429412","0.0-390.0-0.0","326","","","","49","1,0,0","6","blank","338","null","0.8556322496695965","0.13753705381773018","0.352918775165992","1","","","","","",""
"","do_trial","420","2433639","0.0-391.0-0.0","684","","","","50","1,0,0","6","blank","339","null","0.879581531409073","0.09873480292069191","0.37440341752422157","0","","","","","",""
"","do_trial","421","2437690","0.0-392.0-0.0","504","","","","51","0,1,0","6","blank","340","null","0.83208515106545","0.12068745284564247","0.44274843868714386","0","","","","","",""
"","do_trial","422","2441721","0.0-393.0-0.0","480","","","","50","1,0,0","6","blank","341","null","0.7843286597078484","0.10145009411794927","0.3960883779629512","0","","","","","",""
"","do_trial","423","2445800","0.0-394.0-0.0","529","","","","49","1,0,0","6","blank","342","null","0.8057087748012524","0.1289754669936628","0.42671238564361197","1","","","","","",""
"","do_recog","424","2448595","0.0-395.0-0.0","1285","","","","56","","","","343","probe-117","","","","","1","[object Object]","47","1","1",""
"","do_trial","425","2452779","0.0-396.0-0.0","638","","","","49","0,0,0","6","blank","344","null","0.6126798937036921","0.4062971789594612","0.34378102125268345","0","","","","","",""
"","do_recog","426","2456375","0.0-397.0-0.0","2086","","","","56","","","","345","probe-206","","","","","1","[object Object]","42","1","1",""
"","do_trial","427","2460604","0.0-398.0-0.0","682","","","","49","0,0,1","6","blank","346","null","0.3916524704754512","0.4543163768771988","0.2429442576106836","0","","","","","",""
"","do_trial","428","2464418","0.0-399.0-0.0","266","","","","51","1,1,0","6","blank","347","null","0.32766681495218863","0.5528922615964375","0.08503575466708937","0","","","","","",""
"","do_trial","429","2468162","0.0-400.0-0.0","198","","","","50","0,1,1","6","blank","348","null","0.30777539449098235","0.5791843509359722","0.18417357972166887","1","","","","","",""
"","do_trial","430","2472769","0.0-401.0-0.0","1053","","","","50","0,0,0","6","blank","349","null","0.2330913167634069","0.6417009993073485","0.3015154231455599","0","","","","","",""
"","do_trial","431","2476921","0.0-402.0-0.0","608.9999999995343","","","","50","0,1,1","6","blank","350","null","0.2091853176115851","0.8137686107106437","0.4070740979904275","1","","","","","",""
"","do_recog","432","2479736","0.0-403.0-0.0","1304","","","","56","","","","351","probe-210","","","","","1","[object Object]","207","5","1",""
"","do_trial","433","2483662","0.0-404.0-0.0","376","","","","49","0,0,0","6","blank","352","null","0.4032344908835221","0.7093384774450117","0.3490302549010379","0","","","","","",""
"","do_trial","434","2487893","0.0-405.0-0.0","688","","","","51","0,1,0","6","blank","353","null","0.33159988314988814","0.7104872316235391","0.2664833847835219","0","","","","","",""
"","do_recog","435","2490240","0.0-406.0-0.0","836","","","","56","","","","354","probe-174","","","","","1","[object Object]","164","4","1",""
"","do_trial","436","2494387","0.0-407.0-0.0","600.0000000004657","","","","49","0,1,0","6","blank","355","null","0.19942561919359197","0.6973056201419903","0.32808536810871597","0","","","","","",""
"","do_recog","437","2497056","0.0-408.0-0.0","1158","","","","56","","","","356","probe-200","","","","","1","[object Object]","89","2","1",""
"","do_trial","438","2501243","0.0-409.0-0.0","643","","","","49","0,1,0","6","blank","357","null","0.14594397209831952","0.7004717340776501","0.37474504783528245","0","","","","","",""
"","do_trial","439","2505276","0.0-410.0-0.0","491","","","","51","0,1,1","6","blank","358","null","0.23601665929056345","0.671003451193738","0.4024555807670271","1","","","","","",""
"","do_recog","440","2507755","0.0-411.0-0.0","968","","","","56","","","","359","probe-218","","","","","1","[object Object]","44","1","1",""
"","do_trial","441","2511768","0.0-412.0-0.0","468.99999999953434","","","","51","1,0,0","6","blank","360","null","0.3651418821264839","0.53229328214013","0.6173779009205599","0","","","","","",""
"","do_recog","442","2514015","0.0-413.0-0.0","736","","","","56","","","","361","probe-52","","","","","1","[object Object]","126","3","1",""
"","do_trial","443","2518414","0.0-414.0-0.0","856.0000000004657","","","","50","0,0,1","6","blank","362","null","0.2922661929423332","0.5861037476269699","0.5988920566410127","0","","","","","",""
"","do_trial","444","2522573","0.0-415.0-0.0","612","","","","49","0,1,0","6","blank","363","null","0.15316434941235485","0.5818558911000932","0.5451316316501744","0","","","","","",""
"","do_trial","445","2526519","0.0-416.0-0.0","399.00000000046566","","","","51","0,1,1","6","blank","364","null","0.0543782683594862","0.7722404369297888","0.6125102164011303","1","","","","","",""
"","do_recog","446","2529368","0.0-417.0-0.0","1338","","","","56","","","","365","probe-186","","","","","1","[object Object]","121","3","1",""
"","do_trial","447","2534234","0.0-418.0-0.0","1320","","","","49","0,1,0","6","blank","366","null","0.07863722323041056","0.6937279410594667","0.6655041268208717","0","","","","","",""
"","do_recog","448","2536657","0.0-419.0-0.0","912","","","","56","","","","367","probe-11","","","","","1","[object Object]","81","2","1",""
"","do_trial","449","2540890","0.0-420.0-0.0","687","","","","50","0,1,0","6","blank","368","null","0.08338554924805391","0.7514941009976548","0.3943616963197311","1","","","","","",""
"","do_trial","450","2545368","0.0-421.0-0.0","932","","","","51","0,0,1","6","blank","369","null","0.1512247435792666","0.7261896022090433","0.3701503106387803","1","","","","","",""
"","do_trial","451","2549771","0.0-422.0-0.0","857.9999999995343","","","","49","0,1,0","6","blank","370","null","0.1581573289368731","0.7954942130240447","0.4474586837977805","0","","","","","",""
"","do_trial","452","2553842","0.0-423.0-0.0","525.9999999995343","","","","51","0,1,1","6","blank","371","null","0.1549513826180226","0.8406342209804014","0.43867062456004363","1","","","","","",""
"","do_recog","453","2556232","0.0-424.0-0.0","879","","","","56","","","","372","probe-45","","","","","1","[object Object]","203","5","1",""
"","do_trial","454","2561447","0.0-425.0-0.0","1670","","","","49","0,1,0","6","blank","373","null","0.14436239139074966","1","0.322710126138254","0","","","","","",""
"","do_trial","455","2567496","0.0-426.0-0.0","null","","","","null","0,1,1","6","blank","374","null","0.05171911536673043","0.8790478808351969","0.2841128338761161","","","","","","",""
"","do_recog","456","2570598","0.0-427.0-0.0","1590.9999999995343","","","","56","","","","375","probe-29","","","","","1","[object Object]","82","2","1",""
"","do_trial","457","2574605","0.0-428.0-0.0","463.99999999953434","","","","49","0,0,0","6","blank","376","null","0.08650404199978376","0.8361928570264782","0.3540939415316493","0","","","","","",""
"","do_recog","458","2577203","0.0-429.0-0.0","1086","","","","56","","","","377","probe-219","","","","","1","[object Object]","84","2","1",""
"","do_trial","459","2581314","0.0-430.0-0.0","562","","","","51","0,1,1","6","blank","378","null","0.06758674845626671","0.9290385297740938","0.44829240869101566","1","","","","","",""
"","do_trial","460","2585251","0.0-431.0-0.0","390","","","","50","0,1,0","6","blank","379","null","0.1429935449500639","0.7605511568591363","0.5054585039228787","1","","","","","",""
"","do_trial","461","2590227","0.0-432.0-0.0","1434.0000000004657","","","","50","0,1,0","6","blank","380","null","0.21011169001644853","0.7257824240921658","0.5285561146353499","1","","","","","",""
"","do_recog","462","2592778","0.0-433.0-0.0","1039.9999999995343","","","","56","","","","381","probe-246","","","","","0","[object Object]","null","null","0",""
"","do_trial","463","2597068","0.0-434.0-0.0","744.9999999995343","","","","50","0,1,0","6","blank","382","null","0.22877304215744484","0.6760611957171321","0.44995289012208767","1","","","","","",""
"","do_recog","464","2600422","0.0-435.0-0.0","1844","","","","55","","","","383","probe-46","","","","","1","[object Object]","163","4","1",""
"","do_trial","465","2605059","0.0-436.0-0.0","1095","","","","49","1,0,0","6","blank","384","null","0.2303715056896482","0.7652816823432904","0.3867811665216672","1","","","","","",""
"","do_recog","466","2607861","0.0-437.0-0.0","1290","","","","56","","","","385","probe-08","","","","","1","[object Object]","166","4","1",""
"","do_trial","467","2612197","0.0-438.0-0.0","789.0000000004657","","","","51","1,1,1","6","blank","386","null","0.21523363412393604","0.8800171570808314","0.37070202083685116","1","","","","","",""
"","do_recog","468","2615311","0.0-439.0-0.0","1602.9999999995343","","","","56","","","","387","probe-148","","","","","1","[object Object]","88","2","1",""
"","do_trial","469","2619592","0.0-440.0-0.0","736","","","","49","0,1,0","6","blank","388","null","0.18498371275796407","0.920310322999031","0.34660280103709556","0","","","","","",""
"","do_recog","470","2622228","0.0-441.0-0.0","1126","","","","56","","","","389","probe-48","","","","","1","[object Object]","46","1","1",""
"","do_trial","471","2626437","0.0-442.0-0.0","663","","","","50","1,0,0","6","blank","390","null","0.11174270304184536","0.6008751068675123","0.5333904449634923","0","","","","","",""
"","do_trial","472","2630439","0.0-443.0-0.0","459","","","","51","0,0,1","6","blank","391","null","0.1191810141743449","0.35774985274613114","0.6418660816322411","1","","","","","",""
"","do_recog","473","2632858","0.0-444.0-0.0","908","","","","56","","","","392","probe-229","","","","","1","[object Object]","124","3","1",""
"","do_trial","474","2637158","0.0-445.0-0.0","759","","","","49","0,1,0","6","blank","393","null","0.1298225362048793","0.4216333201414612","0.5960397301449215","0","","","","","",""
"","do_recog","475","2639524","0.0-446.0-0.0","855.0000000004657","","","","56","","","","394","probe-188","","","","","1","[object Object]","202","5","1",""
"","do_trial","476","2643978","0.0-447.0-0.0","910","","","","50","0,1,0","6","blank","395","null","0.21554184459034637","0.3739842065294904","0.6583360599408679","1","","","","","",""
"","do_recog","477","2647127","0.0-448.0-0.0","1638","","","","56","","","","396","probe-24","","","","","1","[object Object]","85","2","1",""
"","do_trial","478","2651290","0.0-449.0-0.0","620.0000000004657","","","","49","0,0,0","6","blank","397","null","0.12352596668657718","0.3242246569605486","0.6223651151351333","0","","","","","",""
"","do_recog","479","2654020","0.0-450.0-0.0","1218.9999999995343","","","","56","","","","398","probe-65","","","","","1","[object Object]","165","4","1",""
"","do_trial","480","2658536","0.0-451.0-0.0","969","","","","50","0,0,1","6","blank","399","null","0.15029186599350158","0.29270750690569514","0.8580006902953468","0","","","","","",""
"","do_trial","481","2662470","0.0-452.0-0.0","388","","","","49","0,0,1","6","blank","400","null","0.05856626078028977","0.33547719992391545","0.8188433981632303","0","","","","","",""
"","do_recog","482","2664809","0.0-453.0-0.0","829","","","","56","","","","401","probe-242","","","","","0","[object Object]","null","null","0",""
"","do_trial","483","2668977","0.0-454.0-0.0","623","","","","51","0,1,1","6","blank","402","null","0.08679161072992445","0.4259922503010865","0.9350904012014378","1","","","","","",""
"","do_trial","484","2673033","0.0-455.0-0.0","511","","","","50","0,0,1","6","blank","403","null","0.10986858757637842","0.3663846910222266","0.8428791482164248","0","","","","","",""
"","do_trial","485","2676885","0.0-456.0-0.0","305","","","","49","1,0,0","6","blank","404","null","0.08260238649596545","0.4001259980694586","0.8889325086312168","1","","","","","",""
"","do_trial","486","2681394","0.0-457.0-0.0","968.9999999995343","","","","50","0,0,1","6","blank","405","null","0.06307064267802812","0.3857235973612933","0.8846843596236003","0","","","","","",""
"","do_trial","487","2685394","0.0-458.0-0.0","453","","","","51","0,0,1","6","blank","406","null","0.12540132699674372","0.5113313762715588","0.755285948825738","1","","","","","",""
"","do_trial","488","2689402","0.0-459.0-0.0","466","","","","49","0,1,1","6","blank","407","null","0.19533165739068295","0.5696381645018239","0.7594059101722295","0","","","","","",""
"","do_recog","489","2692827","0.0-460.0-0.0","1913.9999999995343","","","","54","","","","408","probe-257","","","","","0","[object Object]","null","null","1",""
"","do_trial","490","2697070","0.0-461.0-0.0","694.9999999995343","","","","51","0,0,1","6","blank","409","null","0.2690414113902731","0.5662462645887737","0.9253976267974199","1","","","","","",""
"","do_recog","491","2700887","0.0-462.0-0.0","2305","","","","55","","","","410","probe-253","","","","","0","[object Object]","null","null","0",""
"","do_trial","492","2705226","0.0-463.0-0.0","793.9999999995343","","","","49","0,0,1","6","blank","411","null","0.08722237340653947","0.4316609939333672","0.8858748981275909","0","","","","","",""
"","do_recog","493","2709393","0.0-464.0-0.0","2656","","","","54","","","","412","probe-245","","","","","0","[object Object]","null","null","1",""
"","do_trial","494","2713567","0.0-465.0-0.0","625.9999999995343","","","","51","1,1,1","6","blank","413","null","0.14616044741869563","0.5463852225220557","0.8444702604977872","1","","","","","",""
"","do_trial","495","2717939","0.0-466.0-0.0","825","","","","49","0,1,0","6","blank","414","null","0.1288999820203926","0.47846828064904395","0.7412630830220767","0","","","","","",""
"","do_trial","496","2721976","0.0-467.0-0.0","494","","","","50","0,0,1","6","blank","415","null","0.208173632118406","0.343381298971898","0.7702734129580339","0","","","","","",""
