"success","trial_type","trial_index","time_elapsed","internal_node_id","interactions","blur_events","focus_events","fullscreenenter_events","fullscreenexit_events","rt","stimulus","key_press","subject_id","participant_id","age","gender","prompt","response","choice_outcomes","context_n","context_img_id","trial_n","probe_img_id","pR_red","pR_white","pR_black","outcome","contextArray_ind","validImageProbes","invalidImageProbes","pRew_Red","pRew_White","pRew_Black","availableForMemProbe","choice_blocks"
"true","fullscreen","0","3935","0.0-0.0","""event"",""trial"",""time""
""fullscreenenter"",""0"",""2991""
","
","
","""event"",""trial"",""time""
""fullscreenenter"",""0"",""2991""
","
","","","","","","","","","","","","","","","","","","","","","","","","","",""
"","pavlovia","1","3939","0.0-1.0","""event"",""trial"",""time""
""fullscreenenter"",""0"",""2991""
","
","
","""event"",""trial"",""time""
""fullscreenenter"",""0"",""2991""
","
","","","","","","","","","","","","","","","","","","","","","","","","","",""
"","instruc1","2","49058","0.0-2.0","""event"",""trial"",""time""
""fullscreenenter"",""0"",""2991""
","
","
","""event"",""trial"",""time""
""fullscreenenter"",""0"",""2991""
","
","null","run_exp/static/audio/clip_1_welcome.m4a","null","931","1245","25","Male","<div class='center'><p>Welcome! This is the first part of the study. It will last ~30 minutes. In part 1 and part 2 of the study, you are the head captain of a pirate ship traveling around the world to different islands. You will play a few different games throughout these two parts. Here is an overview of them:</p><br><p>Part 1 (today)</p><p>1. Instructions, practice game, and quiz</p><p>2. Pick a pirate game on 6 different islands</p><br><p>Part 2 (tomorrow)</p><p>3. Pick a pirate game and memory game</p><p>4. Where did you see this ship? </p></div>","","","","","","","","","","","","","","","","","",""
"","html-keyboard-response","3","78364","0.0-3.0","""event"",""trial"",""time""
""fullscreenenter"",""0"",""2991""
","
","
","""event"",""trial"",""time""
""fullscreenenter"",""0"",""2991""
","
","29305.90000000596","<div class='center'><p>Welcome! This is the first part of the study. It will last ~30 minutes. In part 1 and part 2 of the study, you are the head captain of a pirate ship traveling around the world to different islands. You will play a few different games throughout these two parts. Here is an overview of them:</p><br><p>Part 1 (today)</p><p>1. Instructions, practice game, and quiz</p><p>2. Pick a pirate game on 6 different islands</p><br><p>Part 2 (tomorrow)</p><p>3. Pick a pirate game and memory game</p><p>4. Where did you see this ship? </p><p><b>[Press the space bar to continue]</b></p></div>","32","","","","","","","","","","","","","","","","","","","","","","",""
"","instruc2","4","83673","0.0-4.0","""event"",""trial"",""time""
""fullscreenenter"",""0"",""2991""
","
","
","""event"",""trial"",""time""
""fullscreenenter"",""0"",""2991""
","
","null","run_exp/static/audio/clip_2_different_places.m4a","null","","","","","<div class='center'><p>Today, you’ll visit these 6 islands on your journey. You'll be able to see these islands from your ship.</p><p><img src='run_exp/static/images/contexts/all_contexts.png' height='500'></p></div>","","","","","","","","","","","","","","","","","",""
"","html-keyboard-response","5","87862","0.0-5.0","""event"",""trial"",""time""
""fullscreenenter"",""0"",""2991""
","
","
","""event"",""trial"",""time""
""fullscreenenter"",""0"",""2991""
","
","4188.0999999940395","<div class='center'><p>Today, you’ll visit these 6 islands on your journey. You'll be able to see these islands from your ship.</p><p><img src='run_exp/static/images/contexts/all_contexts.png' height='500'></p><p><b>[Press the space bar to continue]</b></p></div>","32","","","","","","","","","","","","","","","","","","","","","","",""
"","instruc3","6","97558","0.0-6.0","""event"",""trial"",""time""
""fullscreenenter"",""0"",""2991""
","
","
","""event"",""trial"",""time""
""fullscreenenter"",""0"",""2991""
","
","null","run_exp/static/audio/clip_3_goal_of_game_1.m4a","null","","","","","<div class='center'><p> The pirates on your ship will rob other ships as they leave the island.</p> These ships have just sold their goods to the islanders, so they will be filled with lots and lots of gold.</p><p><img src='run_exp/static/images/tutorial/ship_center.png' height='400'></p></div>","","","","","","","","","","","","","","","","","",""
"","html-keyboard-response","7","102884","0.0-7.0","""event"",""trial"",""time""
""fullscreenenter"",""0"",""2991""
","
","
","""event"",""trial"",""time""
""fullscreenenter"",""0"",""2991""
","
","5325","<div class='center'><p> The pirates on your ship will rob other ships as they leave the island.</p> These ships have just sold their goods to the islanders, so they will be filled with lots and lots of gold.</p><p><img src='run_exp/static/images/tutorial/ship_center.png' height='400'></p><p><b>[Press the space bar to continue]</b></p></div>","32","","","","","","","","","","","","","","","","","","","","","","",""
"","instruc4","8","130878","0.0-8.0","""event"",""trial"",""time""
""fullscreenenter"",""0"",""2991""
","
","
","""event"",""trial"",""time""
""fullscreenenter"",""0"",""2991""
","
","null","run_exp/static/audio/clip_4_goal_of_game_2.m4a","null","","","","","<div class='center'><p>As the head captain, you do not have to rob any ships yourself. Another pirate will be doing the robbing for you. First, you will choose a pirate to rob the next ship.</p><p><img src='run_exp/static/images/tutorial/pirates_all_crop.png' height='200'></p><p>Then, you'll see if the pirate successfully robbed the ship of their gold. If they were successful, then you'll get a stack of gold coins like this:</p><p><img src='run_exp/static/images/tutorial/reward.png' height='150'></p><p> If they were <b>not</b> successful, then you'll get no gold coins, and you'll see a big red x like this: </p><p><img src='run_exp/static/images/tutorial/reward_no.png' height='150'></p><p> How much bonus money you make is based on how many gold coins you collect.</p><div>","","","","","","","","","","","","","","","","","",""
"","html-keyboard-response","9","147539","0.0-9.0","""event"",""trial"",""time""
""fullscreenenter"",""0"",""2991""
","
","
","""event"",""trial"",""time""
""fullscreenenter"",""0"",""2991""
","
","16660.09999999404","<div class='center'><p>As the head captain, you do not have to rob any ships yourself. Another pirate will be doing the robbing for you. First, you will choose a pirate to rob the next ship.</p><p><img src='run_exp/static/images/tutorial/pirates_all_crop.png' height='200'></p><p>Then, you'll see if the pirate successfully robbed the ship of their gold. If they were successful, then you'll get a stack of gold coins like this:</p><p><img src='run_exp/static/images/tutorial/reward.png' height='150'></p><p> If they were <b>not</b> successful, then you'll get no gold coins, and you'll see a big red x like this: </p><p><img src='run_exp/static/images/tutorial/reward_no.png' height='150'></p><p> How much bonus money you make is based on how many gold coins you collect.</p<p><b>[Press the space bar to continue]</b></p></div>","32","","","","","","","","","","","","","","","","","","","","","","",""
"","instruc5","10","168061","0.0-10.0","""event"",""trial"",""time""
""fullscreenenter"",""0"",""2991""
","
","
","""event"",""trial"",""time""
""fullscreenenter"",""0"",""2991""
","
","20522.09999999404","run_exp/static/audio/clip_5_probabilistic.m4a","49","","","","","<div class='center'><p>Even the most skilled pirate can not rob EVERY ship.</p><p> Some ships will have very strong protections against pirate attacks.</p><p> Blue beard, here, is very, very good at robbing ships, but he won't be successful every time he tries to rob one.</p><p> You can press the <b>‘1’</b> key on the keyboard to choose him.</p><p> Try choosing him 10 times to see how often he succeeds at robbing a ship. </p><p><img src='run_exp/static/images/tutorial/blue.png' height='500'></p></div>","","","","","","","","","","","","","","","","","",""
"","html-keyboard-response","11","169562","0.0-11.0","""event"",""trial"",""time""
""fullscreenenter"",""0"",""2991""
","
","
","""event"",""trial"",""time""
""fullscreenenter"",""0"",""2991""
","
","null","<div class='center'><p><img src='run_exp/static/images/tutorial/blue_win.png' height='500'></p></div>","null","","","","","","","","","","","","","","","","","","","","","","",""
"","html-keyboard-response","12","169668","0.0-12.0","""event"",""trial"",""time""
""fullscreenenter"",""0"",""2991""
","
","
","""event"",""trial"",""time""
""fullscreenenter"",""0"",""2991""
","
","104.7999999821186","<div class='center'><img src='run_exp/static/images/tutorial/blue.png' height='500'></p></div>","49","","","","","","","","","","","","","","","","","","","","","","",""
"","html-keyboard-response","13","171174","0.0-13.0","""event"",""trial"",""time""
""fullscreenenter"",""0"",""2991""
","
","
","""event"",""trial"",""time""
""fullscreenenter"",""0"",""2991""
","
","null","<div class='center'><p><img src='run_exp/static/images/tutorial/blue_win.png' height='500'></p></div>","null","","","","","","","","","","","","","","","","","","","","","","",""
"","html-keyboard-response","14","172460","0.0-14.0","""event"",""trial"",""time""
""fullscreenenter"",""0"",""2991""
","
","
","""event"",""trial"",""time""
""fullscreenenter"",""0"",""2991""
","
","1285.5","<div class='center'><img src='run_exp/static/images/tutorial/blue.png' height='500'></p></div>","49","","","","","","","","","","","","","","","","","","","","","","",""
"","html-keyboard-response","15","173966","0.0-15.0","""event"",""trial"",""time""
""fullscreenenter"",""0"",""2991""
","
","
","""event"",""trial"",""time""
""fullscreenenter"",""0"",""2991""
","
","null","<div class='center'><p><img src='run_exp/static/images/tutorial/blue_win.png' height='500'></p></div>","null","","","","","","","","","","","","","","","","","","","","","","",""
"","html-keyboard-response","16","174548","0.0-16.0","""event"",""trial"",""time""
""fullscreenenter"",""0"",""2991""
","
","
","""event"",""trial"",""time""
""fullscreenenter"",""0"",""2991""
","
","580.9000000059605","<div class='center'><img src='run_exp/static/images/tutorial/blue.png' height='500'></p></div>","49","","","","","","","","","","","","","","","","","","","","","","",""
"","html-keyboard-response","17","176053","0.0-17.0","""event"",""trial"",""time""
""fullscreenenter"",""0"",""2991""
","
","
","""event"",""trial"",""time""
""fullscreenenter"",""0"",""2991""
","
","null","<div class='center'><p><img src='run_exp/static/images/tutorial/blue_no_win.png' height='500'></p></div>","null","","","","","","","","","","","","","","","","","","","","","","",""
"","html-keyboard-response","18","178843","0.0-18.0","""event"",""trial"",""time""
""fullscreenenter"",""0"",""2991""
","
","
","""event"",""trial"",""time""
""fullscreenenter"",""0"",""2991""
","
","2788.199999988079","<div class='center'><img src='run_exp/static/images/tutorial/blue.png' height='500'></p></div>","49","","","","","","","","","","","","","","","","","","","","","","",""
"","html-keyboard-response","19","180349","0.0-19.0","""event"",""trial"",""time""
""fullscreenenter"",""0"",""2991""
","
","
","""event"",""trial"",""time""
""fullscreenenter"",""0"",""2991""
","
","null","<div class='center'><p><img src='run_exp/static/images/tutorial/blue_win.png' height='500'></p></div>","null","","","","","","","","","","","","","","","","","","","","","","",""
"","html-keyboard-response","20","181066","0.0-20.0","""event"",""trial"",""time""
""fullscreenenter"",""0"",""2991""
","
","
","""event"",""trial"",""time""
""fullscreenenter"",""0"",""2991""
","
","716.2999999821186","<div class='center'><img src='run_exp/static/images/tutorial/blue.png' height='500'></p></div>","49","","","","","","","","","","","","","","","","","","","","","","",""
"","html-keyboard-response","21","182572","0.0-21.0","""event"",""trial"",""time""
""fullscreenenter"",""0"",""2991""
","
","
","""event"",""trial"",""time""
""fullscreenenter"",""0"",""2991""
","
","null","<div class='center'><p><img src='run_exp/static/images/tutorial/blue_win.png' height='500'></p></div>","null","","","","","","","","","","","","","","","","","","","","","","",""
"","html-keyboard-response","22","183314","0.0-22.0","""event"",""trial"",""time""
""fullscreenenter"",""0"",""2991""
","
","
","""event"",""trial"",""time""
""fullscreenenter"",""0"",""2991""
","
","741.3000000119209","<div class='center'><img src='run_exp/static/images/tutorial/blue.png' height='500'></p></div>","49","","","","","","","","","","","","","","","","","","","","","","",""
"","html-keyboard-response","23","184820","0.0-23.0","""event"",""trial"",""time""
""fullscreenenter"",""0"",""2991""
","
","
","""event"",""trial"",""time""
""fullscreenenter"",""0"",""2991""
","
","null","<div class='center'><p><img src='run_exp/static/images/tutorial/blue_win.png' height='500'></p></div>","null","","","","","","","","","","","","","","","","","","","","","","",""
"","html-keyboard-response","24","185154","0.0-24.0","""event"",""trial"",""time""
""fullscreenenter"",""0"",""2991""
","
","
","""event"",""trial"",""time""
""fullscreenenter"",""0"",""2991""
","
","332.7000000178814","<div class='center'><img src='run_exp/static/images/tutorial/blue.png' height='500'></p></div>","49","","","","","","","","","","","","","","","","","","","","","","",""
"","html-keyboard-response","25","186655","0.0-25.0","""event"",""trial"",""time""
""fullscreenenter"",""0"",""2991""
","
","
","""event"",""trial"",""time""
""fullscreenenter"",""0"",""2991""
","
","null","<div class='center'><p><img src='run_exp/static/images/tutorial/blue_no_win.png' height='500'></p></div>","null","","","","","","","","","","","","","","","","","","","","","","",""
"","html-keyboard-response","26","187089","0.0-26.0","""event"",""trial"",""time""
""fullscreenenter"",""0"",""2991""
","
","
","""event"",""trial"",""time""
""fullscreenenter"",""0"",""2991""
","
","433.7999999821186","<div class='center'><img src='run_exp/static/images/tutorial/blue.png' height='500'></p></div>","49","","","","","","","","","","","","","","","","","","","","","","",""
"","html-keyboard-response","27","188596","0.0-27.0","""event"",""trial"",""time""
""fullscreenenter"",""0"",""2991""
","
","
","""event"",""trial"",""time""
""fullscreenenter"",""0"",""2991""
","
","null","<div class='center'><p><img src='run_exp/static/images/tutorial/blue_win.png' height='500'></p></div>","null","","","","","","","","","","","","","","","","","","","","","","",""
"","html-keyboard-response","28","189386","0.0-28.0","""event"",""trial"",""time""
""fullscreenenter"",""0"",""2991""
","
","
","""event"",""trial"",""time""
""fullscreenenter"",""0"",""2991""
","
","789.5","<div class='center'><img src='run_exp/static/images/tutorial/blue.png' height='500'></p></div>","49","","","","","","","","","","","","","","","","","","","","","","",""
"","html-keyboard-response","29","190892","0.0-29.0","""event"",""trial"",""time""
""fullscreenenter"",""0"",""2991""
","
","
","""event"",""trial"",""time""
""fullscreenenter"",""0"",""2991""
","
","null","<div class='center'><p><img src='run_exp/static/images/tutorial/blue_win.png' height='500'></p></div>","null","","","","","","","","","","","","","","","","","","","","","","",""
"","instruc6","30","196296","0.0-30.0","""event"",""trial"",""time""
""fullscreenenter"",""0"",""2991""
","
","
","""event"",""trial"",""time""
""fullscreenenter"",""0"",""2991""
","
","null","run_exp/static/audio/clip_6_blue_beard_outcome.m4a","null","","","","","<div class='center'><p> See, he succeeded in robbing the ships most of the time but not every time. </p></div>","","","","","","","","","","","","","","","","","",""
"","html-keyboard-response","31","202650","0.0-31.0","""event"",""trial"",""time""
""fullscreenenter"",""0"",""2991""
","
","
","""event"",""trial"",""time""
""fullscreenenter"",""0"",""2991""
","
","6353.399999976158","<div class='center'><p> See, he succeeded in robbing the ships most of the time but not every time. </p><p><b>[Press the space bar to continue]</b></p></div>","32","","","","","","","","","","","","","","","","","","","","","","",""
"","audio-keyboard-response","32","219425","0.0-32.0","""event"",""trial"",""time""
""fullscreenenter"",""0"",""2991""
","
","
","""event"",""trial"",""time""
""fullscreenenter"",""0"",""2991""
","
","16774.399999976158","run_exp/static/audio/clip_7_pick_pirate.m4a","51","","","","","","","","","","","","","","","","","","","","","","",""
"","audio-keyboard-response","33","223996","0.0-33.0-0.0","""event"",""trial"",""time""
""fullscreenenter"",""0"",""2991""
","
","
","""event"",""trial"",""time""
""fullscreenenter"",""0"",""2991""
","
","4570.5","run_exp/static/audio/clip_8_chosen_pirate_win.m4a","32","","","","","","","","","","","","","","","","","","","","","","",""
"","audio-keyboard-response","34","226636","0.0-33.0-1.0","""event"",""trial"",""time""
""fullscreenenter"",""0"",""2991""
","
","
","""event"",""trial"",""time""
""fullscreenenter"",""0"",""2991""
","
","2638.699999988079","run_exp/static/audio/clip_9_pick_a_pirate_again.m4a","51","","","","","","","","","","","","","","","","","","","","","","",""
"","audio-keyboard-response","35","232960","0.0-34.0-0.0","""event"",""trial"",""time""
""fullscreenenter"",""0"",""2991""
","
","
","""event"",""trial"",""time""
""fullscreenenter"",""0"",""2991""
","
","6322.4000000059605","run_exp/static/audio/clip_10_chosen_pirate_loss.m4a","32","","","","","","","","","","","","","","","","","","","","","","",""
"","instruc9","36","238462","0.0-35.0-0.0","""event"",""trial"",""time""
""fullscreenenter"",""0"",""2991""
","
","
","""event"",""trial"",""time""
""fullscreenenter"",""0"",""2991""
","
","null","run_exp/static/audio/clip_11_time_out.m4a","null","","","","","<div class='center'><p>If you don’t make your choice fast enough, you’ll have to wait a few seconds before you can make another one. </p><p><img src='run_exp/static/images/miscellaneous/hurry_up.png' height='500'></p></div>","","","","","","","","","","","","","","","","","",""
"","html-keyboard-response","37","239961","0.0-35.0-1.0","""event"",""trial"",""time""
""fullscreenenter"",""0"",""2991""
","
","
","""event"",""trial"",""time""
""fullscreenenter"",""0"",""2991""
","
","1498.5999999940395","<div class='center'><p>If you don’t make your choice fast enough, you’ll have to wait a few seconds before you can make another one. </p><p><img src='run_exp/static/images/miscellaneous/hurry_up.png' height='500'></p><p><b>[Press the space bar to continue]</b></p></div>","32","","","","","","","","","","","","","","","","","","","","","","",""
"","instruc10","38","279049","0.0-35.0-2.0","""event"",""trial"",""time""
""fullscreenenter"",""0"",""2991""
","
","
","""event"",""trial"",""time""
""fullscreenenter"",""0"",""2991""
","
","null","run_exp/static/audio/clip_12_probe.m4a","null","","","","","<div class='center'><p>Once you've chosen a pirate, you’ll be shown the ship they are robbing. You will never rob the same ship twice. Ships can be told apart from one another by the image on them. These are the goods that they sell. See, this ship has a travel mug on it. </p><p> You’ll have to remember which island you saw each ship on. You will win more gold coins and hence more bonus money if you remember correctly! To help you remember, you can imagine a story. For example, here, you could imagine a mug full of water in the desert. Or, as another example, if on the forest island, your pirate robbed a ship with an apple on it, you could imagine an apple falling from a tree in the forest. </p><p><img src='run_exp/static/images/tutorial/example_probe.png' height='500'></p></div>","","","","","","","","","","","","","","","","","",""
"","html-keyboard-response","39","282642","0.0-35.0-3.0","""event"",""trial"",""time""
""fullscreenenter"",""0"",""2991""
","
","
","""event"",""trial"",""time""
""fullscreenenter"",""0"",""2991""
","
","3592","<div class='center'><p>Once you've chosen a pirate, you’ll be shown the ship they are robbing. You will never rob the same ship twice. Ships can be told apart from one another by the image on them. These are the goods that they sell. See, this ship has a travel mug on it. </p><p> You’ll have to remember which island you saw each ship on. You will win more gold coins and hence more bonus money if you remember correctly! To help you remember, you can imagine a story. For example, here, you could imagine a mug full of water in the desert. Or, as another example, if on the forest island, your pirate robbed a ship with an apple on it, you could imagine an apple falling from a tree in the forest. </p><p><img src='run_exp/static/images/tutorial/example_probe.png' height='500'></p><p><b>[Press the space bar to continue]</b></p></div>","32","","","","","","","","","","","","","","","","","","","","","","",""
"","instruc11","40","299064","0.0-35.0-4.0","""event"",""trial"",""time""
""fullscreenenter"",""0"",""2991""
","
","
","""event"",""trial"",""time""
""fullscreenenter"",""0"",""2991""
","
","null","run_exp/static/audio/clip_13_changepoint.m4a","null","","","","","<div class='center'><p>How successful a pirate is at robbing ships will depend on the island you’re on.</p><p> A pirate may have visited this island many times before and gained a lot of practice robbing ships there.</p><p>So, they’re more likely to be successful than a pirate who has never visited the island before.</p></div>","","","","","","","","","","","","","","","","","",""
"","html-keyboard-response","41","300367","0.0-35.0-5.0","""event"",""trial"",""time""
""fullscreenenter"",""0"",""2991""
","
","
","""event"",""trial"",""time""
""fullscreenenter"",""0"",""2991""
","
","1302.300000011921","<div class='center'><p>How successful a pirate is at robbing ships will depend on the island you’re on.</p><p> A pirate may have visited this island many times before and gained a lot of practice robbing ships there.</p><p>So, they’re more likely to be successful than a pirate who has never visited the island before.</p><p><b>[Press the space bar to continue]</b></p></div>","32","","","","","","","","","","","","","","","","","","","","","","",""
"","instruc12","42","341462","0.0-35.0-6.0","""event"",""trial"",""time""
""fullscreenenter"",""0"",""2991""
","
","
","""event"",""trial"",""time""
""fullscreenenter"",""0"",""2991""
","
","null","run_exp/static/audio/clip_14_drift.m4a","null","","","","","<div class='center'><p>How successful a pirate is at robbing ships can also change over the time spent on the island. </p><p> Ships may hear from islanders about the pirates coming and will improve their protections against the attack. This may make it harder to rob them.</p><p> Ships may also become lazy and weaken the strength of their protections. This may make it easier to rob them.</p><br><p>Things are always changing on the high seas! So, try your best to pay attention!</p><p><img src='run_exp/static/images/tutorial/contingency.png' height='500'></p></div>","","","","","","","","","","","","","","","","","",""
"","html-keyboard-response","43","344977","0.0-35.0-7.0","""event"",""trial"",""time""
""fullscreenenter"",""0"",""2991""
","
","
","""event"",""trial"",""time""
""fullscreenenter"",""0"",""2991""
","
","3513.9000000059605","<div class='center'><p>How successful a pirate is at robbing ships can also change over the time spent on the island. </p><p> Ships may hear from islanders about the pirates coming and will improve their protections against the attack. This may make it harder to rob them.</p><p> Ships may also become lazy and weaken the strength of their protections. This may make it easier to rob them.</p><br><p>Things are always changing on the high seas! So, try your best to pay attention!</p><p><img src='run_exp/static/images/tutorial/contingency.png' height='500'></p><p><b>[Press the space bar to continue]</b></p></div>","32","","","","","","","","","","","","","","","","","","","","","","",""
"","instruc13","44","380168","0.0-35.0-8.0","""event"",""trial"",""time""
""fullscreenenter"",""0"",""2991""
","
","
","""event"",""trial"",""time""
""fullscreenenter"",""0"",""2991""
","
","null","run_exp/static/audio/clip_15_summary.m4a","null","","","","","<div class='center'><p>Let's go over the instructions quickly again. You have two important things to do: </p><b><p> 1. Pick the pirate who is the best at robbing ships on the current island. </p></b><b><p> 2. Remember on which island a ship was robbed.</p> </b><p>The amount of bonus money you can win depends on both.</p><p><br><p>Let’s try a practice game. The game will start by showing you the pirates. First, pick a pirate using the <b> 1, 2, 3 </b> keys on your keyboard. When you are shown a ship, try to remember which island you’re on by making up a story.</p><p>This is just a practice game, so you’re not playing for money. </p><p> Good luck! This game will be very difficult but try your best!</p></div>","","","","","","","","","","","","","","","","","",""
"","html-keyboard-response","45","383111","0.0-35.0-9.0","""event"",""trial"",""time""
""fullscreenenter"",""0"",""2991""
","
","
","""event"",""trial"",""time""
""fullscreenenter"",""0"",""2991""
","
","2942.2999999821186","<div class='center'><p>Let's go over the instructions quickly again. You have two important things to do: </p><b><p> 1. Pick the pirate who is the best at robbing ships on the current island. </p></b><b><p> 2. Remember on which island a ship was robbed.</p> </b><p>The amount of bonus money you can win depends on both.</p><p><br><p>Let’s try a practice game. The game will start by showing you the pirates. First, pick a pirate using the <b> 1, 2, 3 </b> keys on your keyboard. When you are shown a ship, try to remember which island you’re on by making up a story.</p><p>This is just a practice game, so you’re not playing for money. </p><p> Good luck! This game will be very difficult but try your best!</p><p><b>[Press the space bar to continue]</b></p></div>","32","","","","","","","","","","","","","","","","","","","","","","",""
"","do_welcome","46","387123","0.0-35.0-10.0","""event"",""trial"",""time""
""fullscreenenter"",""0"",""2991""
","
","
","""event"",""trial"",""time""
""fullscreenenter"",""0"",""2991""
","
","null","","","","","","","","null","","","","","","","","","","","","","","","","",""
"","do_trial","47","393295","0.0-35.0-11.0","""event"",""trial"",""time""
""fullscreenenter"",""0"",""2991""
","
","
","""event"",""trial"",""time""
""fullscreenenter"",""0"",""2991""
","
","1660.4000000059605","","","","","","","","51","1,0,0","","","","","","","","","","","","","","","",""
"","html-keyboard-response","48","394301","0.0-36.0-0.0","""event"",""trial"",""time""
""fullscreenenter"",""0"",""2991""
","
","
","""event"",""trial"",""time""
""fullscreenenter"",""0"",""2991""
","
","null","<p></p>","null","","","","","","","","","","","","","","","","","","","","","","",""
"","do_trial","49","399860","0.0-36.0-1.0","""event"",""trial"",""time""
""fullscreenenter"",""0"",""2991""
","
","
","""event"",""trial"",""time""
""fullscreenenter"",""0"",""2991""
","
","1047.5999999940395","","","","","","","","50","1,1,0","","","","","","","","","","","","","","","",""
"","html-keyboard-response","50","400865","0.0-37.0-0.0","""event"",""trial"",""time""
""fullscreenenter"",""0"",""2991""
","
","
","""event"",""trial"",""time""
""fullscreenenter"",""0"",""2991""
","
","null","<p></p>","null","","","","","","","","","","","","","","","","","","","","","","",""
"","do_trial","51","406557","0.0-37.0-1.0","""event"",""trial"",""time""
""fullscreenenter"",""0"",""2991""
","
","
","""event"",""trial"",""time""
""fullscreenenter"",""0"",""2991""
","
","1183.5999999940395","","","","","","","","49","1,0,1","","","","","","","","","","","","","","","",""
"","html-keyboard-response","52","407561","0.0-38.0-0.0","""event"",""trial"",""time""
""fullscreenenter"",""0"",""2991""
","
","
","""event"",""trial"",""time""
""fullscreenenter"",""0"",""2991""
","
","null","<p></p>","null","","","","","","","","","","","","","","","","","","","","","","",""
"","do_trial","53","412910","0.0-38.0-1.0","""event"",""trial"",""time""
""fullscreenenter"",""0"",""2991""
","
","
","""event"",""trial"",""time""
""fullscreenenter"",""0"",""2991""
","
","836.4000000059605","","","","","","","","51","0,1,0","","","","","","","","","","","","","","","",""
"","html-keyboard-response","54","413912","0.0-39.0-0.0","""event"",""trial"",""time""
""fullscreenenter"",""0"",""2991""
","
","
","""event"",""trial"",""time""
""fullscreenenter"",""0"",""2991""
","
","null","<p></p>","null","","","","","","","","","","","","","","","","","","","","","","",""
"","do_trial","55","418891","0.0-39.0-1.0","""event"",""trial"",""time""
""fullscreenenter"",""0"",""2991""
","
","
","""event"",""trial"",""time""
""fullscreenenter"",""0"",""2991""
","
","468.7000000178814","","","","","","","","50","1,0,0","","","","","","","","","","","","","","","",""
"","do_bye","56","420400","0.0-40.0-0.0","""event"",""trial"",""time""
""fullscreenenter"",""0"",""2991""
","
","
","""event"",""trial"",""time""
""fullscreenenter"",""0"",""2991""
","
","null","","","","","","","","null","","","","","","","","","","","","","","","","",""
"","do_travel","57","429406","0.0-40.0-1.0","""event"",""trial"",""time""
""fullscreenenter"",""0"",""2991""
","
","
","""event"",""trial"",""time""
""fullscreenenter"",""0"",""2991""
","
","null","","","","","","","","null","","","","","","","","","","","","","","","","",""
"","do_welcome","58","433415","0.0-40.0-2.0","""event"",""trial"",""time""
""fullscreenenter"",""0"",""2991""
","
","
","""event"",""trial"",""time""
""fullscreenenter"",""0"",""2991""
","
","null","","","","","","","","null","","","","","","","","","","","","","","","","",""
"","do_trial","59","438975","0.0-40.0-3.0","""event"",""trial"",""time""
""fullscreenenter"",""0"",""2991""
","
","
","""event"",""trial"",""time""
""fullscreenenter"",""0"",""2991""
","
","1051.800000011921","","","","","","","","50","1,0,0","","","","","","","","","","","","","","","",""
"","html-keyboard-response","60","439982","0.0-41.0-0.0","""event"",""trial"",""time""
""fullscreenenter"",""0"",""2991""
","
","
","""event"",""trial"",""time""
""fullscreenenter"",""0"",""2991""
","
","null","<p></p>","null","","","","","","","","","","","","","","","","","","","","","","",""
"","do_trial","61","444873","0.0-41.0-1.0","""event"",""trial"",""time""
""fullscreenenter"",""0"",""2991""
","
","
","""event"",""trial"",""time""
""fullscreenenter"",""0"",""2991""
","
","380.90000000596046","","","","","","","","49","1,0,1","","","","","","","","","","","","","","","",""
"","html-keyboard-response","62","445877","0.0-42.0-0.0","""event"",""trial"",""time""
""fullscreenenter"",""0"",""2991""
","
","
","""event"",""trial"",""time""
""fullscreenenter"",""0"",""2991""
","
","null","<p></p>","null","","","","","","","","","","","","","","","","","","","","","","",""
"","do_trial","63","450933","0.0-42.0-1.0","""event"",""trial"",""time""
""fullscreenenter"",""0"",""2991""
","
","
","""event"",""trial"",""time""
""fullscreenenter"",""0"",""2991""
","
","549","","","","","","","","51","1,1,0","","","","","","","","","","","","","","","",""
"","html-keyboard-response","64","451939","0.0-43.0-0.0","""event"",""trial"",""time""
""fullscreenenter"",""0"",""2991""
","
","
","""event"",""trial"",""time""
""fullscreenenter"",""0"",""2991""
","
","null","<p></p>","null","","","","","","","","","","","","","","","","","","","","","","",""
"","do_trial","65","457460","0.0-43.0-1.0","""event"",""trial"",""time""
""fullscreenenter"",""0"",""2991""
","
","
","""event"",""trial"",""time""
""fullscreenenter"",""0"",""2991""
","
","1008.9000000059605","","","","","","","","49","0,0,1","","","","","","","","","","","","","","","",""
"","html-keyboard-response","66","458467","0.0-44.0-0.0","""event"",""trial"",""time""
""fullscreenenter"",""0"",""2991""
","
","
","""event"",""trial"",""time""
""fullscreenenter"",""0"",""2991""
","
","null","<p></p>","null","","","","","","","","","","","","","","","","","","","","","","",""
"","do_trial","67","463708","0.0-44.0-1.0","""event"",""trial"",""time""
""fullscreenenter"",""0"",""2991""
","
","
","""event"",""trial"",""time""
""fullscreenenter"",""0"",""2991""
","
","730.3999999761581","","","","","","","","49","1,0,1","","","","","","","","","","","","","","","",""
"","html-keyboard-response","68","466366","0.0-45.0-0.0","""event"",""trial"",""time""
""fullscreenenter"",""0"",""2991""
","
","
","""event"",""trial"",""time""
""fullscreenenter"",""0"",""2991""
","
","2655.9000000059605","<div class='center'><p><img src='run_exp/static/images/tutorial/prac_best_pirate.png'  height='500'></p></div>","49","","","","","","","","","","","","","","","","","","","","","","",""
"","html-keyboard-response","69","473226","0.0-46.0-0.0","""event"",""trial"",""time""
""fullscreenenter"",""0"",""2991""
","
","
","""event"",""trial"",""time""
""fullscreenenter"",""0"",""2991""
","
","6858.699999988079","<div class='center'><p>That's correct! Red beard was the best.</p><p><b>[Press the space bar to continue]</b></p></div>","32","","","","","","","","","","","","","","","","","","","","","","",""
"","html-keyboard-response","70","477102","0.0-46.0-1.0","""event"",""trial"",""time""
""fullscreenenter"",""0"",""2991""
","
","
","""event"",""trial"",""time""
""fullscreenenter"",""0"",""2991""
","
","3875.699999988079","<div class='center'><p><img src='run_exp/static/images/tutorial/prac_source.png'  height='500'></p></div>","50","","","","","","","","","","","","","","","","","","","","","","",""
"","html-keyboard-response","71","479270","0.0-47.0-0.0","""event"",""trial"",""time""
""fullscreenenter"",""0"",""2991""
","
","
","""event"",""trial"",""time""
""fullscreenenter"",""0"",""2991""
","
","2167.2999999821186","<div class='center'><p>That's correct! You saw this ship on the cavern island.</p><p><b>[Press the space bar to continue]</b></p></div>","32","","","","","","","","","","","","","","","","","","","","","","",""
"","quiz_beginning","72","490575","0.0-47.0-1.0","""event"",""trial"",""time""
""fullscreenenter"",""0"",""2991""
","
","
","""event"",""trial"",""time""
""fullscreenenter"",""0"",""2991""
","
","null","run_exp/static/audio/clip_16_quiz_intro.m4a","null","","","","","<div class='center'><p>Good job on the practice game! Now, you will be asked some true or false questions to make sure you really understand the rules of the game.</p><p> Press <b>'1'</b> on the keyboard for true and press <b>'2'</b> for false.</p></div>","","","","","","","","","","","","","","","","","",""
"","audio-keyboard-response","73","494637","0.0-47.0-2.0","""event"",""trial"",""time""
""fullscreenenter"",""0"",""2991""
","
","
","""event"",""trial"",""time""
""fullscreenenter"",""0"",""2991""
","
","4061","run_exp/static/audio/clip_17_q1.m4a","49","","","","","","","","","","","","","","","","","","","","","","",""
"","correct","74","497053","0.0-48.0-0.0","""event"",""trial"",""time""
""fullscreenenter"",""0"",""2991""
","
","
","""event"",""trial"",""time""
""fullscreenenter"",""0"",""2991""
","
","null","run_exp/static/audio/clip_18_correct.m4a","null","","","","","<div class='center'><p>That's correct!</p></div>","","","","","","","","","","","","","","","","","",""
"","html-keyboard-response","75","498853","0.0-48.0-1.0","""event"",""trial"",""time""
""fullscreenenter"",""0"",""2991""
","
","
","""event"",""trial"",""time""
""fullscreenenter"",""0"",""2991""
","
","1800.300000011921","<div class='center'><p>That's correct!</p><p><b>[Press the space bar to continue]</b></p></div>","32","","","","","","","","","","","","","","","","","","","","","","",""
"","audio-keyboard-response","76","506052","0.0-48.0-2.0","""event"",""trial"",""time""
""fullscreenenter"",""0"",""2991""
","
","
","""event"",""trial"",""time""
""fullscreenenter"",""0"",""2991""
","
","7198.0999999940395","run_exp/static/audio/clip_20_q2.m4a","50","","","","","","","","","","","","","","","","","","","","","","",""
"","correct","77","508453","0.0-49.0-0.0","""event"",""trial"",""time""
""fullscreenenter"",""0"",""2991""
","
","
","""event"",""trial"",""time""
""fullscreenenter"",""0"",""2991""
","
","null","run_exp/static/audio/clip_18_correct.m4a","null","","","","","<div class='center'><p>That's correct!</p></div>","","","","","","","","","","","","","","","","","",""
"","html-keyboard-response","78","508899","0.0-49.0-1.0","""event"",""trial"",""time""
""fullscreenenter"",""0"",""2991""
","
","
","""event"",""trial"",""time""
""fullscreenenter"",""0"",""2991""
","
","445.5","<div class='center'><p>That's correct!</p><p><b>[Press the space bar to continue]</b></p></div>","32","","","","","","","","","","","","","","","","","","","","","","",""
"","audio-keyboard-response","79","514251","0.0-49.0-2.0","""event"",""trial"",""time""
""fullscreenenter"",""0"",""2991""
","
","
","""event"",""trial"",""time""
""fullscreenenter"",""0"",""2991""
","
","5351.200000017881","run_exp/static/audio/clip_22_q3.m4a","50","","","","","","","","","","","","","","","","","","","","","","",""
"","correct","80","516650","0.0-50.0-0.0","""event"",""trial"",""time""
""fullscreenenter"",""0"",""2991""
","
","
","""event"",""trial"",""time""
""fullscreenenter"",""0"",""2991""
","
","null","run_exp/static/audio/clip_18_correct.m4a","null","","","","","<div class='center'><p>That's correct!</p></div>","","","","","","","","","","","","","","","","","",""
"","html-keyboard-response","81","517139","0.0-50.0-1.0","""event"",""trial"",""time""
""fullscreenenter"",""0"",""2991""
","
","
","""event"",""trial"",""time""
""fullscreenenter"",""0"",""2991""
","
","488.80000001192093","<div class='center'><p>That's correct!</p><p><b>[Press the space bar to continue]</b></p></div>","32","","","","","","","","","","","","","","","","","","","","","","",""
"","audio-keyboard-response","82","521008","0.0-50.0-2.0","""event"",""trial"",""time""
""fullscreenenter"",""0"",""2991""
","
","
","""event"",""trial"",""time""
""fullscreenenter"",""0"",""2991""
","
","3868.699999988079","run_exp/static/audio/clip_24_q4.m4a","49","","","","","","","","","","","","","","","","","","","","","","",""
"","correct","83","523453","0.0-51.0-0.0","""event"",""trial"",""time""
""fullscreenenter"",""0"",""2991""
","
","
","""event"",""trial"",""time""
""fullscreenenter"",""0"",""2991""
","
","null","run_exp/static/audio/clip_18_correct.m4a","null","","","","","<div class='center'><p>That's correct!</p></div>","","","","","","","","","","","","","","","","","",""
"","html-keyboard-response","84","524288","0.0-51.0-1.0","""event"",""trial"",""time""
""fullscreenenter"",""0"",""2991""
","
","
","""event"",""trial"",""time""
""fullscreenenter"",""0"",""2991""
","
","834.4000000059605","<div class='center'><p>That's correct!</p><p><b>[Press the space bar to continue]</b></p></div>","32","","","","","","","","","","","","","","","","","","","","","","",""
"","q_all_corr","85","532787","0.0-52.0-0.0","""event"",""trial"",""time""
""fullscreenenter"",""0"",""2991""
","
","
","""event"",""trial"",""time""
""fullscreenenter"",""0"",""2991""
","
","null","run_exp/static/audio/clip_27_quiz_all_correct.m4a","null","","","","","<div class='center'><p>Good job! You’re now ready to move on to the real game! Remember this game will be difficult but don't get discouraged and try your best!</p></div>","","","","","","","","","","","","","","","","","",""
"","html-keyboard-response","86","533560","0.0-52.0-1.0","""event"",""trial"",""time""
""fullscreenenter"",""0"",""2991""
","
","
","""event"",""trial"",""time""
""fullscreenenter"",""0"",""2991""
","
","772.0999999940395","<div class='center'><p>Good job! You’re now ready to move on to the real game! Remember this game will be difficult but don't get discouraged and try your best!</p><p><b>[Press the space bar to continue]</b></p></div>","32","","","","","","","","","","","","","","","","","","","","","","",""
"","do_welcome","87","537568","0.0-53.0-0.0","""event"",""trial"",""time""
""fullscreenenter"",""0"",""2991""
","
","
","""event"",""trial"",""time""
""fullscreenenter"",""0"",""2991""
","
","null","","","","","","","","null","","","","","","","","","","","","","","","","",""
"","do_trial","88","542902","0.0-54.0-0.0","""event"",""trial"",""time""
""fullscreenenter"",""0"",""2991""
","
","
","""event"",""trial"",""time""
""fullscreenenter"",""0"",""2991""
","
","792.2999999821186","","","","","","","","49","0,0,0","0","forest","0","probe-111","0.6","0.3","0.1","0","","","","","","","",""
"","html-keyboard-response","89","543907","0.0-54.0-1.0","""event"",""trial"",""time""
""fullscreenenter"",""0"",""2991""
","
","
","""event"",""trial"",""time""
""fullscreenenter"",""0"",""2991""
","
","null","<p></p>","null","","","","","","","","","","","","","","","","","","","","","","",""
"","do_trial","90","549004","0.0-55.0-0.0","""event"",""trial"",""time""
""fullscreenenter"",""0"",""2991""
","
","
","""event"",""trial"",""time""
""fullscreenenter"",""0"",""2991""
","
","553.2999999821186","","","","","","","","50","0,0,0","0","forest","1","probe-213","0.6916943371356276","0.31135931019030016","0.11951108349660558","0","","","","","","","",""
"","html-keyboard-response","91","550011","0.0-55.0-1.0","""event"",""trial"",""time""
""fullscreenenter"",""0"",""2991""
","
","
","""event"",""trial"",""time""
""fullscreenenter"",""0"",""2991""
","
","null","<p></p>","null","","","","","","","","","","","","","","","","","","","","","","",""
"","do_trial","92","555077","0.0-56.0-0.0","""event"",""trial"",""time""
""fullscreenenter"",""0"",""2991""
","
","
","""event"",""trial"",""time""
""fullscreenenter"",""0"",""2991""
","
","525","","","","","","","","51","1,1,0","0","forest","2","probe-58","0.7304360132759363","0.3809016540672988","0.08426023146391062","0","","","","","","","",""
"","html-keyboard-response","93","556082","0.0-56.0-1.0","""event"",""trial"",""time""
""fullscreenenter"",""0"",""2991""
","
","
","""event"",""trial"",""time""
""fullscreenenter"",""0"",""2991""
","
","null","<p></p>","null","","","","","","","","","","","","","","","","","","","","","","",""
"","do_trial","94","561275","0.0-57.0-0.0","""event"",""trial"",""time""
""fullscreenenter"",""0"",""2991""
","
","
","""event"",""trial"",""time""
""fullscreenenter"",""0"",""2991""
","
","649.4000000059605","","","","","","","","50","1,0,0","0","forest","3","probe-145","0.68373401831747","0.3545125240464702","0.1799812664556874","0","","","","","","","",""
"","html-keyboard-response","95","562281","0.0-57.0-1.0","""event"",""trial"",""time""
""fullscreenenter"",""0"",""2991""
","
","
","""event"",""trial"",""time""
""fullscreenenter"",""0"",""2991""
","
","null","<p></p>","null","","","","","","","","","","","","","","","","","","","","","","",""
"","do_trial","96","567279","0.0-58.0-0.0","""event"",""trial"",""time""
""fullscreenenter"",""0"",""2991""
","
","
","""event"",""trial"",""time""
""fullscreenenter"",""0"",""2991""
","
","454.7000000178814","","","","","","","","51","0,0,1","0","forest","4","probe-97","0.6876361112941803","0.2826375724095722","0.21536383798737782","1","","","","","","","",""
"","html-keyboard-response","97","568286","0.0-58.0-1.0","""event"",""trial"",""time""
""fullscreenenter"",""0"",""2991""
","
","
","""event"",""trial"",""time""
""fullscreenenter"",""0"",""2991""
","
","null","<p></p>","null","","","","","","","","","","","","","","","","","","","","","","",""
"","do_trial","98","573629","0.0-59.0-0.0","""event"",""trial"",""time""
""fullscreenenter"",""0"",""2991""
","
","
","""event"",""trial"",""time""
""fullscreenenter"",""0"",""2991""
","
","803.7999999821186","","","","","","","","51","0,0,0","0","forest","5","probe-76","0.633662822763222","0.25174150260817263","0.17633591904864404","0","","","","","","","",""
"","html-keyboard-response","99","574635","0.0-59.0-1.0","""event"",""trial"",""time""
""fullscreenenter"",""0"",""2991""
","
","
","""event"",""trial"",""time""
""fullscreenenter"",""0"",""2991""
","
","null","<p></p>","null","","","","","","","","","","","","","","","","","","","","","","",""
"","do_trial","100","579898","0.0-60.0-0.0","""event"",""trial"",""time""
""fullscreenenter"",""0"",""2991""
","
","
","""event"",""trial"",""time""
""fullscreenenter"",""0"",""2991""
","
","722.1999999880791","","","","","","","","49","1,1,1","0","forest","6","probe-98","0.5250834533608506","0.26069039101692143","0.22191443662456378","1","","","","","","","",""
"","html-keyboard-response","101","580904","0.0-60.0-1.0","""event"",""trial"",""time""
""fullscreenenter"",""0"",""2991""
","
","
","""event"",""trial"",""time""
""fullscreenenter"",""0"",""2991""
","
","null","<p></p>","null","","","","","","","","","","","","","","","","","","","","","","",""
"","do_trial","102","586708","0.0-61.0-0.0","""event"",""trial"",""time""
""fullscreenenter"",""0"",""2991""
","
","
","""event"",""trial"",""time""
""fullscreenenter"",""0"",""2991""
","
","1260.800000011921","","","","","","","","50","1,0,0","0","forest","7","probe-137","0.4568559047092205","0.1943849188194752","0.06627460997996201","0","","","","","","","",""
"","html-keyboard-response","103","587713","0.0-61.0-1.0","""event"",""trial"",""time""
""fullscreenenter"",""0"",""2991""
","
","
","""event"",""trial"",""time""
""fullscreenenter"",""0"",""2991""
","
","null","<p></p>","null","","","","","","","","","","","","","","","","","","","","","","",""
"","do_trial","104","592614","0.0-62.0-0.0","""event"",""trial"",""time""
""fullscreenenter"",""0"",""2991""
","
","
","""event"",""trial"",""time""
""fullscreenenter"",""0"",""2991""
","
","359.59999999403954","","","","","","","","49","0,1,0","0","forest","8","probe-44","0.3791416337320435","0.20805226687805675","0.12492715263000426","0","","","","","","","",""
"","html-keyboard-response","105","593616","0.0-62.0-1.0","""event"",""trial"",""time""
""fullscreenenter"",""0"",""2991""
","
","
","""event"",""trial"",""time""
""fullscreenenter"",""0"",""2991""
","
","null","<p></p>","null","","","","","","","","","","","","","","","","","","","","","","",""
"","do_trial","106","598434","0.0-63.0-0.0","""event"",""trial"",""time""
""fullscreenenter"",""0"",""2991""
","
","
","""event"",""trial"",""time""
""fullscreenenter"",""0"",""2991""
","
","276.2000000178814","","","","","","","","51","1,0,0","0","forest","9","probe-201","0.5869169388958533","0.24278781180570516","0.14126208803527107","0","","","","","","","",""
"","html-keyboard-response","107","599436","0.0-63.0-1.0","""event"",""trial"",""time""
""fullscreenenter"",""0"",""2991""
","
","
","""event"",""trial"",""time""
""fullscreenenter"",""0"",""2991""
","
","null","<p></p>","null","","","","","","","","","","","","","","","","","","","","","","",""
"","do_trial","108","604251","0.0-64.0-0.0","""event"",""trial"",""time""
""fullscreenenter"",""0"",""2991""
","
","
","""event"",""trial"",""time""
""fullscreenenter"",""0"",""2991""
","
","270.7999999821186","","","","","","","","49","1,0,0","0","forest","10","probe-56","0.5238148160776281","0.24219239952472116","0.08552408085203282","1","","","","","","","",""
"","html-keyboard-response","109","605256","0.0-64.0-1.0","""event"",""trial"",""time""
""fullscreenenter"",""0"",""2991""
","
","
","""event"",""trial"",""time""
""fullscreenenter"",""0"",""2991""
","
","null","<p></p>","null","","","","","","","","","","","","","","","","","","","","","","",""
"","do_trial","110","610366","0.0-65.0-0.0","""event"",""trial"",""time""
""fullscreenenter"",""0"",""2991""
","
","
","""event"",""trial"",""time""
""fullscreenenter"",""0"",""2991""
","
","571.9000000059605","","","","","","","","49","1,0,0","0","forest","11","probe-209","0.58976593017611","0.19760254886066755","0.14633956502651735","1","","","","","","","",""
"","html-keyboard-response","111","611370","0.0-65.0-1.0","""event"",""trial"",""time""
""fullscreenenter"",""0"",""2991""
","
","
","""event"",""trial"",""time""
""fullscreenenter"",""0"",""2991""
","
","null","<p></p>","null","","","","","","","","","","","","","","","","","","","","","","",""
"","do_trial","112","616833","0.0-66.0-0.0","""event"",""trial"",""time""
""fullscreenenter"",""0"",""2991""
","
","
","""event"",""trial"",""time""
""fullscreenenter"",""0"",""2991""
","
","921.3999999761581","","","","","","","","49","0,0,0","0","forest","12","probe-70","0.5714864444745037","0.13872446275072256","0.10591156867696962","0","","","","","","","",""
"","html-keyboard-response","113","617840","0.0-66.0-1.0","""event"",""trial"",""time""
""fullscreenenter"",""0"",""2991""
","
","
","""event"",""trial"",""time""
""fullscreenenter"",""0"",""2991""
","
","null","<p></p>","null","","","","","","","","","","","","","","","","","","","","","","",""
"","do_trial","114","622732","0.0-67.0-0.0","""event"",""trial"",""time""
""fullscreenenter"",""0"",""2991""
","
","
","""event"",""trial"",""time""
""fullscreenenter"",""0"",""2991""
","
","349.30000001192093","","","","","","","","51","1,0,0","0","forest","13","probe-23","0.49524543424036377","0.24226929430151173","0.0817243690024487","0","","","","","","","",""
"","html-keyboard-response","115","623739","0.0-67.0-1.0","""event"",""trial"",""time""
""fullscreenenter"",""0"",""2991""
","
","
","""event"",""trial"",""time""
""fullscreenenter"",""0"",""2991""
","
","null","<p></p>","null","","","","","","","","","","","","","","","","","","","","","","",""
"","do_trial","116","628968","0.0-68.0-0.0","""event"",""trial"",""time""
""fullscreenenter"",""0"",""2991""
","
","
","""event"",""trial"",""time""
""fullscreenenter"",""0"",""2991""
","
","687.9000000059605","","","","","","","","49","1,0,0","0","forest","14","probe-07","0.5377568940616817","0.2293403416167419","0.09789043723034752","1","","","","","","","",""
"","html-keyboard-response","117","629973","0.0-68.0-1.0","""event"",""trial"",""time""
""fullscreenenter"",""0"",""2991""
","
","
","""event"",""trial"",""time""
""fullscreenenter"",""0"",""2991""
","
","null","<p></p>","null","","","","","","","","","","","","","","","","","","","","","","",""
"","do_trial","118","635564","0.0-69.0-0.0","""event"",""trial"",""time""
""fullscreenenter"",""0"",""2991""
","
","
","""event"",""trial"",""time""
""fullscreenenter"",""0"",""2991""
","
","1048.2000000178814","","","","","","","","49","0,0,0","0","forest","15","probe-65","0.5872223872486896","0.0839742204738074","0.1494761377029894","0","","","","","","","",""
"","html-keyboard-response","119","636565","0.0-69.0-1.0","""event"",""trial"",""time""
""fullscreenenter"",""0"",""2991""
","
","
","""event"",""trial"",""time""
""fullscreenenter"",""0"",""2991""
","
","null","<p></p>","null","","","","","","","","","","","","","","","","","","","","","","",""
"","do_trial","120","641950","0.0-70.0-0.0","""event"",""trial"",""time""
""fullscreenenter"",""0"",""2991""
","
","
","""event"",""trial"",""time""
""fullscreenenter"",""0"",""2991""
","
","850.7000000178814","","","","","","","","49","0,1,0","0","forest","16","probe-181","0.45785340157118676","0.21743079994713935","0.2100230522165107","0","","","","","","","",""
"","html-keyboard-response","121","642955","0.0-70.0-1.0","""event"",""trial"",""time""
""fullscreenenter"",""0"",""2991""
","
","
","""event"",""trial"",""time""
""fullscreenenter"",""0"",""2991""
","
","null","<p></p>","null","","","","","","","","","","","","","","","","","","","","","","",""
"","do_trial","122","648024","0.0-71.0-0.0","""event"",""trial"",""time""
""fullscreenenter"",""0"",""2991""
","
","
","""event"",""trial"",""time""
""fullscreenenter"",""0"",""2991""
","
","525.4000000059605","","","","","","","","50","0,0,0","0","forest","17","probe-124","0.5878981650019887","0.25498240834400104","0.2611902864774686","0","","","","","","","",""
"","html-keyboard-response","123","649030","0.0-71.0-1.0","""event"",""trial"",""time""
""fullscreenenter"",""0"",""2991""
","
","
","""event"",""trial"",""time""
""fullscreenenter"",""0"",""2991""
","
","null","<p></p>","null","","","","","","","","","","","","","","","","","","","","","","",""
"","do_trial","124","653927","0.0-72.0-0.0","""event"",""trial"",""time""
""fullscreenenter"",""0"",""2991""
","
","
","""event"",""trial"",""time""
""fullscreenenter"",""0"",""2991""
","
","354.19999998807907","","","","","","","","51","0,0,1","0","forest","18","probe-94","0.5388053443150611","0.22161454100422634","0.213846752889836","1","","","","","","","",""
"","html-keyboard-response","125","654934","0.0-72.0-1.0","""event"",""trial"",""time""
""fullscreenenter"",""0"",""2991""
","
","
","""event"",""trial"",""time""
""fullscreenenter"",""0"",""2991""
","
","null","<p></p>","null","","","","","","","","","","","","","","","","","","","","","","",""
"","do_trial","126","660038","0.0-73.0-0.0","""event"",""trial"",""time""
""fullscreenenter"",""0"",""2991""
","
","
","""event"",""trial"",""time""
""fullscreenenter"",""0"",""2991""
","
","560.5","","","","","","","","49","0,0,0","0","forest","19","probe-112","0.5988415512221935","0.17294962817076354","0.21319815948066853","0","","","","","","","",""
"","html-keyboard-response","127","661042","0.0-73.0-1.0","""event"",""trial"",""time""
""fullscreenenter"",""0"",""2991""
","
","
","""event"",""trial"",""time""
""fullscreenenter"",""0"",""2991""
","
","null","<p></p>","null","","","","","","","","","","","","","","","","","","","","","","",""
"","do_trial","128","666029","0.0-74.0-0.0","""event"",""trial"",""time""
""fullscreenenter"",""0"",""2991""
","
","
","""event"",""trial"",""time""
""fullscreenenter"",""0"",""2991""
","
","443.5","","","","","","","","51","0,0,0","0","forest","20","probe-220","0.6781746868510808","0.26061306431761294","0.12764756005848366","0","","","","","","","",""
"","html-keyboard-response","129","667036","0.0-74.0-1.0","""event"",""trial"",""time""
""fullscreenenter"",""0"",""2991""
","
","
","""event"",""trial"",""time""
""fullscreenenter"",""0"",""2991""
","
","null","<p></p>","null","","","","","","","","","","","","","","","","","","","","","","",""
"","do_trial","130","672013","0.0-75.0-0.0","""event"",""trial"",""time""
""fullscreenenter"",""0"",""2991""
","
","
","""event"",""trial"",""time""
""fullscreenenter"",""0"",""2991""
","
","433.39999997615814","","","","","","","","49","1,1,0","0","forest","21","probe-204","0.5779949616040301","0.324428256865209","0.1766408930942633","1","","","","","","","",""
"","html-keyboard-response","131","673019","0.0-75.0-1.0","""event"",""trial"",""time""
""fullscreenenter"",""0"",""2991""
","
","
","""event"",""trial"",""time""
""fullscreenenter"",""0"",""2991""
","
","null","<p></p>","null","","","","","","","","","","","","","","","","","","","","","","",""
"","do_trial","132","678254","0.0-76.0-0.0","""event"",""trial"",""time""
""fullscreenenter"",""0"",""2991""
","
","
","""event"",""trial"",""time""
""fullscreenenter"",""0"",""2991""
","
","691.8000000119209","","","","","","","","49","0,0,0","0","forest","22","probe-173","0.5539428566996254","0.20412723702008606","0.07840499967841146","0","","","","","","","",""
"","html-keyboard-response","133","679259","0.0-76.0-1.0","""event"",""trial"",""time""
""fullscreenenter"",""0"",""2991""
","
","
","""event"",""trial"",""time""
""fullscreenenter"",""0"",""2991""
","
","null","<p></p>","null","","","","","","","","","","","","","","","","","","","","","","",""
"","do_trial","134","684430","0.0-77.0-0.0","""event"",""trial"",""time""
""fullscreenenter"",""0"",""2991""
","
","
","""event"",""trial"",""time""
""fullscreenenter"",""0"",""2991""
","
","627.5","","","","","","","","49","0,0,0","0","forest","23","probe-182","0.618901988149038","0.2730804491019774","0.14263578297621846","0","","","","","","","",""
"","html-keyboard-response","135","685436","0.0-77.0-1.0","""event"",""trial"",""time""
""fullscreenenter"",""0"",""2991""
","
","
","""event"",""trial"",""time""
""fullscreenenter"",""0"",""2991""
","
","null","<p></p>","null","","","","","","","","","","","","","","","","","","","","","","",""
"","do_trial","136","690441","0.0-78.0-0.0","""event"",""trial"",""time""
""fullscreenenter"",""0"",""2991""
","
","
","""event"",""trial"",""time""
""fullscreenenter"",""0"",""2991""
","
","461.59999999403954","","","","","","","","51","1,0,0","0","forest","24","probe-102","0.6960275157081266","0.16709605300822045","0.1866266947658737","0","","","","","","","",""
"","html-keyboard-response","137","691448","0.0-78.0-1.0","""event"",""trial"",""time""
""fullscreenenter"",""0"",""2991""
","
","
","""event"",""trial"",""time""
""fullscreenenter"",""0"",""2991""
","
","null","<p></p>","null","","","","","","","","","","","","","","","","","","","","","","",""
"","do_trial","138","696400","0.0-79.0-0.0","""event"",""trial"",""time""
""fullscreenenter"",""0"",""2991""
","
","
","""event"",""trial"",""time""
""fullscreenenter"",""0"",""2991""
","
","409.30000001192093","","","","","","","","49","0,0,0","0","forest","25","probe-39","0.6025825030552117","0.2365153003721392","0.13842441381495527","0","","","","","","","",""
"","html-keyboard-response","139","697407","0.0-79.0-1.0","""event"",""trial"",""time""
""fullscreenenter"",""0"",""2991""
","
","
","""event"",""trial"",""time""
""fullscreenenter"",""0"",""2991""
","
","null","<p></p>","null","","","","","","","","","","","","","","","","","","","","","","",""
"","do_trial","140","702507","0.0-80.0-0.0","""event"",""trial"",""time""
""fullscreenenter"",""0"",""2991""
","
","
","""event"",""trial"",""time""
""fullscreenenter"",""0"",""2991""
","
","557.6999999880791","","","","","","","","50","1,1,1","0","forest","26","probe-77","0.6743668009899303","0.3238786852901923","0.09698915999292167","1","","","","","","","",""
"","html-keyboard-response","141","703514","0.0-80.0-1.0","""event"",""trial"",""time""
""fullscreenenter"",""0"",""2991""
","
","
","""event"",""trial"",""time""
""fullscreenenter"",""0"",""2991""
","
","null","<p></p>","null","","","","","","","","","","","","","","","","","","","","","","",""
"","do_trial","142","708852","0.0-81.0-0.0","""event"",""trial"",""time""
""fullscreenenter"",""0"",""2991""
","
","
","""event"",""trial"",""time""
""fullscreenenter"",""0"",""2991""
","
","794.5","","","","","","","","50","1,0,0","0","forest","27","probe-120","0.6847748811395957","0.3404026984702685","0.18102084389429798","0","","","","","","","",""
"","html-keyboard-response","143","709858","0.0-81.0-1.0","""event"",""trial"",""time""
""fullscreenenter"",""0"",""2991""
","
","
","""event"",""trial"",""time""
""fullscreenenter"",""0"",""2991""
","
","null","<p></p>","null","","","","","","","","","","","","","","","","","","","","","","",""
"","do_trial","144","715042","0.0-82.0-0.0","""event"",""trial"",""time""
""fullscreenenter"",""0"",""2991""
","
","
","""event"",""trial"",""time""
""fullscreenenter"",""0"",""2991""
","
","642.0999999940395","","","","","","","","49","1,1,0","0","forest","28","probe-132","0.5742589515576608","0.3464498716290109","0.16437894610560677","1","","","","","","","",""
"","html-keyboard-response","145","716049","0.0-82.0-1.0","""event"",""trial"",""time""
""fullscreenenter"",""0"",""2991""
","
","
","""event"",""trial"",""time""
""fullscreenenter"",""0"",""2991""
","
","null","<p></p>","null","","","","","","","","","","","","","","","","","","","","","","",""
"","do_trial","146","723035","0.0-83.0-0.0","""event"",""trial"",""time""
""fullscreenenter"",""0"",""2991""
","
","
","""event"",""trial"",""time""
""fullscreenenter"",""0"",""2991""
","
","2443.600000023842","","","","","","","","49","0,1,0","0","forest","29","probe-207","0.6405101648835658","0.48184303187257466","0.2128089697278805","0","","","","","","","",""
"","html-keyboard-response","147","724042","0.0-83.0-1.0","""event"",""trial"",""time""
""fullscreenenter"",""0"",""2991""
","
","
","""event"",""trial"",""time""
""fullscreenenter"",""0"",""2991""
","
","null","<p></p>","null","","","","","","","","","","","","","","","","","","","","","","",""
"","do_bye","148","725551","0.0-84.0-0.0","""event"",""trial"",""time""
""fullscreenenter"",""0"",""2991""
","
","
","""event"",""trial"",""time""
""fullscreenenter"",""0"",""2991""
","
","null","","","","","","","","null","","","","","","","","","","","","","","","","",""
"","break","149","730846","0.0-84.0-1.0","""event"",""trial"",""time""
""fullscreenenter"",""0"",""2991""
","
","
","""event"",""trial"",""time""
""fullscreenenter"",""0"",""2991""
","
","5293.800000011921","<div class='center'><p>Time to take a quick break! You have 2 minutes to rest, but you can move on sooner if you'd like.</p><p> Press the <b>space bar</b> to continue.</p></div>","32","","","","","","","","","","","","","","","","","","","","","","",""
"","do_travel","150","739852","0.0-85.0-0.0","""event"",""trial"",""time""
""fullscreenenter"",""0"",""2991""
","
","
","""event"",""trial"",""time""
""fullscreenenter"",""0"",""2991""
","
","null","","","","","","","","null","","","","","","","","","","","","","","","","",""
"","do_welcome","151","743857","0.0-85.0-1.0","""event"",""trial"",""time""
""fullscreenenter"",""0"",""2991""
","
","
","""event"",""trial"",""time""
""fullscreenenter"",""0"",""2991""
","
","null","","","","","","","","null","","","","","","","","","","","","","","","","",""
"","do_trial","152","749583","0.0-86.0-0.0","""event"",""trial"",""time""
""fullscreenenter"",""0"",""2991""
","
","
","""event"",""trial"",""time""
""fullscreenenter"",""0"",""2991""
","
","1185.800000011921","","","","","","","","49","1,0,0","1","coast","30","probe-138","1","0.34932880083349843","0.1776578369492899","1","","","","","","","",""
"","html-keyboard-response","153","750588","0.0-86.0-1.0","""event"",""trial"",""time""
""fullscreenenter"",""0"",""2991""
","
","
","""event"",""trial"",""time""
""fullscreenenter"",""0"",""2991""
","
","null","<p></p>","null","","","","","","","","","","","","","","","","","","","","","","",""
"","do_trial","154","755915","0.0-87.0-0.0","""event"",""trial"",""time""
""fullscreenenter"",""0"",""2991""
","
","
","""event"",""trial"",""time""
""fullscreenenter"",""0"",""2991""
","
","783.5","","","","","","","","51","1,0,0","1","coast","31","probe-13","1","0.3155179414578904","0.16475979029808133","0","","","","","","","",""
"","html-keyboard-response","155","756921","0.0-87.0-1.0","""event"",""trial"",""time""
""fullscreenenter"",""0"",""2991""
","
","
","""event"",""trial"",""time""
""fullscreenenter"",""0"",""2991""
","
","null","<p></p>","null","","","","","","","","","","","","","","","","","","","","","","",""
"","do_trial","156","761914","0.0-88.0-0.0","""event"",""trial"",""time""
""fullscreenenter"",""0"",""2991""
","
","
","""event"",""trial"",""time""
""fullscreenenter"",""0"",""2991""
","
","452.69999998807907","","","","","","","","50","1,1,0","1","coast","32","probe-229","1","0.18518708802467562","0.16588273489245978","1","","","","","","","",""
"","html-keyboard-response","157","762921","0.0-88.0-1.0","""event"",""trial"",""time""
""fullscreenenter"",""0"",""2991""
","
","
","""event"",""trial"",""time""
""fullscreenenter"",""0"",""2991""
","
","null","<p></p>","null","","","","","","","","","","","","","","","","","","","","","","",""
"","do_trial","158","768049","0.0-89.0-0.0","""event"",""trial"",""time""
""fullscreenenter"",""0"",""2991""
","
","
","""event"",""trial"",""time""
""fullscreenenter"",""0"",""2991""
","
","585.0999999940395","","","","","","","","50","1,1,0","1","coast","33","probe-47","0.9307431186492179","0.22102817859164942","0.11990982530780343","1","","","","","","","",""
"","html-keyboard-response","159","769056","0.0-89.0-1.0","""event"",""trial"",""time""
""fullscreenenter"",""0"",""2991""
","
","
","""event"",""trial"",""time""
""fullscreenenter"",""0"",""2991""
","
","null","<p></p>","null","","","","","","","","","","","","","","","","","","","","","","",""
"","do_trial","160","774496","0.0-90.0-0.0","""event"",""trial"",""time""
""fullscreenenter"",""0"",""2991""
","
","
","""event"",""trial"",""time""
""fullscreenenter"",""0"",""2991""
","
","901.2999999821186","","","","","","","","50","1,0,0","1","coast","34","probe-169","0.7530797010122479","0.21511091285659248","0.18049325718205467","0","","","","","","","",""
"","html-keyboard-response","161","775502","0.0-90.0-1.0","""event"",""trial"",""time""
""fullscreenenter"",""0"",""2991""
","
","
","""event"",""trial"",""time""
""fullscreenenter"",""0"",""2991""
","
","null","<p></p>","null","","","","","","","","","","","","","","","","","","","","","","",""
"","do_trial","162","781027","0.0-91.0-0.0","""event"",""trial"",""time""
""fullscreenenter"",""0"",""2991""
","
","
","""event"",""trial"",""time""
""fullscreenenter"",""0"",""2991""
","
","981.5999999940395","","","","","","","","49","1,1,0","1","coast","35","probe-36","0.8525527742167804","0.33194082262398256","0.22474089872428424","1","","","","","","","",""
"","html-keyboard-response","163","782033","0.0-91.0-1.0","""event"",""trial"",""time""
""fullscreenenter"",""0"",""2991""
","
","
","""event"",""trial"",""time""
""fullscreenenter"",""0"",""2991""
","
","null","<p></p>","null","","","","","","","","","","","","","","","","","","","","","","",""
"","do_trial","164","788067","0.0-92.0-0.0","""event"",""trial"",""time""
""fullscreenenter"",""0"",""2991""
","
","
","""event"",""trial"",""time""
""fullscreenenter"",""0"",""2991""
","
","1495.8999999761581","","","","","","","","49","1,0,0","1","coast","36","probe-22","0.7089918141750847","0.22900212514633064","0.11001623291703638","1","","","","","","","",""
"","html-keyboard-response","165","789073","0.0-92.0-1.0","""event"",""trial"",""time""
""fullscreenenter"",""0"",""2991""
","
","
","""event"",""trial"",""time""
""fullscreenenter"",""0"",""2991""
","
","null","<p></p>","null","","","","","","","","","","","","","","","","","","","","","","",""
"","do_trial","166","794269","0.0-93.0-0.0","""event"",""trial"",""time""
""fullscreenenter"",""0"",""2991""
","
","
","""event"",""trial"",""time""
""fullscreenenter"",""0"",""2991""
","
","656.1999999880791","","","","","","","","49","1,0,0","1","coast","37","probe-158","0.7764815808053487","0.24771412471031443","0.05209391217218273","1","","","","","","","",""
"","html-keyboard-response","167","795275","0.0-93.0-1.0","""event"",""trial"",""time""
""fullscreenenter"",""0"",""2991""
","
","
","""event"",""trial"",""time""
""fullscreenenter"",""0"",""2991""
","
","null","<p></p>","null","","","","","","","","","","","","","","","","","","","","","","",""
"","do_trial","168","800701","0.0-94.0-0.0","""event"",""trial"",""time""
""fullscreenenter"",""0"",""2991""
","
","
","""event"",""trial"",""time""
""fullscreenenter"",""0"",""2991""
","
","883.5","","","","","","","","51","0,1,0","1","coast","38","probe-196","0.6712986547482246","0.16945349873775126","0.11510474663710803","0","","","","","","","",""
"","html-keyboard-response","169","801706","0.0-94.0-1.0","""event"",""trial"",""time""
""fullscreenenter"",""0"",""2991""
","
","
","""event"",""trial"",""time""
""fullscreenenter"",""0"",""2991""
","
","null","<p></p>","null","","","","","","","","","","","","","","","","","","","","","","",""
"","do_trial","170","806860","0.0-95.0-0.0","""event"",""trial"",""time""
""fullscreenenter"",""0"",""2991""
","
","
","""event"",""trial"",""time""
""fullscreenenter"",""0"",""2991""
","
","610.5","","","","","","","","50","1,0,0","1","coast","39","probe-29","0.5326990612161179","0.17399372814494865","0.1436702540681153","0","","","","","","","",""
"","html-keyboard-response","171","807866","0.0-95.0-1.0","""event"",""trial"",""time""
""fullscreenenter"",""0"",""2991""
","
","
","""event"",""trial"",""time""
""fullscreenenter"",""0"",""2991""
","
","null","<p></p>","null","","","","","","","","","","","","","","","","","","","","","","",""
"","do_trial","172","812963","0.0-96.0-0.0","""event"",""trial"",""time""
""fullscreenenter"",""0"",""2991""
","
","
","""event"",""trial"",""time""
""fullscreenenter"",""0"",""2991""
","
","554.2999999821186","","","","","","","","49","0,0,1","1","coast","40","probe-63","0.5398970860016579","0.1979268184655794","0.09758647640538401","0","","","","","","","",""
"","html-keyboard-response","173","813970","0.0-96.0-1.0","""event"",""trial"",""time""
""fullscreenenter"",""0"",""2991""
","
","
","""event"",""trial"",""time""
""fullscreenenter"",""0"",""2991""
","
","null","<p></p>","null","","","","","","","","","","","","","","","","","","","","","","",""
"","do_trial","174","819088","0.0-97.0-0.0","""event"",""trial"",""time""
""fullscreenenter"",""0"",""2991""
","
","
","""event"",""trial"",""time""
""fullscreenenter"",""0"",""2991""
","
","574.7999999821186","","","","","","","","50","1,1,0","1","coast","41","probe-223","0.49341170167717247","0.32921303233872384","0.17224652172564028","1","","","","","","","",""
"","html-keyboard-response","175","820095","0.0-97.0-1.0","""event"",""trial"",""time""
""fullscreenenter"",""0"",""2991""
","
","
","""event"",""trial"",""time""
""fullscreenenter"",""0"",""2991""
","
","null","<p></p>","null","","","","","","","","","","","","","","","","","","","","","","",""
"","do_trial","176","825368","0.0-98.0-0.0","""event"",""trial"",""time""
""fullscreenenter"",""0"",""2991""
","
","
","""event"",""trial"",""time""
""fullscreenenter"",""0"",""2991""
","
","730.7000000178814","","","","","","","","50","1,0,0","1","coast","42","probe-86","0.5565080279927963","0.44201554055655773","0.22869530720649972","0","","","","","","","",""
"","html-keyboard-response","177","826375","0.0-98.0-1.0","""event"",""trial"",""time""
""fullscreenenter"",""0"",""2991""
","
","
","""event"",""trial"",""time""
""fullscreenenter"",""0"",""2991""
","
","null","<p></p>","null","","","","","","","","","","","","","","","","","","","","","","",""
"","do_trial","178","831425","0.0-99.0-0.0","""event"",""trial"",""time""
""fullscreenenter"",""0"",""2991""
","
","
","""event"",""trial"",""time""
""fullscreenenter"",""0"",""2991""
","
","507.2000000178814","","","","","","","","49","1,0,1","1","coast","43","probe-100","0.5540318306590674","0.34300325338695736","0.1729621648841833","1","","","","","","","",""
"","html-keyboard-response","179","832432","0.0-99.0-1.0","""event"",""trial"",""time""
""fullscreenenter"",""0"",""2991""
","
","
","""event"",""trial"",""time""
""fullscreenenter"",""0"",""2991""
","
","null","<p></p>","null","","","","","","","","","","","","","","","","","","","","","","",""
"","do_trial","180","837483","0.0-100.0-0.0","""event"",""trial"",""time""
""fullscreenenter"",""0"",""2991""
","
","
","""event"",""trial"",""time""
""fullscreenenter"",""0"",""2991""
","
","508.69999998807907","","","","","","","","51","0,1,0","1","coast","44","probe-216","0.5532117788125888","0.5117765013719516","0.23385110268670567","0","","","","","","","",""
"","html-keyboard-response","181","838490","0.0-100.0-1.0","""event"",""trial"",""time""
""fullscreenenter"",""0"",""2991""
","
","
","""event"",""trial"",""time""
""fullscreenenter"",""0"",""2991""
","
","null","<p></p>","null","","","","","","","","","","","","","","","","","","","","","","",""
"","do_trial","182","843428","0.0-101.0-0.0","""event"",""trial"",""time""
""fullscreenenter"",""0"",""2991""
","
","
","""event"",""trial"",""time""
""fullscreenenter"",""0"",""2991""
","
","394.69999998807907","","","","","","","","50","0,1,0","1","coast","45","probe-34","0.31913953436487197","0.5875058704677478","0.2421670930778928","1","","","","","","","",""
"","html-keyboard-response","183","844435","0.0-101.0-1.0","""event"",""trial"",""time""
""fullscreenenter"",""0"",""2991""
","
","
","""event"",""trial"",""time""
""fullscreenenter"",""0"",""2991""
","
","null","<p></p>","null","","","","","","","","","","","","","","","","","","","","","","",""
"","do_trial","184","849724","0.0-102.0-0.0","""event"",""trial"",""time""
""fullscreenenter"",""0"",""2991""
","
","
","""event"",""trial"",""time""
""fullscreenenter"",""0"",""2991""
","
","750","","","","","","","","49","1,1,0","1","coast","46","probe-210","0.3643135713657539","0.672152971001945","0.1939668268016137","1","","","","","","","",""
"","html-keyboard-response","185","850731","0.0-102.0-1.0","""event"",""trial"",""time""
""fullscreenenter"",""0"",""2991""
","
","
","""event"",""trial"",""time""
""fullscreenenter"",""0"",""2991""
","
","null","<p></p>","null","","","","","","","","","","","","","","","","","","","","","","",""
"","do_trial","186","855842","0.0-103.0-0.0","""event"",""trial"",""time""
""fullscreenenter"",""0"",""2991""
","
","
","""event"",""trial"",""time""
""fullscreenenter"",""0"",""2991""
","
","568.6999999880791","","","","","","","","50","0,1,1","1","coast","47","probe-30","0.33555323090660577","0.5144699510577406","0.2420175940265577","1","","","","","","","",""
"","html-keyboard-response","187","856849","0.0-103.0-1.0","""event"",""trial"",""time""
""fullscreenenter"",""0"",""2991""
","
","
","""event"",""trial"",""time""
""fullscreenenter"",""0"",""2991""
","
","null","<p></p>","null","","","","","","","","","","","","","","","","","","","","","","",""
"","do_trial","188","862079","0.0-104.0-0.0","""event"",""trial"",""time""
""fullscreenenter"",""0"",""2991""
","
","
","""event"",""trial"",""time""
""fullscreenenter"",""0"",""2991""
","
","690.1999999880791","","","","","","","","49","0,1,0","1","coast","48","probe-140","0.2794651904715499","0.5008279638494538","0.35865869633536307","0","","","","","","","",""
"","html-keyboard-response","189","863084","0.0-104.0-1.0","""event"",""trial"",""time""
""fullscreenenter"",""0"",""2991""
","
","
","""event"",""trial"",""time""
""fullscreenenter"",""0"",""2991""
","
","null","<p></p>","null","","","","","","","","","","","","","","","","","","","","","","",""
"","do_trial","190","868087","0.0-105.0-0.0","""event"",""trial"",""time""
""fullscreenenter"",""0"",""2991""
","
","
","""event"",""trial"",""time""
""fullscreenenter"",""0"",""2991""
","
","459.69999998807907","","","","","","","","50","0,1,0","1","coast","49","probe-66","0.14651827443204224","0.5048976794395783","0.42543384817092794","1","","","","","","","",""
"","html-keyboard-response","191","869092","0.0-105.0-1.0","""event"",""trial"",""time""
""fullscreenenter"",""0"",""2991""
","
","
","""event"",""trial"",""time""
""fullscreenenter"",""0"",""2991""
","
","null","<p></p>","null","","","","","","","","","","","","","","","","","","","","","","",""
"","do_trial","192","874126","0.0-106.0-0.0","""event"",""trial"",""time""
""fullscreenenter"",""0"",""2991""
","
","
","""event"",""trial"",""time""
""fullscreenenter"",""0"",""2991""
","
","493.40000000596046","","","","","","","","49","1,0,0","1","coast","50","probe-15","0.1865412440068436","0.6198513630878861","0.28412998777912746","1","","","","","","","",""
"","html-keyboard-response","193","875132","0.0-106.0-1.0","""event"",""trial"",""time""
""fullscreenenter"",""0"",""2991""
","
","
","""event"",""trial"",""time""
""fullscreenenter"",""0"",""2991""
","
","null","<p></p>","null","","","","","","","","","","","","","","","","","","","","","","",""
"","do_trial","194","880273","0.0-107.0-0.0","""event"",""trial"",""time""
""fullscreenenter"",""0"",""2991""
","
","
","""event"",""trial"",""time""
""fullscreenenter"",""0"",""2991""
","
","597.0999999940395","","","","","","","","50","0,1,0","1","coast","51","probe-119","0.2403587543056614","0.5949834478959511","0.17552188500328286","1","","","","","","","",""
"","html-keyboard-response","195","881280","0.0-107.0-1.0","""event"",""trial"",""time""
""fullscreenenter"",""0"",""2991""
","
","
","""event"",""trial"",""time""
""fullscreenenter"",""0"",""2991""
","
","null","<p></p>","null","","","","","","","","","","","","","","","","","","","","","","",""
"","do_trial","196","886194","0.0-108.0-0.0","""event"",""trial"",""time""
""fullscreenenter"",""0"",""2991""
","
","
","""event"",""trial"",""time""
""fullscreenenter"",""0"",""2991""
","
","371.80000001192093","","","","","","","","50","0,0,0","1","coast","52","probe-161","0.15129644343390022","0.5878891354056508","0.20261539342644144","0","","","","","","","",""
"","html-keyboard-response","197","887199","0.0-108.0-1.0","""event"",""trial"",""time""
""fullscreenenter"",""0"",""2991""
","
","
","""event"",""trial"",""time""
""fullscreenenter"",""0"",""2991""
","
","null","<p></p>","null","","","","","","","","","","","","","","","","","","","","","","",""
"","do_trial","198","892183","0.0-109.0-0.0","""event"",""trial"",""time""
""fullscreenenter"",""0"",""2991""
","
","
","""event"",""trial"",""time""
""fullscreenenter"",""0"",""2991""
","
","440.40000000596046","","","","","","","","49","0,0,0","1","coast","53","probe-189","0.3204715822794567","0.5885603000751213","0.20793809179112066","0","","","","","","","",""
"","html-keyboard-response","199","893188","0.0-109.0-1.0","""event"",""trial"",""time""
""fullscreenenter"",""0"",""2991""
","
","
","""event"",""trial"",""time""
""fullscreenenter"",""0"",""2991""
","
","null","<p></p>","null","","","","","","","","","","","","","","","","","","","","","","",""
"","do_trial","200","898105","0.0-110.0-0.0","""event"",""trial"",""time""
""fullscreenenter"",""0"",""2991""
","
","
","""event"",""trial"",""time""
""fullscreenenter"",""0"",""2991""
","
","373.90000000596046","","","","","","","","50","0,1,1","1","coast","54","probe-122","0.2692291137240768","0.7126359431981694","0.12872315272394158","1","","","","","","","",""
"","html-keyboard-response","201","899109","0.0-110.0-1.0","""event"",""trial"",""time""
""fullscreenenter"",""0"",""2991""
","
","
","""event"",""trial"",""time""
""fullscreenenter"",""0"",""2991""
","
","null","<p></p>","null","","","","","","","","","","","","","","","","","","","","","","",""
"","do_trial","202","904132","0.0-111.0-0.0","""event"",""trial"",""time""
""fullscreenenter"",""0"",""2991""
","
","
","""event"",""trial"",""time""
""fullscreenenter"",""0"",""2991""
","
","479.19999998807907","","","","","","","","50","0,1,1","1","coast","55","probe-163","0.20669256437031688","0.7953400107598744","0.07708193983892675","1","","","","","","","",""
"","html-keyboard-response","203","905134","0.0-111.0-1.0","""event"",""trial"",""time""
""fullscreenenter"",""0"",""2991""
","
","
","""event"",""trial"",""time""
""fullscreenenter"",""0"",""2991""
","
","null","<p></p>","null","","","","","","","","","","","","","","","","","","","","","","",""
"","do_trial","204","910158","0.0-112.0-0.0","""event"",""trial"",""time""
""fullscreenenter"",""0"",""2991""
","
","
","""event"",""trial"",""time""
""fullscreenenter"",""0"",""2991""
","
","481.09999999403954","","","","","","","","50","0,1,0","1","coast","56","probe-143","0.13762408007856328","0.651561809723155","0.13137558807563177","1","","","","","","","",""
"","html-keyboard-response","205","911162","0.0-112.0-1.0","""event"",""trial"",""time""
""fullscreenenter"",""0"",""2991""
","
","
","""event"",""trial"",""time""
""fullscreenenter"",""0"",""2991""
","
","null","<p></p>","null","","","","","","","","","","","","","","","","","","","","","","",""
"","do_trial","206","916349","0.0-113.0-0.0","""event"",""trial"",""time""
""fullscreenenter"",""0"",""2991""
","
","
","""event"",""trial"",""time""
""fullscreenenter"",""0"",""2991""
","
","642.5","","","","","","","","50","0,1,0","1","coast","57","probe-62","0.1184266509876106","0.7232839161832331","0.0736099298746341","1","","","","","","","",""
"","html-keyboard-response","207","917356","0.0-113.0-1.0","""event"",""trial"",""time""
""fullscreenenter"",""0"",""2991""
","
","
","""event"",""trial"",""time""
""fullscreenenter"",""0"",""2991""
","
","null","<p></p>","null","","","","","","","","","","","","","","","","","","","","","","",""
"","do_trial","208","923827","0.0-114.0-0.0","""event"",""trial"",""time""
""fullscreenenter"",""0"",""2991""
","
","
","""event"",""trial"",""time""
""fullscreenenter"",""0"",""2991""
","
","1934","","","","","","","","50","1,1,0","1","coast","58","probe-48","0.27884068251072125","0.5962760386173492","0.1625817470246535","1","","","","","","","",""
"","html-keyboard-response","209","924834","0.0-114.0-1.0","""event"",""trial"",""time""
""fullscreenenter"",""0"",""2991""
","
","
","""event"",""trial"",""time""
""fullscreenenter"",""0"",""2991""
","
","null","<p></p>","null","","","","","","","","","","","","","","","","","","","","","","",""
"","do_trial","210","929975","0.0-115.0-0.0","""event"",""trial"",""time""
""fullscreenenter"",""0"",""2991""
","
","
","""event"",""trial"",""time""
""fullscreenenter"",""0"",""2991""
","
","597.3000000119209","","","","","","","","50","0,0,0","1","coast","59","probe-38","0.28712080828031605","0.46901991637705026","0.23604419215971054","0","","","","","","","",""
"","html-keyboard-response","211","930980","0.0-115.0-1.0","""event"",""trial"",""time""
""fullscreenenter"",""0"",""2991""
","
","
","""event"",""trial"",""time""
""fullscreenenter"",""0"",""2991""
","
","null","<p></p>","null","","","","","","","","","","","","","","","","","","","","","","",""
"","do_trial","212","935936","0.0-116.0-0.0","""event"",""trial"",""time""
""fullscreenenter"",""0"",""2991""
","
","
","""event"",""trial"",""time""
""fullscreenenter"",""0"",""2991""
","
","413.69999998807907","","","","","","","","49","0,0,0","1","coast","60","probe-50","0.13230540603386282","0.5197197645754039","0.2555214075912056","0","","","","","","","",""
"","html-keyboard-response","213","936942","0.0-116.0-1.0","""event"",""trial"",""time""
""fullscreenenter"",""0"",""2991""
","
","
","""event"",""trial"",""time""
""fullscreenenter"",""0"",""2991""
","
","null","<p></p>","null","","","","","","","","","","","","","","","","","","","","","","",""
"","do_trial","214","941963","0.0-117.0-0.0","""event"",""trial"",""time""
""fullscreenenter"",""0"",""2991""
","
","
","""event"",""trial"",""time""
""fullscreenenter"",""0"",""2991""
","
","478.2999999821186","","","","","","","","50","0,1,0","1","coast","61","probe-174","0.19273741434003358","0.7045916106258892","0.16809536040961184","1","","","","","","","",""
"","html-keyboard-response","215","942970","0.0-117.0-1.0","""event"",""trial"",""time""
""fullscreenenter"",""0"",""2991""
","
","
","""event"",""trial"",""time""
""fullscreenenter"",""0"",""2991""
","
","null","<p></p>","null","","","","","","","","","","","","","","","","","","","","","","",""
"","do_trial","216","948014","0.0-118.0-0.0","""event"",""trial"",""time""
""fullscreenenter"",""0"",""2991""
","
","
","""event"",""trial"",""time""
""fullscreenenter"",""0"",""2991""
","
","501.40000000596046","","","","","","","","50","0,1,1","1","coast","62","probe-193","0.3662064265484193","0.7063533763529551","0.09321434384657139","1","","","","","","","",""
"","html-keyboard-response","217","949021","0.0-118.0-1.0","""event"",""trial"",""time""
""fullscreenenter"",""0"",""2991""
","
","
","""event"",""trial"",""time""
""fullscreenenter"",""0"",""2991""
","
","null","<p></p>","null","","","","","","","","","","","","","","","","","","","","","","",""
"","do_trial","218","954165","0.0-119.0-0.0","""event"",""trial"",""time""
""fullscreenenter"",""0"",""2991""
","
","
","""event"",""trial"",""time""
""fullscreenenter"",""0"",""2991""
","
","600.5999999940395","","","","","","","","50","0,0,0","1","coast","63","probe-134","0.2550328231385769","0.6658940536170684","0.07876274355377676","0","","","","","","","",""
"","html-keyboard-response","219","955170","0.0-119.0-1.0","""event"",""trial"",""time""
""fullscreenenter"",""0"",""2991""
","
","
","""event"",""trial"",""time""
""fullscreenenter"",""0"",""2991""
","
","null","<p></p>","null","","","","","","","","","","","","","","","","","","","","","","",""
"","do_trial","220","960258","0.0-120.0-0.0","""event"",""trial"",""time""
""fullscreenenter"",""0"",""2991""
","
","
","""event"",""trial"",""time""
""fullscreenenter"",""0"",""2991""
","
","544.5","","","","","","","","50","0,1,0","1","coast","64","probe-155","0.30539921603681075","0.7657724116047762","0.13375282718620468","1","","","","","","","",""
"","html-keyboard-response","221","961262","0.0-120.0-1.0","""event"",""trial"",""time""
""fullscreenenter"",""0"",""2991""
","
","
","""event"",""trial"",""time""
""fullscreenenter"",""0"",""2991""
","
","null","<p></p>","null","","","","","","","","","","","","","","","","","","","","","","",""
"","do_trial","222","966412","0.0-121.0-0.0","""event"",""trial"",""time""
""fullscreenenter"",""0"",""2991""
","
","
","""event"",""trial"",""time""
""fullscreenenter"",""0"",""2991""
","
","608","","","","","","","","50","1,1,0","1","coast","65","probe-11","0.5157727565248611","0.6359465085341575","0.17726178469392437","1","","","","","","","",""
"","html-keyboard-response","223","967418","0.0-121.0-1.0","""event"",""trial"",""time""
""fullscreenenter"",""0"",""2991""
","
","
","""event"",""trial"",""time""
""fullscreenenter"",""0"",""2991""
","
","null","<p></p>","null","","","","","","","","","","","","","","","","","","","","","","",""
"","do_trial","224","972551","0.0-122.0-0.0","""event"",""trial"",""time""
""fullscreenenter"",""0"",""2991""
","
","
","""event"",""trial"",""time""
""fullscreenenter"",""0"",""2991""
","
","595.4000000059605","","","","","","","","49","1,0,0","1","coast","66","probe-113","0.29011886869236203","0.5829073135143021","0.2013481464336535","1","","","","","","","",""
"","html-keyboard-response","225","973557","0.0-122.0-1.0","""event"",""trial"",""time""
""fullscreenenter"",""0"",""2991""
","
","
","""event"",""trial"",""time""
""fullscreenenter"",""0"",""2991""
","
","null","<p></p>","null","","","","","","","","","","","","","","","","","","","","","","",""
"","do_trial","226","979261","0.0-123.0-0.0","""event"",""trial"",""time""
""fullscreenenter"",""0"",""2991""
","
","
","""event"",""trial"",""time""
""fullscreenenter"",""0"",""2991""
","
","1164","","","","","","","","49","0,0,0","1","coast","67","probe-219","0.4226331071040636","0.764261095499557","0.18612377727575313","0","","","","","","","",""
"","html-keyboard-response","227","980267","0.0-123.0-1.0","""event"",""trial"",""time""
""fullscreenenter"",""0"",""2991""
","
","
","""event"",""trial"",""time""
""fullscreenenter"",""0"",""2991""
","
","null","<p></p>","null","","","","","","","","","","","","","","","","","","","","","","",""
"","do_trial","228","985147","0.0-124.0-0.0","""event"",""trial"",""time""
""fullscreenenter"",""0"",""2991""
","
","
","""event"",""trial"",""time""
""fullscreenenter"",""0"",""2991""
","
","338.09999999403954","","","","","","","","50","0,1,0","1","coast","68","probe-202","0.41445678160694416","0.744040675537033","0.09974354860140189","1","","","","","","","",""
"","html-keyboard-response","229","986153","0.0-124.0-1.0","""event"",""trial"",""time""
""fullscreenenter"",""0"",""2991""
","
","
","""event"",""trial"",""time""
""fullscreenenter"",""0"",""2991""
","
","null","<p></p>","null","","","","","","","","","","","","","","","","","","","","","","",""
"","do_trial","230","991177","0.0-125.0-0.0","""event"",""trial"",""time""
""fullscreenenter"",""0"",""2991""
","
","
","""event"",""trial"",""time""
""fullscreenenter"",""0"",""2991""
","
","484","","","","","","","","49","0,0,0","1","coast","69","probe-21","0.3204401493102108","0.6032151880604003","0.1066366434500373","0","","","","","","","",""
"","html-keyboard-response","231","992181","0.0-125.0-1.0","""event"",""trial"",""time""
""fullscreenenter"",""0"",""2991""
","
","
","""event"",""trial"",""time""
""fullscreenenter"",""0"",""2991""
","
","null","<p></p>","null","","","","","","","","","","","","","","","","","","","","","","",""
"","do_bye","232","993686","0.0-126.0-0.0","""event"",""trial"",""time""
""fullscreenenter"",""0"",""2991""
","
","
","""event"",""trial"",""time""
""fullscreenenter"",""0"",""2991""
","
","null","","","","","","","","null","","","","","","","","","","","","","","","","",""
"","break","233","1001297","0.0-126.0-1.0","""event"",""trial"",""time""
""fullscreenenter"",""0"",""2991""
","
","
","""event"",""trial"",""time""
""fullscreenenter"",""0"",""2991""
","
","7609.699999988079","<div class='center'><p>Time to take a quick break! You have 2 minutes to rest, but you can move on sooner if you'd like.</p><p> Press the <b>space bar</b> to continue.</p></div>","32","","","","","","","","","","","","","","","","","","","","","","",""
"","do_travel","234","1010304","0.0-127.0-0.0","""event"",""trial"",""time""
""fullscreenenter"",""0"",""2991""
","
","
","""event"",""trial"",""time""
""fullscreenenter"",""0"",""2991""
","
","null","","","","","","","","null","","","","","","","","","","","","","","","","",""
"","do_welcome","235","1014312","0.0-127.0-1.0","""event"",""trial"",""time""
""fullscreenenter"",""0"",""2991""
","
","
","""event"",""trial"",""time""
""fullscreenenter"",""0"",""2991""
","
","null","","","","","","","","null","","","","","","","","","","","","","","","","",""
"","do_trial","236","1020310","0.0-128.0-0.0","""event"",""trial"",""time""
""fullscreenenter"",""0"",""2991""
","
","
","""event"",""trial"",""time""
""fullscreenenter"",""0"",""2991""
","
","1454","","","","","","","","49","1,1,0","2","city","70","probe-172","0.27657051879340006","1","0.14973955232877714","1","","","","","","","",""
"","html-keyboard-response","237","1021317","0.0-128.0-1.0","""event"",""trial"",""time""
""fullscreenenter"",""0"",""2991""
","
","
","""event"",""trial"",""time""
""fullscreenenter"",""0"",""2991""
","
","null","<p></p>","null","","","","","","","","","","","","","","","","","","","","","","",""
"","do_trial","238","1026727","0.0-129.0-0.0","""event"",""trial"",""time""
""fullscreenenter"",""0"",""2991""
","
","
","""event"",""trial"",""time""
""fullscreenenter"",""0"",""2991""
","
","867.8000000119209","","","","","","","","50","0,1,0","2","city","71","probe-01","0.28668446109039486","1","0.0802429670818346","1","","","","","","","",""
"","html-keyboard-response","239","1027733","0.0-129.0-1.0","""event"",""trial"",""time""
""fullscreenenter"",""0"",""2991""
","
","
","""event"",""trial"",""time""
""fullscreenenter"",""0"",""2991""
","
","null","<p></p>","null","","","","","","","","","","","","","","","","","","","","","","",""
"","do_trial","240","1032773","0.0-130.0-0.0","""event"",""trial"",""time""
""fullscreenenter"",""0"",""2991""
","
","
","""event"",""trial"",""time""
""fullscreenenter"",""0"",""2991""
","
","496.5","","","","","","","","51","1,1,0","2","city","72","probe-217","0.4283808802852028","0.8413644442676943","0.050215140087704786","0","","","","","","","",""
"","html-keyboard-response","241","1033780","0.0-130.0-1.0","""event"",""trial"",""time""
""fullscreenenter"",""0"",""2991""
","
","
","""event"",""trial"",""time""
""fullscreenenter"",""0"",""2991""
","
","null","<p></p>","null","","","","","","","","","","","","","","","","","","","","","","",""
"","do_trial","242","1038698","0.0-131.0-0.0","""event"",""trial"",""time""
""fullscreenenter"",""0"",""2991""
","
","
","""event"",""trial"",""time""
""fullscreenenter"",""0"",""2991""
","
","374.7999999821186","","","","","","","","49","1,0,0","2","city","73","probe-139","0.3428257964669082","0.7101472513398066","0.05894867973269945","1","","","","","","","",""
"","html-keyboard-response","243","1039703","0.0-131.0-1.0","""event"",""trial"",""time""
""fullscreenenter"",""0"",""2991""
","
","
","""event"",""trial"",""time""
""fullscreenenter"",""0"",""2991""
","
","null","<p></p>","null","","","","","","","","","","","","","","","","","","","","","","",""
"","do_trial","244","1044908","0.0-132.0-0.0","""event"",""trial"",""time""
""fullscreenenter"",""0"",""2991""
","
","
","""event"",""trial"",""time""
""fullscreenenter"",""0"",""2991""
","
","662.0999999940395","","","","","","","","50","0,1,0","2","city","74","probe-203","0.06957565742955488","0.7452276468495017","0.07498852233697814","1","","","","","","","",""
"","html-keyboard-response","245","1045913","0.0-132.0-1.0","""event"",""trial"",""time""
""fullscreenenter"",""0"",""2991""
","
","
","""event"",""trial"",""time""
""fullscreenenter"",""0"",""2991""
","
","null","<p></p>","null","","","","","","","","","","","","","","","","","","","","","","",""
"","do_trial","246","1051024","0.0-133.0-0.0","""event"",""trial"",""time""
""fullscreenenter"",""0"",""2991""
","
","
","""event"",""trial"",""time""
""fullscreenenter"",""0"",""2991""
","
","568.5999999940395","","","","","","","","49","0,0,0","2","city","75","probe-103","0.160263768076736","0.7136468212288801","0.11328382426518431","0","","","","","","","",""
"","html-keyboard-response","247","1052031","0.0-133.0-1.0","""event"",""trial"",""time""
""fullscreenenter"",""0"",""2991""
","
","
","""event"",""trial"",""time""
""fullscreenenter"",""0"",""2991""
","
","null","<p></p>","null","","","","","","","","","","","","","","","","","","","","","","",""
"","do_trial","248","1057032","0.0-134.0-0.0","""event"",""trial"",""time""
""fullscreenenter"",""0"",""2991""
","
","
","""event"",""trial"",""time""
""fullscreenenter"",""0"",""2991""
","
","458","","","","","","","","50","0,1,0","2","city","76","probe-105","0.1674398484125118","0.6539127974111396","0.09646159202470496","1","","","","","","","",""
"","html-keyboard-response","249","1058036","0.0-134.0-1.0","""event"",""trial"",""time""
""fullscreenenter"",""0"",""2991""
","
","
","""event"",""trial"",""time""
""fullscreenenter"",""0"",""2991""
","
","null","<p></p>","null","","","","","","","","","","","","","","","","","","","","","","",""
"","do_trial","250","1063191","0.0-135.0-0.0","""event"",""trial"",""time""
""fullscreenenter"",""0"",""2991""
","
","
","""event"",""trial"",""time""
""fullscreenenter"",""0"",""2991""
","
","611.6999999880791","","","","","","","","49","1,1,0","2","city","77","probe-12","0.3170875465662099","0.6620754273062979","0.05564199889857981","1","","","","","","","",""
"","html-keyboard-response","251","1064195","0.0-135.0-1.0","""event"",""trial"",""time""
""fullscreenenter"",""0"",""2991""
","
","
","""event"",""trial"",""time""
""fullscreenenter"",""0"",""2991""
","
","null","<p></p>","null","","","","","","","","","","","","","","","","","","","","","","",""
"","do_trial","252","1069302","0.0-136.0-0.0","""event"",""trial"",""time""
""fullscreenenter"",""0"",""2991""
","
","
","""event"",""trial"",""time""
""fullscreenenter"",""0"",""2991""
","
","564.0999999940395","","","","","","","","50","0,0,0","2","city","78","probe-191","0.3259475502763933","0.6805207913796791","0.11598162841194434","0","","","","","","","",""
"","html-keyboard-response","253","1070309","0.0-136.0-1.0","""event"",""trial"",""time""
""fullscreenenter"",""0"",""2991""
","
","
","""event"",""trial"",""time""
""fullscreenenter"",""0"",""2991""
","
","null","<p></p>","null","","","","","","","","","","","","","","","","","","","","","","",""
"","do_trial","254","1075389","0.0-137.0-0.0","""event"",""trial"",""time""
""fullscreenenter"",""0"",""2991""
","
","
","""event"",""trial"",""time""
""fullscreenenter"",""0"",""2991""
","
","537.3000000119209","","","","","","","","49","1,1,0","2","city","79","probe-162","0.2939773129656374","0.6419533329074619","0.10038001636311002","1","","","","","","","",""
"","html-keyboard-response","255","1076393","0.0-137.0-1.0","""event"",""trial"",""time""
""fullscreenenter"",""0"",""2991""
","
","
","""event"",""trial"",""time""
""fullscreenenter"",""0"",""2991""
","
","null","<p></p>","null","","","","","","","","","","","","","","","","","","","","","","",""
"","do_trial","256","1081774","0.0-138.0-0.0","""event"",""trial"",""time""
""fullscreenenter"",""0"",""2991""
","
","
","""event"",""trial"",""time""
""fullscreenenter"",""0"",""2991""
","
","836.5999999940395","","","","","","","","49","0,1,0","2","city","80","probe-79","0.25666492974279703","0.6228175493134651","0.053554540400761866","0","","","","","","","",""
"","html-keyboard-response","257","1082780","0.0-138.0-1.0","""event"",""trial"",""time""
""fullscreenenter"",""0"",""2991""
","
","
","""event"",""trial"",""time""
""fullscreenenter"",""0"",""2991""
","
","null","<p></p>","null","","","","","","","","","","","","","","","","","","","","","","",""
"","do_trial","258","1087654","0.0-139.0-0.0","""event"",""trial"",""time""
""fullscreenenter"",""0"",""2991""
","
","
","""event"",""trial"",""time""
""fullscreenenter"",""0"",""2991""
","
","330.7999999821186","","","","","","","","50","1,0,0","2","city","81","probe-197","0.29556073286309925","0.49618446068136907","0.140910359706233","0","","","","","","","",""
"","html-keyboard-response","259","1088661","0.0-139.0-1.0","""event"",""trial"",""time""
""fullscreenenter"",""0"",""2991""
","
","
","""event"",""trial"",""time""
""fullscreenenter"",""0"",""2991""
","
","null","<p></p>","null","","","","","","","","","","","","","","","","","","","","","","",""
"","do_trial","260","1093525","0.0-140.0-0.0","""event"",""trial"",""time""
""fullscreenenter"",""0"",""2991""
","
","
","""event"",""trial"",""time""
""fullscreenenter"",""0"",""2991""
","
","321.2000000178814","","","","","","","","51","0,0,0","2","city","82","probe-125","0.3271717068219552","0.3650075669912502","0.4195183642738965","0","","","","","","","",""
"","html-keyboard-response","261","1094532","0.0-140.0-1.0","""event"",""trial"",""time""
""fullscreenenter"",""0"",""2991""
","
","
","""event"",""trial"",""time""
""fullscreenenter"",""0"",""2991""
","
","null","<p></p>","null","","","","","","","","","","","","","","","","","","","","","","",""
