"success","trial_type","trial_index","time_elapsed","internal_node_id","rt","stimulus","key_press","subject_id","response","choice_outcomes","context_n","context_img_id","trial_n","probe_img_id","pR_red","pR_white","pR_black","outcome","is_valid","image_to_show","probed_trial","probed_context","correct","context_id"
"true","fullscreen","0","3645","0.0-0.0","","","","","","","","","","","","","","","","","","","",""
"","pavlovia","1","3652","0.0-1.0","","","","","","","","","","","","","","","","","","","",""
"","html-keyboard-response","2","12508","0.0-2.0","8854.80000000447","<div class='center'><p>Welcome! This experiment will last ~1 hour. In this experiment, you are the head captain of a pirate ship traveling around the world to different places. You will complete several different tasks during this experiment. Here is an overview of these tasks:</p><br><p>1. Tutorial and quiz</p><p>2. Pick a pirate game in 6 different places</p><p>3. Pick a pirate game and memory game</p><p>4. Final questions and payment</p><br><p>If you complete the entire experiment, you will receive $15 and a possible bonus payment.</p><p><b>[Press the space bar to begin the tutorial]</b></p></div>","32","60fe291fece25b50115ffd5f","","","","","","","","","","","","","","","",""
"","html-keyboard-response","3","18469","0.0-3.0","5958.89999999851","<div class='center'><p>You are the head captain of a pirate ship.</p><p> Your pirates rob other ships as they leave the marketplace port.</p> These ships have just sold all their goods at the marketplace, so they have lots and lots of gold on them.</p><p><img src='run_exp/static/images/ship_center.png' height='400'></p><p><b>[Press the space bar to continue]</b></p></div>","32","","","","","","","","","","","","","","","","",""
"","html-keyboard-response","4","29677","0.0-4.0","11207.60000000149","<div class='center'><p>As the head captain, you do not have to rob any ships yourself.</p><p>You get to choose which pirate you want to rob the next ship. </p><p>If they are successful at robbing the ship, then you will get gold coins.</p><p> If they are not successful, then you will get no gold coins.</p><p> The more coins you collect, the more bonus money you will win. So, choose your pirate wisely.</p><p><img src='run_exp/static/images/goal.png' height='400'></p><p><b>[Press the space bar to continue]</b></p><div>","32","","","","","","","","","","","","","","","","",""
"","html-keyboard-response","5","41637","0.0-5.0","11958.59999999404","<div class='center'><p>Even the most skilled pirate will not be able to rob EVERY ship.</p><p> Some ships will have very strong defenses against attacks.</p><p> For example, blue beard, here,  is very good at robbing ships.</p><p> You can press the <b>‘1’</b> button on the keyboard to choose him.</p><p> Try choosing him 10 times to see how often he is successful at robbing ships. </p><p><img src='run_exp/static/images/blue.png' height='500'></p></div>","49","","","","","","","","","","","","","","","","",""
"","html-keyboard-response","6","43145","0.0-6.0","null","<br><br><br><br><p><img src='run_exp/static/images/blue_win.png' height='500'></p>","null","","","","","","","","","","","","","","","","",""
"","html-keyboard-response","7","44755","0.0-7.0","1607.6000000014901","<br><br><br><br><p><img src='run_exp/static/images/blue.png' height='500'></p>","49","","","","","","","","","","","","","","","","",""
"","html-keyboard-response","8","46262","0.0-8.0","null","<br><br><br><br><p><img src='run_exp/static/images/blue_win.png' height='500'></p>","null","","","","","","","","","","","","","","","","",""
"","html-keyboard-response","9","46877","0.0-9.0","613.3999999985099","<br><br><br><br><p><img src='run_exp/static/images/blue.png' height='500'></p>","49","","","","","","","","","","","","","","","","",""
"","html-keyboard-response","10","48382","0.0-10.0","null","<br><br><br><br><p><img src='run_exp/static/images/blue_win.png' height='500'></p>","null","","","","","","","","","","","","","","","","",""
"","html-keyboard-response","11","48737","0.0-11.0","352.1000000014901","<br><br><br><br><p><img src='run_exp/static/images/blue.png' height='500'></p>","49","","","","","","","","","","","","","","","","",""
"","html-keyboard-response","12","50243","0.0-12.0","null","<br><br><br><br><p><img src='run_exp/static/images/blue_no_win.png' height='500'></p>","null","","","","","","","","","","","","","","","","",""
"","html-keyboard-response","13","51696","0.0-13.0","1451","<br><br><br><br><p><img src='run_exp/static/images/blue.png' height='500'></p>","49","","","","","","","","","","","","","","","","",""
"","html-keyboard-response","14","53203","0.0-14.0","null","<br><br><br><br><p><img src='run_exp/static/images/blue_win.png' height='500'></p>","null","","","","","","","","","","","","","","","","",""
"","html-keyboard-response","15","53838","0.0-15.0","633.1000000014901","<br><br><br><br><p><img src='run_exp/static/images/blue.png' height='500'></p>","49","","","","","","","","","","","","","","","","",""
"","html-keyboard-response","16","55344","0.0-16.0","null","<br><br><br><br><p><img src='run_exp/static/images/blue_win.png' height='500'></p>","null","","","","","","","","","","","","","","","","",""
"","html-keyboard-response","17","55638","0.0-17.0","292","<br><br><br><br><p><img src='run_exp/static/images/blue.png' height='500'></p>","49","","","","","","","","","","","","","","","","",""
"","html-keyboard-response","18","57145","0.0-18.0","null","<br><br><br><br><p><img src='run_exp/static/images/blue_win.png' height='500'></p>","null","","","","","","","","","","","","","","","","",""
"","html-keyboard-response","19","57443","0.0-19.0","296.69999999552965","<br><br><br><br><p><img src='run_exp/static/images/blue.png' height='500'></p>","49","","","","","","","","","","","","","","","","",""
"","html-keyboard-response","20","58947","0.0-20.0","null","<br><br><br><br><p><img src='run_exp/static/images/blue_no_win.png' height='500'></p>","null","","","","","","","","","","","","","","","","",""
"","html-keyboard-response","21","59639","0.0-21.0","691","<br><br><br><br><p><img src='run_exp/static/images/blue.png' height='500'></p>","49","","","","","","","","","","","","","","","","",""
"","html-keyboard-response","22","61146","0.0-22.0","null","<br><br><br><br><p><img src='run_exp/static/images/blue_win.png' height='500'></p>","null","","","","","","","","","","","","","","","","",""
"","html-keyboard-response","23","61465","0.0-23.0","317","<br><br><br><br><p><img src='run_exp/static/images/blue.png' height='500'></p>","49","","","","","","","","","","","","","","","","",""
"","html-keyboard-response","24","62972","0.0-24.0","null","<br><br><br><br><p><img src='run_exp/static/images/blue_win.png' height='500'></p>","null","","","","","","","","","","","","","","","","",""
"","html-keyboard-response","25","65891","0.0-25.0","2917.9000000059605","<div class='center'><p> See, he was successful at robbing the ships most of the time but not every time. </p><p><b>[Press the space bar to continue]</b></p></div>","32","","","","","","","","","","","","","","","","",""
"","html-keyboard-response","26","74718","0.0-26.0","8824.60000000149","<div class='center'><p>In the game, you will get to choose which of three pirates you want to rob the next ship. <p>Press the <b>‘1’</b> button on your keyboard to pick the pirate with the red beard.</p><p> Press <b>‘2’</b> to pick the pirate with the white beard.</p><p> Press <b>‘3’</b> to pick the pirate with the black beard.</p><p>Try picking a pirate now!</p><p><img src='run_exp/static/images/all_pirates.png' height='500'></p></div>","50","","","","","","","","","","","","","","","","",""
"","html-keyboard-response","27","75899","0.0-27.0-0.0","1176.7000000029802","<div class='center'><p>This pirate was successful at robbing the ship!</p><p><img src='run_exp/static/images/white_win.png' height='500'></p><p><b>[Press the space bar to continue]</b></p></div>","32","","","","","","","","","","","","","","","","",""
"","html-keyboard-response","28","76630","0.0-27.0-1.0","728.7000000029802","<div class='center'><p>Now try choosing another</p><p><img src='run_exp/static/images/all_pirates.png' height='500'></p></div>","49","","","","","","","","","","","","","","","","",""
"","html-keyboard-response","29","77534","0.0-28.0-0.0","901.6000000014901","<div class='center'><p>This pirate was not successful at robbing the ship!</p><p><img src='run_exp/static/images/red_no_win.png' height='500'></p><p><b>[Press the space bar to continue]</b></p></div>","32","","","","","","","","","","","","","","","","",""
"","html-keyboard-response","30","80265","0.0-29.0-0.0","2729.39999999851","<div class='center'><p>You’ll stop at these 6 places on your journey.</p><p><img src='run_exp/static/images/all_contexts.png' height='500'></p><p><b>[Press the space bar to continue]</b></p></div>","32","","","","","","","","","","","","","","","","",""
"","html-keyboard-response","31","86069","0.0-29.0-1.0","5802.60000000149","<div class='center'><p>How good a pirate is at robbing ships will depend on the current place.</p><p> Some pirates will have been to the place before, and will have more experience robbing ships there.</p><p>So, they will be more successful at stealing gold and bringing it back to you.</p><p><b>[Press the space bar to continue]</b></p></div>","32","","","","","","","","","","","","","","","","",""
"","html-keyboard-response","32","93345","0.0-29.0-2.0","7275.70000000298","<div class='center'><p>How successful a pirate is at robbing ships can also change in a place.<p> Ships may hear about the pirates coming and will improve their defenses. This may make it more difficult to rob them.</p><p> Ships may also grow lazy and lower their defenses. This may make it easier to rob them.</p><br><p>Things are always changing on the high seas! So, try your best to pay attention!</p><p><img src='run_exp/static/images/contingency.png' height='500'></p><p><b>[Press the space bar to continue]</b></p></div>","32","","","","","","","","","","","","","","","","",""
"","html-keyboard-response","33","105744","0.0-29.0-3.0","12397.80000000447","<div class='center'><p>Once you choose a pirate to rob a ship, you’ll be shown the ship they are robbing.</p><p>The ship will have a picture of the item they sold at the marketplace.</p><p> Try your best to remember the ship and where you saw the ship.</p><p> You’ll have to remember this for later, and remembering this correctly will help you win more bonus money!</p><p>You can remember the ship by remembering the item they sold at the marketplace</p><p>A helpful strategy is to try to come up with a story of the chosen pirate and ship’s item interacting with the scene.</p><p> For example, a ship might have sold travel mugs and you could imagine red beard walking through the city with a travel mug. </p><p>Or imagine an apple falling from a tree into white beard's hands in the forest.</p><p><img src='run_exp/static/images/example_probe.png' height='500'></p><p><b>[Press the space bar to continue]</b></p></div>","32","","","","","","","","","","","","","","","","",""
"","html-keyboard-response","34","113339","0.0-29.0-4.0","7593.30000000447","<div class='center'><p>If you don’t make your choice fast enough, you’ll have to wait a few seconds before you can make another one. </p><p>You can’t win more gold. You just have to sit and wait.</p><p><img src='run_exp/static/images/hurry_up.png' height='500'></p><p><b>[Press the space bar to continue]</b></p></div>","32","","","","","","","","","","","","","","","","",""
"","html-keyboard-response","35","128189","0.0-29.0-5.0","14849.60000000149","<div class='center'><p>Again, you have two important things to do: </p><b><p> 1. Pick the pirate who you think will be most successful at robbing the next ship.</p></b><b><p> 2. Remember where a pirate robbed a ship.</p> </b><p>Both are important in determining how much bonus money you’ll win.</p><br><p>Let’s try a practice game. The game will start by showing you the pirates. First pick a pirate using the <b> 1, 2, 3 </b> buttons on your keyboard. When you are shown a ship, try to remember the place you’re in by making up a story.</p><p> You only have 3 seconds to pick a pirate, so please make a choice quickly! If you are too slow, you’ll have to wait a bit during the time out.</p><p> Don’t feel rushed, but please do try to make a choice every time.</p><p>How good a pirate is at robbing a ship will change depending on the place they are in and how good the defenses are of the ship.</p> <p>This is just a practice game, so you’re not playing for money. </p><p>You’ll receive a bag which may or may not contain gold coins.</p><p> In the real game, though, you’ll be able to see whether or not you received the gold coins.</p><p> Good luck, remember press <b>'1'</b> to choose red beard, <b>'2'</b> to choose white beard, and <b>'3'</b> to choose black beard</p><p><b>[Press the space bar to begin the practice game]</b></p></div>","32","","","","","","","","","","","","","","","","",""
"","do_trial_prac","36","133505","0.0-29.0-6.0","797","","","","50","","","","","","","","","","","","","","",""
"","do_trial_prac","37","138357","0.0-29.0-7.0","341.3999999985099","","","","50","","","","","","","","","","","","","","",""
"","do_trial_prac","38","143566","0.0-29.0-8.0","696.3999999985099","","","","49","","","","","","","","","","","","","","",""
"","do_trial_prac","39","148502","0.0-29.0-9.0","422.29999999701977","","","","51","","","","","","","","","","","","","","",""
"","do_trial_prac","40","153433","0.0-29.0-10.0","418","","","","50","","","","","","","","","","","","","","",""
"","html-keyboard-response","41","159493","0.0-29.0-11.0","6058.20000000298","<div class='center'><p>Great job on the practice game!</p><p> Now, you will be asked you some true or false questions to make sure you really understand the rules of the game.</p><p> Press <b>'1'</b> on the keyboard for true and press <b>'2'</b> for false.</p><p><b>[Press the space bar to begin the quiz]</b></p></div>","32","","","","","","","","","","","","","","","","",""
"","html-keyboard-response","42","165152","0.0-29.0-12.0","5657.20000000298","<div class='center'><p>You win bonus money by making choices as fast as possible.</p><p>Press 1 for true and press  2 for false.</p></div>","49","","","","","","","","","","","","","","","","",""
"","html-keyboard-response","43","167956","0.0-30.0-0.0","2802.7999999970198","<br><br><br><br><p>That’s incorrect! You win bonus money by collecting as many gold coins as possible!</p><p><b>[press the space bar to continue with the quiz]</b></p>","32","","","","","","","","","","","","","","","","",""
"","html-keyboard-response","44","172905","0.0-30.0-1.0","4947.79999999702","<div class='center'><p>You press the <b>‘3’</b> button on the keyboard to choose the red bearded pirate? </p><p>Press 1 for true and press  2 for false.</p></div>","49","","","","","","","","","","","","","","","","",""
"","html-keyboard-response","45","174349","0.0-31.0-0.0","1442","<br><br><br><br><p>That’s incorrect! You press the <b>‘1’</b> button to choose the red bearded pirate!</p><p><b>[press the space bar to continue with the quiz]</b></p>","32","","","","","","","","","","","","","","","","",""
"","html-keyboard-response","46","178514","0.0-31.0-1.0","4164.80000000447","<div class='center'><p>A pirate will always be equally successful at robbing ships in each place</p><p>Press 1 for true and press  2 for false.</p></div>","50","","","","","","","","","","","","","","","","",""
"","html-keyboard-response","47","179905","0.0-32.0-0.0","1389","<br><br><br><br><p>That's correct!</p> <p><b>[press the space bar to continue with the quiz]</b></p>","32","","","","","","","","","","","","","","","","",""
"","html-keyboard-response","48","182597","0.0-32.0-1.0","2691.1999999955297","<div class='center'><p>You should remember the place where a pirate robbed a ship.</p><p>Press 1 for true and press  2 for false.</p></div>","49","","","","","","","","","","","","","","","","",""
"","html-keyboard-response","49","183632","0.0-33.0-0.0","1032.7999999970198","<br><br><br><br><p>That's correct!</p> <p><b>[press the space bar to continue with the quiz]</b></p>","32","","","","","","","","","","","","","","","","",""
"","html-keyboard-response","50","188706","0.0-34.0-0.0","5072.89999999851","<br><br><br><br><p>Oops, you missed some questions. Now that you’ve heard the correct answers. Try the quiz again! If you fail the quiz too many times, you won’t be able to do the experiment. </p> <p><br>[press the space bar to repeat the quiz]</br></p>","32","","","","","","","","","","","","","","","","",""
"","html-keyboard-response","51","191203","0.0-34.0-1.0","2495.2999999970198","<div class='center'><p>You win bonus money by making choices as fast as possible.</p><p>Press 1 for true and press  2 for false.</p></div>","50","","","","","","","","","","","","","","","","",""
"","html-keyboard-response","52","192276","0.0-35.0-0.0","1072","<br><br><br><br><p>That's correct!</p> <p><b>[press the space bar to continue with the quiz]</b></p>","32","","","","","","","","","","","","","","","","",""
"","html-keyboard-response","53","194770","0.0-35.0-1.0","2492.60000000149","<div class='center'><p>You press the <b>‘3’</b> button on the keyboard to choose the red bearded pirate? </p><p>Press 1 for true and press  2 for false.</p></div>","50","","","","","","","","","","","","","","","","",""
"","html-keyboard-response","54","195467","0.0-36.0-0.0","696.1999999955297","<br><br><br><br><p>That's correct!</p> <p><b>[press the space bar to continue with the quiz]</b></p>","32","","","","","","","","","","","","","","","","",""
"","html-keyboard-response","55","199092","0.0-36.0-1.0","3623.39999999851","<div class='center'><p>A pirate will always be equally successful at robbing ships in each place</p><p>Press 1 for true and press  2 for false.</p></div>","50","","","","","","","","","","","","","","","","",""
"","html-keyboard-response","56","199792","0.0-37.0-0.0","698.3999999985099","<br><br><br><br><p>That's correct!</p> <p><b>[press the space bar to continue with the quiz]</b></p>","32","","","","","","","","","","","","","","","","",""
"","html-keyboard-response","57","201292","0.0-37.0-1.0","1498.8999999985099","<div class='center'><p>You should remember the place where a pirate robbed a ship.</p><p>Press 1 for true and press  2 for false.</p></div>","49","","","","","","","","","","","","","","","","",""
"","html-keyboard-response","58","201861","0.0-38.0-0.0","552.2999999970198","<br><br><br><br><p>That's correct!</p> <p><b>[press the space bar to continue with the quiz]</b></p>","32","","","","","","","","","","","","","","","","",""
"","html-keyboard-response","59","202990","0.0-39.0-0.0","1126.3999999985099","<br><br><br><br><p>Good job! You’re now ready to move on to the real game!</p> <p><br>[press the space bar to begin!]</br></p>","32","","","","","","","","","","","","","","","","",""
"","do_welcome","60","204501","0.0-40.0-0.0","null","","","","null","","","","","","","","","","","","","","",""
"","do_trial","61","211733","0.0-41.0-0.0","1672.5","","","","50","1,1,0","0","countryside","0","probe-31","1","0.4","0.1","1","","","","","",""
"","do_trial","62","217706","0.0-42.0-0.0","413.29999999701977","","","","51","1,1,0","0","countryside","1","probe-78","1","0.4745739936683397","0.19596026195957822","0","","","","","",""
"","do_trial","63","224077","0.0-43.0-0.0","814.3999999985099","","","","49","1,0,0","0","countryside","2","probe-03","1","0.4028208971706254","0.3705166836472204","1","","","","","",""
"","do_trial","64","230391","0.0-44.0-0.0","755.6000000014901","","","","50","1,0,1","0","countryside","3","probe-217","1","0.6022013256643224","0.25936285012563426","0","","","","","",""
"","do_trial","65","236452","0.0-45.0-0.0","497.79999999701977","","","","49","1,1,0","0","countryside","4","probe-130","0.9484028487072403","0.46981481949382703","0.2583487007946491","1","","","","","",""
"","do_trial","66","242496","0.0-46.0-0.0","480","","","","49","0,1,0","0","countryside","5","probe-90","0.9064777585703498","0.32760209509291904","0.24202979771970295","0","","","","","",""
"","do_trial","67","249016","0.0-47.0-0.0","960.3000000044703","","","","50","1,0,0","0","countryside","6","probe-121","0.8891300246070322","0.36848834248098705","0.13902909631863866","0","","","","","",""
"","do_trial","68","255076","0.0-48.0-0.0","496.6000000014901","","","","51","1,1,0","0","countryside","7","probe-47","0.7922839047056424","0.39502513484478874","0.11911564958565875","0","","","","","",""
"","do_trial","69","261259","0.0-49.0-0.0","625.5","","","","49","1,0,0","0","countryside","8","probe-69","0.7814850291768162","0.344204260530313","0.20688578653342088","1","","","","","",""
"","do_trial","70","267782","0.0-50.0-0.0","962.1999999955297","","","","49","0,1,0","0","countryside","9","probe-64","0.8036652048779016","0.33762556759303086","0.11718481758645018","0","","","","","",""
"","do_trial","71","273808","0.0-51.0-0.0","463.20000000298023","","","","50","1,1,1","0","countryside","10","probe-83","0.7845128087433476","0.28665603456462857","0.333430938776438","1","","","","","",""
"","do_trial","72","279881","0.0-52.0-0.0","514.1000000014901","","","","50","1,0,0","0","countryside","11","probe-21","0.6819025188568679","0.23554721240024512","0.5732533405944409","0","","","","","",""
"","do_trial","73","285943","0.0-53.0-0.0","502.6000000014901","","","","50","1,0,1","0","countryside","12","probe-37","0.6585503780822732","0.12297104020784459","0.7883850862192745","0","","","","","",""
"","do_trial","74","292002","0.0-54.0-0.0","493.20000000298023","","","","49","1,1,1","0","countryside","13","probe-161","0.5055254491284411","0.12202353430022521","0.8430703456479768","1","","","","","",""
"","do_trial","75","298127","0.0-55.0-0.0","561.1000000014901","","","","49","1,1,1","0","countryside","14","probe-79","0.47878216198811735","0.08320122644656099","0.7560996040187432","1","","","","","",""
"","do_trial","76","304090","0.0-56.0-0.0","406.70000000298023","","","","49","0,0,1","0","countryside","15","probe-158","0.3581757473136549","0.07222779827268518","0.9130881494202637","0","","","","","",""
"","do_trial","77","310234","0.0-57.0-0.0","583.8000000044703","","","","49","0,0,1","0","countryside","16","probe-07","0.45616369578628824","0.15084787551535186","0.8231390769637527","0","","","","","",""
"","do_trial","78","316247","0.0-58.0-0.0","455.70000000298023","","","","51","0,0,1","0","countryside","17","probe-191","0.5751407854331663","0.14505875262369933","0.7206823488871328","1","","","","","",""
"","do_trial","79","322276","0.0-59.0-0.0","468.1000000014901","","","","51","1,0,0","0","countryside","18","probe-206","0.6322692716939118","0.11865690795100843","0.8066290668315236","0","","","","","",""
"","do_trial","80","328192","0.0-60.0-0.0","355.8999999985099","","","","51","1,0,1","0","countryside","19","probe-174","0.4840676404889717","0.09254365534306444","0.8669410881700753","1","","","","","",""
"","do_trial","81","334423","0.0-61.0-0.0","677.3999999985099","","","","49","0,0,1","0","countryside","20","probe-186","0.5923261251407003","0.0575524341005408","0.8783146494307031","0","","","","","",""
"","do_trial","82","340451","0.0-62.0-0.0","465.29999999701977","","","","50","0,0,1","0","countryside","21","probe-215","0.5463087865244861","0.09311157091846449","0.8659705312623907","0","","","","","",""
"","do_trial","83","346808","0.0-63.0-0.0","795.2000000029802","","","","49","0,0,1","0","countryside","22","probe-25","0.42427471726726323","0.09109124106970373","0.9445042523493788","0","","","","","",""
"","do_trial","84","353339","0.0-64.0-0.0","965.2000000029802","","","","50","1,0,1","0","countryside","23","probe-65","0.4718003003238651","0.20056790291536278","0.7288799073157679","0","","","","","",""
"","do_trial","85","359601","0.0-65.0-0.0","700.1000000014901","","","","49","0,0,1","0","countryside","24","probe-51","0.4632565391531136","0.05778732281615797","0.8233466604937583","0","","","","","",""
"","do_trial","86","367531","0.0-66.0-0.0","2372.10000000149","","","","49","0,0,1","0","countryside","25","probe-171","0.6467953313330697","0.15556653380637983","0.710014564595262","0","","","","","",""
"","do_trial","87","373961","0.0-67.0-0.0","888","","","","51","0,0,1","0","countryside","26","probe-28","0.5760179657164104","0.2615653408186386","0.7820143852361457","1","","","","","",""
"","do_trial","88","380033","0.0-68.0-0.0","513.3999999985099","","","","51","0,0,1","0","countryside","27","probe-149","0.42191096800892575","0.32291264158317107","0.7435621949647565","1","","","","","",""
"","do_trial","89","387430","0.0-69.0-0.0","1840.6000000014901","","","","51","0,0,1","0","countryside","28","probe-88","0.3580663131886108","0.3528721715589764","0.7734338855578888","1","","","","","",""
"","do_trial","90","393713","0.0-70.0-0.0","721.8000000044703","","","","51","0,1,1","0","countryside","29","probe-108","0.4096409600276843","0.2350352057119354","0.8373346799487946","1","","","","","",""
"","do_trial","91","399973","0.0-71.0-0.0","698.2000000029802","","","","51","1,1,1","0","countryside","30","probe-29","0.40886677671035004","0.13534060573426818","0.8410002986049214","1","","","","","",""
"","do_trial","92","406626","0.0-72.0-0.0","1093.5","","","","51","0,0,1","0","countryside","31","probe-228","0.23902597307690238","0.17423370559075538","0.8287354494399015","1","","","","","",""
"","do_trial","93","413785","0.0-73.0-0.0","1600.2999999970198","","","","51","0,0,1","0","countryside","32","probe-222","0.32513600603049186","0.31639734667549546","0.6906438087964841","1","","","","","",""
"","do_trial","94","420313","0.0-74.0-0.0","977.6000000014901","","","","51","0,1,1","0","countryside","33","probe-94","0.3257364991921045","0.2688458921818226","0.7854372762310192","1","","","","","",""
"","do_trial","95","426608","0.0-75.0-0.0","734.3999999985099","","","","50","0,0,1","0","countryside","34","probe-225","0.3659373331049831","0.13377410771378134","0.7786430044825973","0","","","","","",""
"","do_trial","96","433092","0.0-76.0-0.0","919.1000000014901","","","","50","0,0,1","0","countryside","35","probe-97","0.36021789223529516","0.1755248553393712","0.9411801274457485","0","","","","","",""
"","do_trial","97","439270","0.0-77.0-0.0","614.1999999955297","","","","49","1,0,1","0","countryside","36","probe-82","0.3185561098576509","0.17280892443179693","0.8118931003428864","1","","","","","",""
"","do_trial","98","445538","0.0-78.0-0.0","709","","","","50","0,0,1","0","countryside","37","probe-66","0.46890190552262684","0.18962039381190132","0.7119514261611125","0","","","","","",""
"","do_trial","99","452082","0.0-79.0-0.0","982","","","","49","0,0,1","0","countryside","38","probe-136","0.5421596892773879","0.2301248178494512","0.7046042657944714","0","","","","","",""
"","do_trial","100","458705","0.0-80.0-0.0","1062.8000000044703","","","","50","0,0,0","0","countryside","39","probe-60","0.6097429085047166","0.16052469748112072","0.6843449659091236","0","","","","","",""
"","do_bye","101","460219","0.0-81.0-0.0","null","","","","null","","","","","","","","","","","","","","",""
"","do_travel","102","466222","0.0-82.0-0.0","null","","","","null","","","","","","","","","","","","","","",""
"","do_welcome","103","467735","0.0-82.0-1.0","null","","","","null","","","","","","","","","","","","","","",""
"","do_trial","104","474524","0.0-83.0-0.0","1232.2999999970198","","","","50","0,0,1","1","forest","40","probe-118","0.5148923541185593","0.09299048479314972","1","0","","","","","",""
"","do_trial","105","482729","0.0-84.0-0.0","2643.39999999851","","","","50","0,0,1","1","forest","41","probe-150","0.5540162902406337","0.09367721443864452","1","0","","","","","",""
"","do_trial","106","488677","0.0-85.0-0.0","390.29999999701977","","","","49","1,0,1","1","forest","42","probe-117","0.6140337552518089","0.1127980775264175","1","1","","","","","",""
"","do_trial","107","494991","0.0-86.0-0.0","765.8000000044703","","","","49","1,1,1","1","forest","43","probe-103","0.48373476602097143","0.09958670775787772","1","1","","","","","",""
"","do_trial","108","500912","0.0-87.0-0.0","368","","","","49","0,0,0","1","forest","44","probe-87","0.3805761039394682","0.1742962194360573","0.8912751848236597","0","","","","","",""
"","do_trial","109","507021","0.0-88.0-0.0","556.6000000014901","","","","49","0,0,1","1","forest","45","probe-195","0.22571569083286627","0.10658141671565288","0.8612942460067732","0","","","","","",""
"","do_trial","110","513143","0.0-89.0-0.0","563.7000000029802","","","","51","0,0,1","1","forest","46","probe-231","0.28176818186759944","0.2018387035076228","0.7345945497528955","1","","","","","",""
"","do_trial","111","519070","0.0-90.0-0.0","367.70000000298023","","","","51","0,0,0","1","forest","47","probe-204","0.309272419163899","0.1538271699730919","0.7601386482095793","0","","","","","",""
"","do_trial","112","525012","0.0-91.0-0.0","381.8999999985099","","","","51","0,0,1","1","forest","48","probe-148","0.3684495414505963","0.10684946591260765","0.9377249177738207","1","","","","","",""
"","do_trial","113","531555","0.0-92.0-0.0","982.7000000029802","","","","50","0,0,0","1","forest","49","probe-168","0.3630495814311088","0.0670633608176356","0.8011062376935921","0","","","","","",""
"","do_trial","114","538355","0.0-93.0-0.0","1245.7000000029802","","","","49","1,1,1","1","forest","50","probe-32","0.5077272899910706","0.43626193654278544","0.6585988432305702","1","","","","","",""
"","do_trial","115","545984","0.0-94.0-0.0","2070","","","","49","1,1,0","1","forest","51","probe-26","0.5147088236142533","0.6384721335570203","0.4140598516937567","1","","","","","",""
"","do_trial","116","552117","0.0-95.0-0.0","571.6999999955297","","","","49","1,1,0","1","forest","52","probe-205","0.5482588551955404","0.5367980459191908","0.364478193738953","1","","","","","",""
"","do_trial","117","558852","0.0-96.0-0.0","1175.8999999985099","","","","49","1,0,0","1","forest","53","probe-09","0.4033199568781089","0.6385383595878988","0.27155403231780495","1","","","","","",""
"","do_trial","118","564970","0.0-97.0-0.0","554.6000000014901","","","","49","1,0,0","1","forest","54","probe-132","0.37283419432874654","0.6838160881055896","0.1066616026725089","1","","","","","",""
"","do_trial","119","570905","0.0-98.0-0.0","374.1000000014901","","","","49","1,1,0","1","forest","55","probe-81","0.45566283926103424","0.6211266976267485","0.10110492155744483","1","","","","","",""
"","do_trial","120","576975","0.0-99.0-0.0","509.3999999985099","","","","49","0,1,0","1","forest","56","probe-46","0.35586222756697505","0.7617669718466623","0.14032142030334493","0","","","","","",""
"","do_trial","121","583032","0.0-100.0-0.0","495","","","","49","1,1,1","1","forest","57","probe-162","0.4772881661302054","0.6824887717726859","0.15829695861538118","1","","","","","",""
"","do_trial","122","589431","0.0-101.0-0.0","836.3000000044703","","","","49","1,0,0","1","forest","58","probe-181","0.49470717968862593","0.7098290298213208","0.08579707657752104","1","","","","","",""
"","do_trial","123","596362","0.0-102.0-0.0","1367.6000000014901","","","","49","1,1,0","1","forest","59","probe-75","0.49463552851483744","0.7590281532260603","0.07795467959760756","1","","","","","",""
"","do_trial","124","602740","0.0-103.0-0.0","817","","","","49","1,0,1","1","forest","60","probe-239","0.4832262953703632","0.7725523825153591","0.17496933059045675","1","","","","","",""
"","do_trial","125","609290","0.0-104.0-0.0","987.6000000014901","","","","49","1,0,1","1","forest","61","probe-154","0.559712560629558","0.6991959890212992","0.09219000237636703","1","","","","","",""
"","do_trial","126","615517","0.0-105.0-0.0","675.9000000059605","","","","51","1,1,0","1","forest","62","probe-43","0.5500200757542756","0.7750049207841927","0.09070836905605016","0","","","","","",""
"","do_trial","127","621632","0.0-106.0-0.0","554","","","","49","1,0,0","1","forest","63","probe-35","0.522474249496375","0.704325446336516","0.062421173233264904","1","","","","","",""
"","do_trial","128","627924","0.0-107.0-0.0","730.2000000029802","","","","49","0,1,0","1","forest","64","probe-27","0.40937452010729825","0.7842026330216413","0.09593873669244442","0","","","","","",""
"","do_trial","129","633934","0.0-108.0-0.0","449.8999999985099","","","","49","1,1,0","1","forest","65","probe-177","0.3623336493095656","0.7742436449445883","0.12288133285467392","1","","","","","",""
"","do_trial","130","640599","0.0-109.0-0.0","1104","","","","49","0,1,0","1","forest","66","probe-223","0.37944437390347757","0.7973286287701505","0.1867254915368695","0","","","","","",""
"","do_trial","131","646539","0.0-110.0-0.0","387.3999999985099","","","","49","1,0,0","1","forest","67","probe-226","0.3137108011333494","0.7678858981235714","0.12020327571744137","1","","","","","",""
"","do_trial","132","653022","0.0-111.0-0.0","925.5","","","","49","0,1,0","1","forest","68","probe-234","0.24886482728164058","0.7893439444812107","0.14138435764491716","0","","","","","",""
"","do_trial","133","659842","0.0-112.0-0.0","1264.8000000044703","","","","49","0,1,0","1","forest","69","probe-22","0.32408977290739666","0.8621235906817474","0.07637292776191594","0","","","","","",""
"","do_trial","134","667156","0.0-113.0-0.0","1748.7999999970198","","","","50","0,1,0","1","forest","70","probe-155","0.2588004572723595","0.9495917880381904","0.06738677698882346","1","","","","","",""
"","do_trial","135","673831","0.0-114.0-0.0","1120.1000000014901","","","","49","0,1,0","1","forest","71","probe-185","0.3378527172663654","0.9157235344768633","0.22994872162945776","0","","","","","",""
"","do_trial","136","680122","0.0-115.0-0.0","735.1999999955297","","","","51","1,1,0","1","forest","72","probe-76","0.5274109897206354","0.8000000665925354","0.107428938173632","0","","","","","",""
"","do_trial","137","686253","0.0-116.0-0.0","566.5","","","","49","0,1,0","1","forest","73","probe-55","0.5136949644593727","0.8336866279449034","0.08493715176167509","0","","","","","",""
"","do_trial","138","692239","0.0-117.0-0.0","427.5","","","","49","0,1,0","1","forest","74","probe-73","0.5051283008642163","0.9179645776771629","0.06963228067837031","0","","","","","",""
"","do_trial","139","698238","0.0-118.0-0.0","442.20000000298023","","","","50","0,1,0","1","forest","75","probe-24","0.3925994141259919","0.8210412355413358","0.07423906454226117","1","","","","","",""
"","do_trial","140","704880","0.0-119.0-0.0","1090.4000000059605","","","","50","0,1,1","1","forest","76","probe-15","0.2717633705801109","0.717751533214641","0.05031862314034689","1","","","","","",""
"","do_trial","141","710933","0.0-120.0-0.0","494.09999999403954","","","","50","0,0,0","1","forest","77","probe-207","0.40708013947803773","0.6968175408898162","0.19451292217525903","0","","","","","",""
"","do_trial","142","717513","0.0-121.0-0.0","1014.7999999970198","","","","50","0,1,0","1","forest","78","probe-119","0.35579311511816825","0.7454924183804914","0.20360887819167026","1","","","","","",""
"","do_trial","143","723580","0.0-122.0-0.0","508.3999999985099","","","","50","0,1,0","1","forest","79","probe-14","0.3869253026671238","0.874753640046337","0.1471619836422706","1","","","","","",""
"","do_bye","144","725085","0.0-123.0-0.0","null","","","","null","","","","","","","","","","","","","","",""
"","do_travel","145","731088","0.0-124.0-0.0","null","","","","null","","","","","","","","","","","","","","",""
"","do_welcome","146","732594","0.0-124.0-1.0","null","","","","null","","","","","","","","","","","","","","",""
"","do_trial","147","738702","0.0-125.0-0.0","549.7000000029802","","","","51","1,1,1","2","coast","80","probe-235","0.4684227605760397","1","0.2789960403548031","1","","","","","",""
"","do_trial","148","744949","0.0-126.0-0.0","687.6999999955297","","","","51","0,1,0","2","coast","81","probe-110","0.4824765175683674","1","0.2622025272162357","0","","","","","",""
"","do_trial","149","751139","0.0-127.0-0.0","637.3999999985099","","","","51","1,1,0","2","coast","82","probe-71","0.35911943829966997","1","0.18498078243629437","0","","","","","",""
"","do_trial","150","757213","0.0-128.0-0.0","516.1000000014901","","","","51","1,1,1","2","coast","83","probe-106","0.3446675169992034","1","0.17499807270892628","1","","","","","",""
"","do_trial","151","763536","0.0-129.0-0.0","765.8000000044703","","","","50","1,0,0","2","coast","84","probe-30","0.42459328013280856","0.9207978279870761","0.1416024904449576","0","","","","","",""
"","do_trial","152","769539","0.0-130.0-0.0","442.20000000298023","","","","51","1,1,0","2","coast","85","probe-54","0.4474937516396527","0.7037215361696518","0.2129470172309815","0","","","","","",""
"","do_trial","153","775536","0.0-131.0-0.0","437.6000000014901","","","","51","1,1,1","2","coast","86","probe-125","0.4887841951986664","0.7898567932428379","0.1518954452011114","1","","","","","",""
"","do_trial","154","781628","0.0-132.0-0.0","529","","","","51","1,1,1","2","coast","87","probe-146","0.3176882759925588","0.7562364775622507","0.238886527907339","1","","","","","",""
"","do_trial","155","787869","0.0-133.0-0.0","683.7999999970198","","","","51","0,1,0","2","coast","88","probe-70","0.22833476655805895","0.9085098219112738","0.1767464073361812","0","","","","","",""
"","do_trial","156","794859","0.0-134.0-0.0","1429.5","","","","51","0,1,0","2","coast","89","probe-122","0.1860794228610957","0.8768289304822373","0.06838452936290434","0","","","","","",""
"","do_trial","157","801090","0.0-135.0-0.0","664.3999999985099","","","","49","0,1,0","2","coast","90","probe-113","0.07244937811107012","0.7983304029524828","0.32162431371663097","0","","","","","",""
"","do_trial","158","807211","0.0-136.0-0.0","557.6999999955297","","","","49","0,1,1","2","coast","91","probe-67","0.06807389088723155","0.7351397609097213","0.5211121171209425","0","","","","","",""
"","do_trial","159","813232","0.0-137.0-0.0","463.8999999985099","","","","51","0,0,0","2","coast","92","probe-20","0.06590855444800511","0.6583683056813042","0.46756617732563904","0","","","","","",""
"","do_trial","160","819934","0.0-138.0-0.0","1146.1000000014901","","","","51","0,0,1","2","coast","93","probe-183","0.07658806227656291","0.632628027740054","0.655122920358364","1","","","","","",""
"","do_trial","161","826487","0.0-139.0-0.0","1003.2999999970198","","","","51","1,1,1","2","coast","94","probe-57","0.20721805797772014","0.5978878159978668","0.7561782453637405","1","","","","","",""
"","do_trial","162","832491","0.0-140.0-0.0","448.5","","","","51","0,1,1","2","coast","95","probe-169","0.10963270154812914","0.43600878245476127","0.7995993593699916","1","","","","","",""
"","do_trial","163","838559","0.0-141.0-0.0","null","","","","null","0,0,1","2","coast","96","probe-176","0.05069802232657506","0.45574627675926266","0.7793026326938377","","","","","","",""
"","do_trial","164","844627","0.0-142.0-0.0","512.2000000029802","","","","49","0,0,1","2","coast","97","probe-128","0.07643970128499215","0.4527329357902302","0.8993786014083218","0","","","","","",""
"","do_trial","165","850518","0.0-143.0-0.0","333.3999999985099","","","","51","0,1,1","2","coast","98","probe-61","0.21752868880807316","0.4905552769563441","0.8582965851192197","1","","","","","",""
"","do_trial","166","856345","0.0-144.0-0.0","270.3999999985099","","","","51","0,0,1","2","coast","99","probe-224","0.17267795802942498","0.5662666212986419","0.8896285970593774","1","","","","","",""
"","do_trial","167","862379","0.0-145.0-0.0","470.80000000447035","","","","51","0,0,1","2","coast","100","probe-211","0.10749047038691416","0.47427615447899973","0.7597065395613969","1","","","","","",""
"","do_trial","168","868248","0.0-146.0-0.0","303.20000000298023","","","","51","1,0,1","2","coast","101","probe-198","0.16661976164718945","0.3883009614778928","0.8540597450432692","1","","","","","",""
"","do_trial","169","874091","0.0-147.0-0.0","281.29999999701977","","","","51","0,0,1","2","coast","102","probe-19","0.051995549563569485","0.414755371986449","0.840247005008695","1","","","","","",""
"","do_trial","170","880529","0.0-148.0-0.0","875.2999999970198","","","","51","0,1,1","2","coast","103","probe-62","0.2359527991270678","0.4664978908036464","0.9006720610871094","1","","","","","",""
"","do_trial","171","886725","0.0-149.0-0.0","633.2999999970198","","","","51","0,1,0","2","coast","104","probe-219","0.20243492335323965","0.6514192262001276","0.8326617385902155","0","","","","","",""
"","do_trial","172","892800","0.0-150.0-0.0","513.5","","","","51","0,1,1","2","coast","105","probe-109","0.16581958762409374","0.5828585919494306","0.7813533416880756","1","","","","","",""
"","do_trial","173","899967","0.0-151.0-0.0","1604.2999999970198","","","","51","0,1,1","2","coast","106","probe-143","0.13862653570787883","0.47213235899865746","0.7639393722871576","1","","","","","",""
"","do_trial","174","907376","0.0-152.0-0.0","1850.5","","","","51","0,0,1","2","coast","107","probe-93","0.05519869747568901","0.46086830088322295","0.4932872434990149","1","","","","","",""
"","do_trial","175","913076","0.0-153.0-0.0","138.29999999701977","","","","51","0,1,1","2","coast","108","probe-114","0.09157831125339286","0.3859111425225534","0.646448426694816","1","","","","","",""
"","do_trial","176","919326","0.0-154.0-0.0","691.5","","","","51","0,1,1","2","coast","109","probe-165","0.17107358237952497","0.4701076739863324","0.766771318603968","1","","","","","",""
"","do_trial","177","925657","0.0-155.0-0.0","774.1999999955297","","","","51","1,1,1","2","coast","110","probe-34","0.2342081928690947","0.4684087812609856","0.792689899184334","1","","","","","",""
"","do_trial","178","931640","0.0-156.0-0.0","429.70000000298023","","","","51","0,0,1","2","coast","111","probe-91","0.17553151056747407","0.3986678862800712","0.7976769361960799","1","","","","","",""
"","do_trial","179","937538","0.0-157.0-0.0","340.8999999985099","","","","51","0,0,0","2","coast","112","probe-159","0.11202268038143672","0.18522650423709602","0.7119076672939282","0","","","","","",""
"","do_trial","180","943705","0.0-158.0-0.0","600.3999999985099","","","","51","0,0,1","2","coast","113","probe-172","0.08690013645091905","0.20668348083990842","0.7752829263836902","1","","","","","",""
"","do_trial","181","951770","0.0-159.0-0.0","2504.2999999970198","","","","51","0,0,1","2","coast","114","probe-232","0.05589108567010844","0.25977478031049356","0.9086691038275221","1","","","","","",""
"","do_trial","182","958953","0.0-160.0-0.0","1619.2999999970198","","","","51","0,0,1","2","coast","115","probe-202","0.13235287397898712","0.25662892048519087","0.867642543088743","1","","","","","",""
"","do_trial","183","965179","0.0-161.0-0.0","656.3999999985099","","","","51","1,0,1","2","coast","116","probe-39","0.1489067694194564","0.26130792734189817","0.8134095425311503","1","","","","","",""
"","do_trial","184","972543","0.0-162.0-0.0","1809.3999999985099","","","","51","0,0,0","2","coast","117","probe-133","0.07918956755762234","0.24264388494766154","0.8548239967366883","0","","","","","",""
"","do_trial","185","978575","0.0-163.0-0.0","475.5","","","","51","0,0,1","2","coast","118","probe-240","0.18924548412414402","0.29064370921236893","0.793433627712502","1","","","","","",""
"","do_trial","186","984821","0.0-164.0-0.0","684.8000000044703","","","","51","1,1,1","2","coast","119","probe-141","0.2340887248675111","0.262418876095234","0.6691424423861935","1","","","","","",""
"","do_bye","187","986334","0.0-165.0-0.0","null","","","","null","","","","","","","","","","","","","","",""
"","do_travel","188","992342","0.0-166.0-0.0","null","","","","null","","","","","","","","","","","","","","",""
"","do_welcome","189","993856","0.0-166.0-1.0","null","","","","null","","","","","","","","","","","","","","",""
"","do_trial","190","1000117","0.0-167.0-0.0","698.3999999985099","","","","50","0,0,1","3","highway","120","probe-111","0.22689911421889208","0.08814658495567013","1","0","","","","","",""
"","do_trial","191","1006100","0.0-168.0-0.0","421.8999999985099","","","","49","0,0,1","3","highway","121","probe-140","0.2140827048294019","0.20529235853944458","1","0","","","","","",""
"","do_trial","192","1012193","0.0-169.0-0.0","530.3999999985099","","","","51","0,0,1","3","highway","122","probe-200","0.10921525940559398","0.24284363320228453","1","1","","","","","",""
"","do_trial","193","1018067","0.0-170.0-0.0","312.19999999552965","","","","51","1,1,1","3","highway","123","probe-16","0.1716009045693434","0.2902486462930117","1","1","","","","","",""
"","do_trial","194","1024173","0.0-171.0-0.0","543.8999999985099","","","","51","1,1,1","3","highway","124","probe-164","0.09702773156794096","0.22783230044279004","0.8176733865842876","1","","","","","",""
"","do_trial","195","1030981","0.0-172.0-0.0","1242.5","","","","51","1,1,1","3","highway","125","probe-208","0.17433668714260983","0.39748122936641106","0.7661140784514495","1","","","","","",""
"","do_trial","196","1036828","0.0-173.0-0.0","285.1000000014901","","","","51","0,0,1","3","highway","126","probe-52","0.104380001617802","0.4142873161109914","0.84664709100581","1","","","","","",""
"","do_trial","197","1042819","0.0-174.0-0.0","433.6000000014901","","","","51","0,0,1","3","highway","127","probe-157","0.06001897577234191","0.40342327410769135","0.8790976708570294","1","","","","","",""
"","do_trial","198","1049169","0.0-175.0-0.0","786.7999999970198","","","","51","0,1,1","3","highway","128","probe-05","0.15069346873338976","0.4935596558976264","0.9243668711635412","1","","","","","",""
"","do_trial","199","1055897","0.0-176.0-0.0","1170.3999999985099","","","","51","1,1,1","3","highway","129","probe-45","0.08811203496562724","0.3585233559650394","0.9223424134348446","1","","","","","",""
"","do_trial","200","1062347","0.0-177.0-0.0","886.6000000014901","","","","51","0,0,1","3","highway","130","probe-107","0.4836004340936203","0.1622900892293797","0.7441947587920437","1","","","","","",""
"","do_trial","201","1068671","0.0-178.0-0.0","759.3999999985099","","","","51","0,0,0","3","highway","131","probe-229","0.6709627340615003","0.318288348572721","0.6821618763652376","0","","","","","",""
"","do_trial","202","1075065","0.0-179.0-0.0","841.1000000014901","","","","51","1,0,0","3","highway","132","probe-160","0.693034412355713","0.11797580802021221","0.47083201228270866","0","","","","","",""
"","do_trial","203","1081181","0.0-180.0-0.0","547.6000000014901","","","","51","1,0,0","3","highway","133","probe-23","0.723560686766569","0.17485813597749364","0.49570489181084315","0","","","","","",""
"","do_trial","204","1087078","0.0-181.0-0.0","339.8999999985099","","","","50","1,0,0","3","highway","134","probe-123","0.6422145260236307","0.05518701015627567","0.4169098656004926","0","","","","","",""
"","do_trial","205","1093322","0.0-182.0-0.0","691.1000000014901","","","","49","0,0,1","3","highway","135","probe-49","0.7599682061694927","0.06415976141298396","0.5176108958096625","0","","","","","",""
"","do_trial","206","1099160","0.0-183.0-0.0","279.79999999701977","","","","51","1,0,1","3","highway","136","probe-233","0.8563083978348278","0.11813582661254855","0.5837769039695385","1","","","","","",""
"","do_trial","207","1105279","0.0-184.0-0.0","556.7000000029802","","","","51","1,0,1","3","highway","137","probe-95","0.7955001972671157","0.07834279490022666","0.5124343954208206","1","","","","","",""
"","do_trial","208","1112441","0.0-185.0-0.0","1599.6999999955297","","","","51","1,1,1","3","highway","138","probe-86","0.745225496079505","0.11089835553514674","0.5942007506829985","1","","","","","",""
"","do_trial","209","1118574","0.0-186.0-0.0","564.5","","","","51","1,0,0","3","highway","139","probe-04","0.7946375173592543","0.09028742439675387","0.5580579348728519","0","","","","","",""
"","do_trial","210","1125372","0.0-187.0-0.0","1231.8999999985099","","","","51","1,0,0","3","highway","140","probe-180","0.725739441628411","0.08104865550687512","0.4676445571235251","0","","","","","",""
"","do_trial","211","1131241","0.0-188.0-0.0","308.1000000014901","","","","51","1,0,1","3","highway","141","probe-151","0.768488090952803","0.14652999011613926","0.3928363495318704","1","","","","","",""
"","do_trial","212","1137232","0.0-189.0-0.0","431.8999999985099","","","","51","1,0,1","3","highway","142","probe-36","0.8575181311571902","0.09527768341764681","0.630652437960332","1","","","","","",""
"","do_trial","213","1143295","0.0-190.0-0.0","501.5","","","","51","1,0,0","3","highway","143","probe-102","0.9287892011247451","0.14025285535112234","0.5892977068945081","0","","","","","",""
"","do_trial","214","1150638","0.0-191.0-0.0","1792","","","","51","0,0,1","3","highway","144","probe-173","0.722141875335486","0.12420126705167146","0.5418701354700757","1","","","","","",""
"","do_trial","215","1157679","0.0-192.0-0.0","1483.8999999985099","","","","50","1,1,0","3","highway","145","probe-210","0.6904087939492286","0.10409641997530908","0.4574514875154473","1","","","","","",""
"","do_trial","216","1163891","0.0-193.0-0.0","655.6999999955297","","","","50","1,0,0","3","highway","146","probe-227","0.6749138705479963","0.10013953192244907","0.5395540579563575","0","","","","","",""
"","do_trial","217","1169875","0.0-194.0-0.0","427.1000000014901","","","","51","1,0,0","3","highway","147","probe-120","0.7345761457822139","0.055014388190191686","0.6676496664421913","0","","","","","",""
"","do_trial","218","1176051","0.0-195.0-0.0","615.8999999985099","","","","50","0,1,1","3","highway","148","probe-145","0.7047587791453629","0.14948031027797803","0.34508226289303523","1","","","","","",""
"","do_trial","219","1182581","0.0-196.0-0.0","966.1999999955297","","","","50","1,0,1","3","highway","149","probe-220","0.6731992358177752","0.13649607457921636","0.31166625412939064","0","","","","","",""
"","do_trial","220","1188445","0.0-197.0-0.0","301.5","","","","51","1,0,0","3","highway","150","probe-189","0.7694060064393571","0.14414893054905484","0.3950783993393354","0","","","","","",""
"","do_trial","221","1194713","0.0-198.0-0.0","708.1000000014901","","","","51","1,0,0","3","highway","151","probe-193","0.7053235440685056","0.14676507494103253","0.3409425906777001","0","","","","","",""
"","do_trial","222","1200436","0.0-199.0-0.0","163.39999999850988","","","","49","1,0,0","3","highway","152","probe-139","0.7595229359387582","0.09503909255255755","0.2999790251790319","1","","","","","",""
"","do_trial","223","1206481","0.0-200.0-0.0","485.1000000014901","","","","49","1,0,0","3","highway","153","probe-197","0.700729398379236","0.05200698044737708","0.3187437124681284","1","","","","","",""
"","do_trial","224","1213925","0.0-201.0-0.0","1885.8999999985099","","","","49","1,0,0","3","highway","154","probe-156","0.720513031774129","0.11529377776297754","0.34094187060793124","1","","","","","",""
"","do_trial","225","1219937","0.0-202.0-0.0","449.5","","","","49","1,0,0","3","highway","155","probe-212","0.8680989110531445","0.12185276198147586","0.3721869772188598","1","","","","","",""
"","do_trial","226","1226150","0.0-203.0-0.0","651","","","","49","1,1,0","3","highway","156","probe-192","0.7733899681040092","0.19364730221127524","0.2933163622345499","1","","","","","",""
"","do_trial","227","1233873","0.0-204.0-0.0","2163.60000000149","","","","49","1,0,0","3","highway","157","probe-38","0.8555899590953858","0.07538218086622679","0.26447735727550997","1","","","","","",""
"","do_trial","228","1240209","0.0-205.0-0.0","782.2999999970198","","","","49","1,1,1","3","highway","158","probe-18","0.8934276151588335","0.1836862058892389","0.401857534263271","1","","","","","",""
"","do_trial","229","1246956","0.0-206.0-0.0","1194","","","","49","1,0,0","3","highway","159","probe-96","0.8595284147593333","0.3153027063903352","0.35540935043953964","1","","","","","",""
"","do_bye","230","1248469","0.0-207.0-0.0","null","","","","null","","","","","","","","","","","","","","",""
"","do_travel","231","1254477","0.0-208.0-0.0","null","","","","null","","","","","","","","","","","","","","",""
"","do_welcome","232","1255989","0.0-208.0-1.0","null","","","","null","","","","","","","","","","","","","","",""
"","do_trial","233","1262006","0.0-209.0-0.0","459.29999999701977","","","","51","1,1,0","4","city","160","probe-12","1","0.28813850200576235","0.2416101601230692","0","","","","","",""
"","do_trial","234","1268378","0.0-210.0-0.0","807.8000000044703","","","","49","1,0,0","4","city","161","probe-01","1","0.34386100111605444","0.32185567376443464","1","","","","","",""
"","do_trial","235","1274156","0.0-211.0-0.0","214.80000000447035","","","","49","1,1,0","4","city","162","probe-13","1","0.38360813803989935","0.3116694178770477","1","","","","","",""
"","do_trial","236","1279837","0.0-212.0-0.0","118.60000000149012","","","","49","1,0,0","4","city","163","probe-77","1","0.2682106199598323","0.4980063749194375","1","","","","","",""
"","do_trial","237","1285908","0.0-213.0-0.0","null","","","","null","1,0,0","4","city","164","probe-85","0.9408204390136818","0.11138904975396166","0.4566298570190848","","","","","","",""
"","do_trial","238","1291817","0.0-214.0-0.0","346.1000000014901","","","","49","1,0,0","4","city","165","probe-203","0.9124575062472723","0.1435646496988033","0.4540183062250949","1","","","","","",""
"","do_trial","239","1297809","0.0-215.0-0.0","436.1000000014901","","","","49","1,0,1","4","city","166","probe-53","0.8257926067373959","0.23515803398909774","0.4702233083118235","1","","","","","",""
"","do_trial","240","1304353","0.0-216.0-0.0","987.2000000029802","","","","49","0,0,0","4","city","167","probe-08","0.8232925452573946","0.18088568629242294","0.4280481136472743","0","","","","","",""
"","do_trial","241","1310427","0.0-217.0-0.0","512.8000000044703","","","","49","0,0,1","4","city","168","probe-98","0.7701593320567612","0.14269627091422143","0.48958544024131223","0","","","","","",""
"","do_trial","242","1316310","0.0-218.0-0.0","325","","","","49","1,0,0","4","city","169","probe-218","0.7745648858617831","0.13838844592453767","0.4209181846849212","1","","","","","",""
"","do_trial","243","1322781","0.0-219.0-0.0","910.6000000014901","","","","49","1,0,0","4","city","170","probe-33","0.557684384997231","0.1416130269981394","0.3972551993885465","1","","","","","",""
"","do_trial","244","1328759","0.0-220.0-0.0","422.30000000447035","","","","49","0,1,0","4","city","171","probe-127","0.42345143131685176","0.34612215962315857","0.4968994170906736","0","","","","","",""
"","do_trial","245","1334963","0.0-221.0-0.0","641.3000000044703","","","","51","0,0,1","4","city","172","probe-89","0.3329085187416276","0.35292926173453476","0.7499103469442211","1","","","","","",""
"","do_trial","246","1341291","0.0-222.0-0.0","766","","","","49","1,0,1","4","city","173","probe-190","0.1997571637211006","0.3628482692280071","0.8686754276646567","1","","","","","",""
"","do_trial","247","1347313","0.0-223.0-0.0","459","","","","49","0,0,1","4","city","174","probe-199","0.21435157288713946","0.5426752233601383","0.8387786076806372","0","","","","","",""
"","do_trial","248","1353905","0.0-224.0-0.0","1030.3999999985099","","","","49","0,0,0","4","city","175","probe-131","0.19832211809672762","0.49534566031509036","0.7832136108418116","0","","","","","",""
"","do_trial","249","1359972","0.0-225.0-0.0","null","","","","null","0,1,1","4","city","176","probe-152","0.3658931885976119","0.5463786293861136","0.804331931613736","","","","","","",""
"","do_trial","250","1366297","0.0-226.0-0.0","772.2999999970198","","","","51","0,1,0","4","city","177","probe-72","0.20407818832647792","0.44916752152369605","0.727720063723609","0","","","","","",""
"","do_trial","251","1372267","0.0-227.0-0.0","410.69999999552965","","","","49","0,0,1","4","city","178","probe-40","0.09038832673853385","0.43878741056015047","0.6581811538389666","0","","","","","",""
"","do_trial","252","1378194","0.0-228.0-0.0","365.8999999985099","","","","49","0,0,0","4","city","179","probe-116","0.12569435255287348","0.3622241870199525","0.7190055674849581","0","","","","","",""
"","do_trial","253","1383756","0.0-229.0-0.0","0.10000000149011612","","","","49","0,0,0","4","city","180","probe-59","0.05311726724109632","0.36550185684881564","0.7618038809108464","0","","","","","",""
"","do_trial","254","1391027","0.0-230.0-0.0","1700.6000000014901","","","","49","0,0,1","4","city","181","probe-100","0.1320436770628204","0.2728953041561492","0.803914342489883","0","","","","","",""
"","do_trial","255","1399389","0.0-231.0-0.0","2785.0999999940395","","","","49","0,0,1","4","city","182","probe-02","0.15519115307694334","0.30086629648771956","0.8467420839065457","0","","","","","",""
"","do_trial","256","1405886","0.0-232.0-0.0","924.6000000014901","","","","49","0,0,1","4","city","183","probe-11","0.21315036003780635","0.3473262878446179","0.912725299105366","0","","","","","",""
"","do_trial","257","1411787","0.0-233.0-0.0","336","","","","49","0,1,1","4","city","184","probe-48","0.08252472084789408","0.27896459873129137","0.931338207474029","0","","","","","",""
"","do_trial","258","1418044","0.0-234.0-0.0","694.7999999970198","","","","49","0,0,1","4","city","185","probe-58","0.060589401854801224","0.3157441555542847","0.8545253166275959","0","","","","","",""
"","do_trial","259","1424407","0.0-235.0-0.0","799.5","","","","49","0,0,1","4","city","186","probe-201","0.11768281185410363","0.2652149834167972","0.8431484214923435","0","","","","","",""
"","do_trial","260","1430644","0.0-236.0-0.0","681.2000000029802","","","","49","0,0,0","4","city","187","probe-142","0.2142004291704936","0.22636060438957945","0.7858086543040176","0","","","","","",""
"","do_trial","261","1436742","0.0-237.0-0.0","543.3999999985099","","","","49","1,0,1","4","city","188","probe-196","0.18960589758517268","0.22998513152481784","0.6827551311708118","1","","","","","",""
"","do_trial","262","1443027","0.0-238.0-0.0","730.2999999970198","","","","49","1,0,0","4","city","189","probe-44","0.2718399263369401","0.2617012196704183","0.7170934574346965","1","","","","","",""
"","do_trial","263","1449086","0.0-239.0-0.0","null","","","","null","1,0,0","4","city","190","probe-92","0.16040969813727288","0.37471313850259125","0.7032937701723628","","","","","","",""
"","do_trial","264","1455054","0.0-240.0-0.0","406.29999999701977","","","","49","0,0,1","4","city","191","probe-147","0.2405933087127479","0.45609016643406125","0.75496506851905","0","","","","","",""
"","do_trial","265","1460616","0.0-241.0-0.0","0.10000000149011612","","","","49","1,1,1","4","city","192","probe-84","0.23667829727277295","0.41230475202717887","0.6740013470619282","1","","","","","",""
"","do_trial","266","1467452","0.0-242.0-0.0","1273.2999999970198","","","","49","0,1,1","4","city","193","probe-163","0.18458609578644267","0.4836793068026073","0.6812669468520709","0","","","","","",""
"","do_trial","267","1473507","0.0-243.0-0.0","null","","","","null","0,1,1","4","city","194","probe-134","0.07662314496786117","0.5823393948277439","0.8333624713525584","","","","","","",""
"","do_trial","268","1481572","0.0-244.0-0.0","2504.89999999851","","","","50","0,1,1","4","city","195","probe-182","0.10546042366334335","0.505558048161952","0.9255170586525224","1","","","","","",""
"","do_trial","269","1487908","0.0-245.0-0.0","779.6999999955297","","","","50","0,0,1","4","city","196","probe-137","0.06676393065093883","0.4245602359673776","0.8866786778141394","0","","","","","",""
"","do_trial","270","1496355","0.0-246.0-0.0","2893.3000000044703","","","","49","0,1,0","4","city","197","probe-126","0.0665569448856176","0.37143178676108596","0.8140500790053268","0","","","","","",""
"","do_trial","271","1504602","0.0-247.0-0.0","2694.89999999851","","","","49","0,1,1","4","city","198","probe-184","0.10161618626591526","0.3117486605659855","0.8631848176167257","0","","","","","",""
"","do_trial","272","1510737","0.0-248.0-0.0","580","","","","49","0,1,0","4","city","199","probe-74","0.14797179707287253","0.3950613959320648","0.6911200895529561","0","","","","","",""
"","do_bye","273","1512246","0.0-249.0-0.0","null","","","","null","","","","","","","","","","","","","","",""
"","do_travel","274","1518255","0.0-250.0-0.0","null","","","","null","","","","","","","","","","","","","","",""
"","do_welcome","275","1519768","0.0-250.0-1.0","null","","","","null","","","","","","","","","","","","","","",""
"","do_trial","276","1527086","0.0-251.0-0.0","1766.6999999955297","","","","50","0,0,1","5","mountain","200","probe-104","0.1706262857784266","0.39366374380959307","1","0","","","","","",""
"","do_trial","277","1534856","0.0-252.0-0.0","2206.8000000044703","","","","50","0,0,1","5","mountain","201","probe-188","0.23266609868209767","0.2802195493636698","1","0","","","","","",""
"","do_trial","278","1541268","0.0-253.0-0.0","853.3999999985099","","","","50","0,1,1","5","mountain","202","probe-50","0.07746072137820537","0.16975667962381202","1","1","","","","","",""
"","do_trial","279","1547335","0.0-254.0-0.0","null","","","","null","1,0,1","5","mountain","203","probe-153","0.10629105843076218","0.28974001459712956","1","","","","","","",""
"","do_trial","280","1553373","0.0-255.0-0.0","474.19999999552965","","","","49","0,1,1","5","mountain","204","probe-179","0.05701109730453607","0.3207312567896091","0.9252067096139983","0","","","","","",""
"","do_trial","281","1559844","0.0-256.0-0.0","907.7000000029802","","","","49","0,1,0","5","mountain","205","probe-138","0.1615066858010964","0.2580445600772955","0.8500103912101085","0","","","","","",""
"","do_trial","282","1566312","0.0-257.0-0.0","903.1000000014901","","","","49","1,1,1","5","mountain","206","probe-115","0.29108460223498445","0.47231517691382835","0.9397193948656711","1","","","","","",""
"","do_trial","283","1572386","0.0-258.0-0.0","null","","","","null","0,0,0","5","mountain","207","probe-56","0.18312843080601532","0.47320772242872444","0.7711285404897302","","","","","","",""
"","do_trial","284","1580157","0.0-259.0-0.0","2212.3000000044703","","","","49","0,1,1","5","mountain","208","probe-167","0.0754911924302495","0.5724606407216679","0.8258604656333484","0","","","","","",""
"","do_trial","285","1587553","0.0-260.0-0.0","1833","","","","49","0,1,1","5","mountain","209","probe-10","0.06471009213039221","0.43649584650598827","0.7658877701218745","0","","","","","",""
"","do_trial","286","1593614","0.0-261.0-0.0","null","","","","null","0,0,0","5","mountain","210","probe-236","0.2750934919995988","0.229711642539468","0.45727595328365994","","","","","","",""
"","do_trial","287","1599660","0.0-262.0-0.0","488","","","","49","1,0,0","5","mountain","211","probe-214","0.5794322570283807","0.3977095188213673","0.10925708349696478","1","","","","","",""
"","do_trial","288","1606301","0.0-263.0-0.0","1088","","","","51","1,1,0","5","mountain","212","probe-17","0.6331128279745155","0.31644904342406177","0.14913727199230178","0","","","","","",""
"","do_trial","289","1612196","0.0-264.0-0.0","332.90000000596046","","","","50","1,0,0","5","mountain","213","probe-221","0.6976628747463114","0.2436193442713671","0.13933060110888754","0","","","","","",""
"","do_trial","290","1618194","0.0-265.0-0.0","437.09999999403954","","","","50","1,0,0","5","mountain","214","probe-06","0.6190081315366749","0.242352357282323","0.09778137525953046","0","","","","","",""
"","do_trial","291","1624371","0.0-266.0-0.0","617.5","","","","49","1,0,0","5","mountain","215","probe-124","0.6086833602457076","0.3630587530694854","0.05864827517030295","1","","","","","",""
"","do_trial","292","1631276","0.0-267.0-0.0","1347.7000000029802","","","","49","1,1,0","5","mountain","216","probe-144","0.6856618033236883","0.5102786735329731","0.060700100847833005","1","","","","","",""
"","do_trial","293","1637845","0.0-268.0-0.0","1011","","","","49","1,0,1","5","mountain","217","probe-99","0.6975072524186426","0.47903143397106673","0.20455111674317805","1","","","","","",""
"","do_trial","294","1643923","0.0-269.0-0.0","512.2999999970198","","","","49","1,1,0","5","mountain","218","probe-209","0.785994561816183","0.43823658980563374","0.1254842752727069","1","","","","","",""
"","do_trial","295","1650548","0.0-270.0-0.0","1068.7000000029802","","","","49","0,0,0","5","mountain","219","probe-237","0.7675867744316449","0.4583267160126661","0.08201273830165923","0","","","","","",""
"","do_trial","296","1657174","0.0-271.0-0.0","1068.5999999940395","","","","49","0,0,0","5","mountain","220","probe-230","0.7648056246319179","0.39566786997329423","0.22085581495320314","0","","","","","",""
"","do_trial","297","1663197","0.0-272.0-0.0","455.29999999701977","","","","49","1,1,0","5","mountain","221","probe-135","0.7417940699352873","0.36732152191515716","0.09068677546220653","1","","","","","",""
"","do_trial","298","1668781","0.0-273.0-0.0","19","","","","49","1,0,0","5","mountain","222","probe-129","0.7920113773223357","0.21021726188667467","0.15708787531019036","1","","","","","",""
"","do_trial","299","1674878","0.0-274.0-0.0","533.2000000029802","","","","49","1,0,0","5","mountain","223","probe-216","0.7152271714433844","0.4508887011577971","0.10879901055112312","1","","","","","",""
"","do_trial","300","1680944","0.0-275.0-0.0","null","","","","null","1,0,0","5","mountain","224","probe-41","0.8232648172202063","0.4095761220626809","0.2834894445286624","","","","","","",""
"","do_trial","301","1686627","0.0-276.0-0.0","121.20000000298023","","","","49","1,0,0","5","mountain","225","probe-175","0.8526952877870734","0.3594785145410168","0.17600512239049676","1","","","","","",""
"","do_trial","302","1692191","0.0-277.0-0.0","4.799999997019768","","","","49","1,0,0","5","mountain","226","probe-63","0.6612000841762151","0.3755602301490753","0.08962076577548331","1","","","","","",""
"","do_trial","303","1698146","0.0-278.0-0.0","391.1000000014901","","","","49","0,0,0","5","mountain","227","probe-112","0.7508520347620377","0.2925677148161063","0.16348845038580456","0","","","","","",""
"","do_trial","304","1704329","0.0-279.0-0.0","624.3999999985099","","","","49","1,1,0","5","mountain","228","probe-101","0.6819967880942288","0.2025692553732715","0.21498624408557024","1","","","","","",""
"","do_trial","305","1710333","0.0-280.0-0.0","441.3999999985099","","","","49","1,0,0","5","mountain","229","probe-68","0.7288896288765164","0.31113240925209384","0.160574090272155","1","","","","","",""
"","do_trial","306","1717375","0.0-281.0-0.0","1485.8999999985099","","","","49","1,0,0","5","mountain","230","probe-166","0.8041420161818377","0.44406622364673554","0.12746650586743521","1","","","","","",""
"","do_trial","307","1725308","0.0-282.0-0.0","2371","","","","49","1,1,0","5","mountain","231","probe-213","0.6906970070221777","0.4479234251115047","0.13268404106803786","1","","","","","",""
"","do_trial","308","1731281","0.0-283.0-0.0","416.29999999701977","","","","49","0,1,0","5","mountain","232","probe-238","0.6174032093975914","0.47233470662875926","0.09540567032638914","0","","","","","",""
"","do_trial","309","1737757","0.0-284.0-0.0","937.1000000014901","","","","49","0,0,0","5","mountain","233","probe-80","0.6043466268633166","0.47361506412277027","0.14853239765291348","0","","","","","",""
"","do_trial","310","1744545","0.0-285.0-0.0","1226.6000000014901","","","","49","1,0,0","5","mountain","234","probe-105","0.5591276343232523","0.4888809087443881","0.21482004827938184","1","","","","","",""
"","do_trial","311","1750762","0.0-286.0-0.0","649.8999999985099","","","","49","1,1,0","5","mountain","235","probe-178","0.6862701792005608","0.34927248453536214","0.20570257117182156","1","","","","","",""
"","do_trial","312","1756411","0.0-287.0-0.0","82.89999999850988","","","","49","1,0,0","5","mountain","236","probe-42","0.7652299858207259","0.39517369969044297","0.09553657935884836","1","","","","","",""
"","do_trial","313","1762420","0.0-288.0-0.0","444.90000000596046","","","","49","0,0,0","5","mountain","237","probe-187","0.8543250753379722","0.48268648783166157","0.13200147630738054","0","","","","","",""
"","do_trial","314","1768596","0.0-289.0-0.0","614.2999999970198","","","","49","1,0,0","5","mountain","238","probe-170","0.7898550615642147","0.3710085675874524","0.08283386787397229","1","","","","","",""
"","do_trial","315","1774810","0.0-290.0-0.0","650.4000000059605","","","","49","0,1,0","5","mountain","239","probe-194","0.7134395806382102","0.3820563876892554","0.20513350145536108","0","","","","","",""
"","do_bye","316","1776323","0.0-291.0-0.0","null","","","","null","","","","","","","","","","","","","","",""
"","html-keyboard-response","317","1782799","0.0-291.0-1.0","6473.10000000149","<div class='center'><p>You may take a break now!</p><p> Stretch for a little bit. Get a glass of water.</p><p> You have two minutes to rest. Then, the game will automatically move on.</p><p>If you’d like to get started on the second half of the experiment sooner, then press the <b>space bar</b></p></div>","32","","","","","","","","","","","","","","","","",""
"","html-keyboard-response","318","1793066","0.0-291.0-2.0","10265.70000000298","<div class='center'><p>You’ve arrived at the final destination of your journey! Unfortunately, it’s very foggy out, so you won’t be able to see it in the distance like in previous places you've visited.</p><p>You’ll still be deciding which pirates you want to rob ships. However, because of the fog you also won’t be able to see the ship in the distance. </p><p><b>[Press the space bar to continue]</b></p></div>","32","","","","","","","","","","","","","","","","",""
"","html-keyboard-response","319","1808809","0.0-291.0-3.0","15740.29999999702","<div class='center'><p> Sometimes you’ll be asked if you’ve seen a ship before (see the example below). You will use the 5, 6, 7, 8 buttons on your keyboard to respond. </p><p> If you definitely did not see the ship, pick the the big red thumbs down by pressing <b>5</b>.</p><p> If you don’t think you saw it but aren’t sure, then pick the small red thumbs down by pressing <b>6</b>.</p><p> If you think you might have seen it, then pick the small green thumbs up by pressing <b>7</b>.</p><p> If you definitely did see this ship before, then pick the big thumb green thumbs up by pressing <b>8</b>.</p><p> If you recall correctly, then you’ll get a gold coin!</p><p><b>[Press the space bar to begin the next phase of the experiment]</b></p><p><img src='run_exp/static/images/example_recog_trial.png' height='500'></p></div>","32","","","","","","","","","","","","","","","","",""
"","do_welcome","320","1810320","0.0-291.0-4.0","null","","","","null","","","","","","","","","","","","","","",""
"","do_trial","321","1816209","0.0-292.0-0.0","2327.9000000059605","","","","49","1,1,0","6","blank","240","null","1","0.5408089619640711","0.2841097273233556","1","","","","","",""
"","do_recog","322","1820920","0.0-293.0-0.0","3193.89999999851","","","","56","","","","241","probe-125","","","","","1","[object Object]","86","2","1",""
"","do_trial","323","1826642","0.0-294.0-0.0","2163.89999999851","","","","49","1,0,0","6","blank","242","null","0.8606280449109807","0.5726748271706239","0.3503404514181358","1","","","","","",""
"","do_trial","324","1831631","0.0-295.0-0.0","1428.8000000044703","","","","50","1,1,1","6","blank","243","null","0.934549111443072","0.5009991952000616","0.2571211929344997","1","","","","","",""
"","do_recog","325","1834262","0.0-296.0-0.0","1115.3000000044703","","","","56","","","","244","probe-118","","","","","1","[object Object]","40","1","1",""
"","do_trial","326","1839037","0.0-297.0-0.0","1218.3999999985099","","","","49","1,0,1","6","blank","245","null","0.7341451383697234","0.46065827017090977","0.30904964644397703","1","","","","","",""
"","do_trial","327","1842975","0.0-298.0-0.0","373.40000000596046","","","","50","0,0,0","6","blank","246","null","0.6094538708579365","0.5424271573305718","0.24296797710194337","0","","","","","",""
"","do_trial","328","1847504","0.0-299.0-0.0","970.3000000044703","","","","49","1,1,0","6","blank","247","null","0.6531391451192304","0.49257662328943225","0.21267625372193522","1","","","","","",""
"","do_trial","329","1851421","0.0-300.0-0.0","355.1000000014901","","","","51","1,0,1","6","blank","248","null","0.6397236784251883","0.46399484738488944","0.22248771979017531","1","","","","","",""
"","do_trial","330","1855664","0.0-301.0-0.0","680.5","","","","50","1,0,0","6","blank","249","null","0.8425145824872445","0.33901458226702036","0.15492594908424148","0","","","","","",""
"","do_recog","331","1859276","0.0-302.0-0.0","2096.39999999851","","","","55","","","","250","probe-12","","","","","1","[object Object]","160","4","1",""
"","do_trial","332","1863316","0.0-303.0-0.0","483","","","","50","1,1,0","6","blank","251","null","0.8404472896137078","0.37926942931834406","0.09317701217188225","1","","","","","",""
"","do_recog","333","1866193","0.0-304.0-0.0","1364.2000000029802","","","","56","","","","252","probe-05","","","","","1","[object Object]","128","3","1",""
"","do_trial","334","1870537","0.0-305.0-0.0","788.6000000014901","","","","49","0,1,0","6","blank","253","null","0.7255936334911047","0.24088300347080116","0.0944379277715253","0","","","","","",""
"","do_recog","335","1872957","0.0-306.0-0.0","908.1000000014901","","","","56","","","","254","probe-246","","","","","0","[object Object]","null","null","0",""
"","do_trial","336","1877934","0.0-307.0-0.0","1418.3000000044703","","","","50","1,0,0","6","blank","255","null","0.6425509827145149","0.3422714343213225","0.12236950274956114","0","","","","","",""
"","do_recog","337","1880591","0.0-308.0-0.0","1140.3999999985099","","","","56","","","","256","probe-164","","","","","1","[object Object]","124","3","1",""
"","do_trial","338","1884561","0.0-309.0-0.0","408.40000000596046","","","","49","1,0,1","6","blank","257","null","0.5410206070030449","0.5139247480499626","0.19972029061816862","1","","","","","",""
"","do_recog","339","1887505","0.0-310.0-0.0","1428.5","","","","56","","","","258","probe-71","","","","","1","[object Object]","82","2","1",""
"","do_trial","340","1891494","0.0-311.0-0.0","428","","","","49","0,1,0","6","blank","259","null","0.44527519826592027","0.7228025410411848","0.3220740135156709","0","","","","","",""
"","do_recog","341","1893780","0.0-312.0-0.0","770","","","","56","","","","260","probe-13","","","","","1","[object Object]","162","4","1",""
"","do_trial","342","1897769","0.0-313.0-0.0","429.80000000447035","","","","50","0,1,1","6","blank","261","null","0.47363567688314834","0.7954696228096976","0.24534071708884214","1","","","","","",""
"","do_recog","343","1900132","0.0-314.0-0.0","851.5","","","","56","","","","262","probe-157","","","","","1","[object Object]","127","3","1",""
"","do_trial","344","1904275","0.0-315.0-0.0","586.8999999985099","","","","49","1,1,0","6","blank","263","null","0.5253851842903309","0.6485581435491119","0.13741236828384779","1","","","","","",""
"","do_recog","345","1906087","0.0-316.0-0.0","295.69999999552965","","","","56","","","","264","probe-50","","","","","1","[object Object]","202","5","1",""
"","do_trial","346","1910028","0.0-317.0-0.0","377.69999999552965","","","","49","1,1,0","6","blank","265","null","0.43612809521333085","0.8708732096330434","0.07491106815020496","1","","","","","",""
"","do_trial","347","1914048","0.0-318.0-0.0","455.6000000014901","","","","49","0,1,0","6","blank","266","null","0.36495196659956086","0.8981115723527038","0.14254381411090297","0","","","","","",""
"","do_trial","348","1918025","0.0-319.0-0.0","417","","","","51","0,1,0","6","blank","267","null","0.3810805417144738","0.8612034965033979","0.17045645464587758","0","","","","","",""
"","do_recog","349","1920290","0.0-320.0-0.0","748.7999999970198","","","","56","","","","268","probe-257","","","","","0","[object Object]","null","null","0",""
"","do_trial","350","1924662","0.0-321.0-0.0","811.2000000029802","","","","50","0,1,0","6","blank","269","null","0.308335286064923","0.8673884925079964","0.13463090688590287","1","","","","","",""
"","do_trial","351","1929450","0.0-322.0-0.0","1237.3999999985099","","","","49","0,1,0","6","blank","270","null","0.2787056854051991","0.8784791801999184","0.05346548648114163","0","","","","","",""
"","do_recog","352","1932162","0.0-323.0-0.0","1200.7000000029802","","","","56","","","","271","probe-53","","","","","1","[object Object]","166","4","1",""
"","do_trial","353","1937049","0.0-324.0-0.0","1326.3999999985099","","","","50","0,1,0","6","blank","272","null","0.4197334254250399","0.7999385505486885","0.07421724929201373","1","","","","","",""
"","do_trial","354","1941345","0.0-325.0-0.0","742.7999999970198","","","","49","1,1,0","6","blank","273","null","0.40937813853851174","0.8688338206866777","0.1043342540360796","1","","","","","",""
"","do_trial","355","1945353","0.0-326.0-0.0","453.20000000298023","","","","50","1,1,0","6","blank","274","null","0.3464608680158579","0.9055658681928485","0.12074992117556502","1","","","","","",""
"","do_recog","356","1948790","0.0-327.0-0.0","1921","","","","56","","","","275","probe-103","","","","","1","[object Object]","43","1","1",""
"","do_trial","357","1952954","0.0-328.0-0.0","605.8999999985099","","","","50","1,1,0","6","blank","276","null","0.33609633165799574","0.8417480924071175","0.14270318078960537","1","","","","","",""
"","do_recog","358","1955341","0.0-329.0-0.0","873.3999999985099","","","","56","","","","277","probe-244","","","","","0","[object Object]","null","null","0",""
"","do_trial","359","1959404","0.0-330.0-0.0","499.1000000014901","","","","49","0,1,1","6","blank","278","null","0.35583893549545376","0.939879947345444","0.07407388296910447","0","","","","","",""
"","do_trial","360","1963412","0.0-331.0-0.0","444.3999999985099","","","","51","1,1,0","6","blank","279","null","0.45356599100168754","0.8164024718301649","0.07414415441973912","0","","","","","",""
"","do_trial","361","1967366","0.0-332.0-0.0","396.1000000014901","","","","50","0,1,0","6","blank","280","null","0.3693460764035628","0.8017350094072978","0.10736636362348372","1","","","","","",""
"","do_trial","362","1971621","0.0-333.0-0.0","697.1000000014901","","","","49","0,1,0","6","blank","281","null","0.3548347213623616","0.6944590889974666","0.07089206710196035","0","","","","","",""
"","do_trial","363","1975555","0.0-334.0-0.0","378.6000000014901","","","","50","0,1,0","6","blank","282","null","0.33396385129296613","0.7752050369192885","0.06021895151315046","1","","","","","",""
"","do_trial","364","1979865","0.0-335.0-0.0","751.8999999985099","","","","51","0,1,0","6","blank","283","null","0.4121103941639466","0.85270418080913","0.06143047806707671","0","","","","","",""
"","do_recog","365","1982536","0.0-336.0-0.0","1154.1999999955297","","","","56","","","","284","probe-235","","","","","1","[object Object]","80","2","1",""
"","do_trial","366","1986621","0.0-337.0-0.0","522","","","","49","0,1,0","6","blank","285","null","0.36343763989530076","1","0.12972267433692586","0","","","","","",""
"","do_recog","367","1989489","0.0-338.0-0.0","1352.8000000044703","","","","56","","","","286","probe-138","","","","","1","[object Object]","205","5","1",""
"","do_trial","368","1993424","0.0-339.0-0.0","372.70000000298023","","","","50","1,1,0","6","blank","287","null","0.39171394648318275","0.8763179881122501","0.050193526726594134","1","","","","","",""
"","do_trial","369","1997651","0.0-340.0-0.0","668.1000000014901","","","","49","0,1,0","6","blank","288","null","0.6093666336951988","0.8367204717839158","0.09125619419465916","0","","","","","",""
"","do_trial","370","2001583","0.0-341.0-0.0","367.90000000596046","","","","51","0,1,0","6","blank","289","null","0.5301638306703851","0.7005217605900437","0.1086244069180706","0","","","","","",""
"","do_trial","371","2005518","0.0-342.0-0.0","370.1000000014901","","","","49","0,1,0","6","blank","290","null","0.46047433372123797","0.6358013912617447","0.2767875235380258","0","","","","","",""
"","do_recog","372","2007749","0.0-343.0-0.0","716.0999999940395","","","","56","","","","291","probe-146","","","","","1","[object Object]","87","2","1",""
"","do_trial","373","2011771","0.0-344.0-0.0","458.3999999985099","","","","49","1,0,0","6","blank","292","null","0.6028750760722216","0.7751769278563573","0.25687260082671765","1","","","","","",""
"","do_recog","374","2014092","0.0-345.0-0.0","806.1000000014901","","","","56","","","","293","probe-204","","","","","1","[object Object]","47","1","1",""
"","do_trial","375","2018004","0.0-346.0-0.0","354.29999999701977","","","","49","1,1,0","6","blank","294","null","0.513740738210319","0.7776539401752975","0.22977214964573248","1","","","","","",""
"","do_recog","376","2020240","0.0-347.0-0.0","720.7000000029802","","","","56","","","","295","probe-218","","","","","1","[object Object]","169","4","1",""
"","do_trial","377","2024268","0.0-348.0-0.0","468.1000000014901","","","","49","1,0,0","6","blank","296","null","0.47921337963158633","0.7145257117924569","0.05157619727116181","1","","","","","",""
"","do_recog","378","2026390","0.0-349.0-0.0","608.1000000014901","","","","56","","","","297","probe-150","","","","","1","[object Object]","41","1","1",""
"","do_trial","379","2030517","0.0-350.0-0.0","563.8000000044703","","","","49","0,1,0","6","blank","298","null","0.6353177823562629","0.7477444197294969","0.09993803231148361","0","","","","","",""
"","do_trial","380","2035122","0.0-351.0-0.0","1043.8000000044703","","","","49","0,1,0","6","blank","299","null","0.5110196622427204","0.7405966870687533","0.07229970628070716","0","","","","","",""
"","do_trial","381","2039121","0.0-352.0-0.0","443.5","","","","50","1,1,0","6","blank","300","null","0.5102289665300048","0.6162195469033923","0.09523713001913317","1","","","","","",""
"","do_trial","382","2043272","0.0-353.0-0.0","585.6000000014901","","","","50","1,1,0","6","blank","301","null","0.48783108305714257","0.5913080329016408","0.24100783447296706","1","","","","","",""
"","do_recog","383","2045376","0.0-354.0-0.0","589.6000000014901","","","","56","","","","302","probe-01","","","","","1","[object Object]","161","4","1",""
"","do_trial","384","2049291","0.0-355.0-0.0","357.70000000298023","","","","50","0,1,1","6","blank","303","null","0.19317529749672208","0.50541413033353","0.40304879053838105","1","","","","","",""
"","do_recog","385","2051848","0.0-356.0-0.0","1041.7000000029802","","","","56","","","","304","probe-110","","","","","1","[object Object]","81","2","1",""
"","do_trial","386","2056059","0.0-357.0-0.0","651.1000000014901","","","","50","0,1,0","6","blank","305","null","0.05727255815428329","0.40791470501469895","0.6079848255956207","1","","","","","",""
"","do_recog","387","2058185","0.0-358.0-0.0","613.5","","","","56","","","","306","probe-117","","","","","1","[object Object]","42","1","1",""
"","do_trial","388","2063006","0.0-359.0-0.0","1259.7000000029802","","","","50","0,0,1","6","blank","307","null","0.17164818741008625","0.32613874170253904","0.6684584773288752","0","","","","","",""
"","do_trial","389","2067099","0.0-360.0-0.0","527.3999999985099","","","","51","0,0,1","6","blank","308","null","0.11464936619441528","0.2825231522897022","0.7879727356947044","1","","","","","",""
"","do_trial","390","2071152","0.0-361.0-0.0","495","","","","51","0,1,1","6","blank","309","null","0.144405227443911","0.3264701322755093","0.7388365452427097","1","","","","","",""
"","do_trial","391","2075351","0.0-362.0-0.0","637.5","","","","51","0,1,1","6","blank","310","null","0.18405113539040957","0.35253154731174996","0.7408479565353037","1","","","","","",""
"","do_trial","392","2079317","0.0-363.0-0.0","404.59999999403954","","","","51","0,0,1","6","blank","311","null","0.10097748176425121","0.4377577990355358","0.8138707125755219","1","","","","","",""
"","do_trial","393","2083333","0.0-364.0-0.0","457","","","","51","0,0,1","6","blank","312","null","0.07972529532400324","0.4212108509914348","0.8280611714438265","1","","","","","",""
"","do_recog","394","2085785","0.0-365.0-0.0","935.3999999985099","","","","56","","","","313","probe-30","","","","","1","[object Object]","84","2","1",""
"","do_trial","395","2089744","0.0-366.0-0.0","398.19999999552965","","","","51","0,1,1","6","blank","314","null","0.08823926115821935","0.5060703360655187","0.839268147364724","1","","","","","",""
"","do_trial","396","2093825","0.0-367.0-0.0","520.8999999985099","","","","51","0,0,1","6","blank","315","null","0.125487991500482","0.4526820401196691","0.8596521191991677","1","","","","","",""
"","do_recog","397","2095978","0.0-368.0-0.0","637.3999999985099","","","","56","","","","316","probe-104","","","","","1","[object Object]","200","5","1",""
"","do_trial","398","2099878","0.0-369.0-0.0","336.8999999985099","","","","51","0,1,1","6","blank","317","null","0.10080031678715014","0.3499883758017901","0.8620633838344377","1","","","","","",""
"","do_trial","399","2104580","0.0-370.0-0.0","1141.6000000014901","","","","51","0,0,1","6","blank","318","null","0.17563022697377098","0.33817235233910803","0.9132119477779784","1","","","","","",""
"","do_recog","400","2107554","0.0-371.0-0.0","1457.8000000044703","","","","56","","","","319","probe-87","","","","","1","[object Object]","44","1","1",""
"","do_trial","401","2111599","0.0-372.0-0.0","481.1000000014901","","","","51","1,1,0","6","blank","320","null","0.100603232339226","0.382037534418579","0.7651106853269458","0","","","","","",""
"","do_recog","402","2114950","0.0-373.0-0.0","1835.3999999985099","","","","56","","","","321","probe-70","","","","","1","[object Object]","88","2","1",""
"","do_trial","403","2119357","0.0-374.0-0.0","844.5999999940395","","","","51","0,0,1","6","blank","322","null","0.21836903920262576","0.36614682923013137","0.7311458250547576","1","","","","","",""
"","do_recog","404","2121812","0.0-375.0-0.0","939","","","","56","","","","323","probe-255","","","","","0","[object Object]","null","null","0",""
"","do_trial","405","2125991","0.0-376.0-0.0","620.6000000014901","","","","51","0,1,1","6","blank","324","null","0.054045939379987154","0.31475815072348434","0.8150065921209385","1","","","","","",""
"","do_recog","406","2128841","0.0-377.0-0.0","1334.1000000014901","","","","56","","","","325","probe-122","","","","","1","[object Object]","89","2","1",""
"","do_trial","407","2133256","0.0-378.0-0.0","851","","","","51","0,0,1","6","blank","326","null","0.07791852524318903","0.34930607417491155","0.8267064973554313","1","","","","","",""
"","do_trial","408","2139078","0.0-379.0-0.0","2259.39999999851","","","","51","0,0,1","6","blank","327","null","0.06955798369302225","0.21340920236762395","0.90075415104473","1","","","","","",""
"","do_trial","409","2143449","0.0-380.0-0.0","812","","","","51","1,0,1","6","blank","328","null","0.13568506214220172","0.19902448870017236","0.8501681259568116","1","","","","","",""
"","do_trial","410","2147469","0.0-381.0-0.0","465.70000000298023","","","","51","0,0,1","6","blank","329","null","0.07683958085644217","0.07984797514354601","1","1","","","","","",""
"","do_trial","411","2151488","0.0-382.0-0.0","461.29999999701977","","","","51","0,0,1","6","blank","330","null","0.07926657767019593","0.27734649963380553","0.7702541752496189","1","","","","","",""
"","do_trial","412","2155600","0.0-383.0-0.0","552","","","","51","0,0,1","6","blank","331","null","0.13835401833050967","0.397753152425081","0.7022491622090301","1","","","","","",""
"","do_recog","413","2158598","0.0-384.0-0.0","1484.2999999970198","","","","55","","","","332","probe-106","","","","","1","[object Object]","83","2","1",""
"","do_trial","414","2162656","0.0-385.0-0.0","498.1000000014901","","","","51","0,1,1","6","blank","333","null","0.13052605528405933","0.3131762570616655","0.8417032830588722","1","","","","","",""
"","do_recog","415","2164888","0.0-386.0-0.0","720.7000000029802","","","","56","","","","334","probe-208","","","","","1","[object Object]","125","3","1",""
"","do_trial","416","2169043","0.0-387.0-0.0","593.6000000014901","","","","51","0,0,1","6","blank","335","null","0.06784586807048969","0.3503786802855903","0.8820782038018574","1","","","","","",""
"","do_recog","417","2171443","0.0-388.0-0.0","883.1000000014901","","","","56","","","","336","probe-259","","","","","0","[object Object]","null","null","0",""
"","do_trial","418","2176243","0.0-389.0-0.0","1241.1999999955297","","","","51","0,1,1","6","blank","337","null","0.11005855824019577","0.3718436353771894","0.8506321034201649","1","","","","","",""
"","do_recog","419","2179228","0.0-390.0-0.0","1468.5","","","","55","","","","338","probe-231","","","","","1","[object Object]","46","1","1",""
"","do_trial","420","2183450","0.0-391.0-0.0","663","","","","51","0,1,1","6","blank","339","null","0.15239335750799402","0.4328548583490198","0.8765610405752243","1","","","","","",""
"","do_trial","421","2187484","0.0-392.0-0.0","473.29999999701977","","","","51","0,1,1","6","blank","340","null","0.0722635559288687","0.4018468569893508","0.9333485435928403","1","","","","","",""
"","do_trial","422","2191623","0.0-393.0-0.0","578.7000000029802","","","","51","0,0,1","6","blank","341","null","0.0727112775958573","0.29217171243742585","0.8678913221292613","1","","","","","",""
"","do_trial","423","2195661","0.0-394.0-0.0","478.80000000447035","","","","51","1,0,1","6","blank","342","null","0.17038137608280907","0.3379820311726875","0.729044559072598","1","","","","","",""
"","do_recog","424","2197787","0.0-395.0-0.0","610.2000000029802","","","","56","","","","343","probe-203","","","","","1","[object Object]","165","4","1",""
"","do_trial","425","2201831","0.0-396.0-0.0","488.80000000447035","","","","51","1,1,0","6","blank","344","null","0.5023705553494588","0.41432369913258604","0.4591433605723864","0","","","","","",""
"","do_recog","426","2204080","0.0-397.0-0.0","734.3000000044703","","","","56","","","","345","probe-111","","","","","1","[object Object]","120","3","1",""
"","do_trial","427","2210198","0.0-398.0-0.0","2552.7000000029802","","","","51","1,1,0","6","blank","346","null","0.37603799264262855","0.4727518489949843","0.3135006848005836","0","","","","","",""
"","do_recog","428","2212450","0.0-399.0-0.0","740.6999999955297","","","","56","","","","347","probe-08","","","","","1","[object Object]","167","4","1",""
"","do_trial","429","2216600","0.0-400.0-0.0","589.2999999970198","","","","51","0,1,0","6","blank","348","null","0.47643289558431684","0.5412338946940832","0.2156284078439087","0","","","","","",""
"","do_trial","430","2220899","0.0-401.0-0.0","735.7999999970198","","","","51","0,0,0","6","blank","349","null","0.414910945304493","0.642486426250796","0.22930304451896524","0","","","","","",""
"","do_trial","431","2224798","0.0-402.0-0.0","335.20000000298023","","","","51","0,1,1","6","blank","350","null","0.4182029736313943","0.8620613713887331","0.18318682834410807","1","","","","","",""
"","do_trial","432","2228978","0.0-403.0-0.0","619.5999999940395","","","","51","0,0,0","6","blank","351","null","0.32432338144100603","0.8039724957429953","0.10973906057173674","0","","","","","",""
"","do_recog","433","2231212","0.0-404.0-0.0","717.5","","","","56","","","","352","probe-258","","","","","0","[object Object]","null","null","0",""
"","do_trial","434","2235483","0.0-405.0-0.0","708.5","","","","50","0,1,0","6","blank","353","null","0.32336599696359036","0.8784387108861097","0.1426961800930078","1","","","","","",""
"","do_recog","435","2237814","0.0-406.0-0.0","817.2999999970198","","","","56","","","","354","probe-98","","","","","1","[object Object]","168","4","1",""
"","do_trial","436","2241500","0.0-407.0-0.0","123.5","","","","50","1,1,0","6","blank","355","null","0.34745870235246196","0.9269846932837065","0.10512684287225041","1","","","","","",""
"","do_recog","437","2243692","0.0-408.0-0.0","680.7000000029802","","","","56","","","","356","probe-200","","","","","1","[object Object]","122","3","1",""
"","do_trial","438","2247941","0.0-409.0-0.0","688","","","","50","0,1,0","6","blank","357","null","0.5645357504323912","0.9483777470962744","0.1388333546655275","1","","","","","",""
"","do_recog","439","2250086","0.0-410.0-0.0","630.5","","","","56","","","","358","probe-148","","","","","1","[object Object]","48","1","1",""
"","do_trial","440","2254261","0.0-411.0-0.0","613.3000000044703","","","","50","0,1,0","6","blank","359","null","0.38161119531968096","0.8050592079877384","0.057618688393015274","1","","","","","",""
"","do_recog","441","2256404","0.0-412.0-0.0","628.8999999985099","","","","56","","","","360","probe-179","","","","","1","[object Object]","204","5","1",""
"","do_trial","442","2260278","0.0-413.0-0.0","317.29999999701977","","","","50","1,1,0","6","blank","361","null","0.530739242468901","0.9475126022247308","0.07437788128034666","1","","","","","",""
"","do_trial","443","2264329","0.0-414.0-0.0","490.69999999552965","","","","50","1,1,0","6","blank","362","null","0.5645323482651856","0.7976275999410057","0.1342352437824564","1","","","","","",""
"","do_trial","444","2267920","0.0-415.0-0.0","30.30000000447035","","","","50","1,1,0","6","blank","363","null","0.41790082980565824","0.8114618661097411","0.1474531687886017","1","","","","","",""
"","do_trial","445","2271809","0.0-416.0-0.0","325.29999999701977","","","","50","1,0,1","6","blank","364","null","0.2677615619564919","0.7574763508941526","0.14333846072741133","0","","","","","",""
"","do_trial","446","2275710","0.0-417.0-0.0","345.20000000298023","","","","49","0,1,0","6","blank","365","null","0.45545480262499455","0.6328878513278884","0.13924386254646717","0","","","","","",""
"","do_recog","447","2278159","0.0-418.0-0.0","936.2000000029802","","","","56","","","","366","probe-140","","","","","1","[object Object]","121","3","1",""
"","do_trial","448","2281959","0.0-419.0-0.0","239.30000000447035","","","","51","1,1,0","6","blank","367","null","0.34050344584263526","0.6323114470120115","0.13987044573138963","0","","","","","",""
"","do_trial","449","2285890","0.0-420.0-0.0","372.79999999701977","","","","51","0,1,0","6","blank","368","null","0.3257061156595114","0.5682100067089477","0.1440151632225582","0","","","","","",""
"","do_trial","450","2289768","0.0-421.0-0.0","317.09999999403954","","","","51","0,1,0","6","blank","369","null","0.3349396955699332","0.6387340346215669","0.2133198109851976","0","","","","","",""
"","do_recog","451","2291884","0.0-422.0-0.0","602.1000000014901","","","","56","","","","370","probe-168","","","","","1","[object Object]","49","1","1",""
"","do_trial","452","2295775","0.0-423.0-0.0","329.1000000014901","","","","50","0,0,0","6","blank","371","null","0.4014492173229103","0.645590700229575","0.29619806970596146","0","","","","","",""
"","do_trial","453","2299632","0.0-424.0-0.0","293.19999999552965","","","","49","0,0,1","6","blank","372","null","0.27950467655089467","0.7009842205938699","0.29855747942366057","0","","","","","",""
"","do_trial","454","2303732","0.0-425.0-0.0","538.2000000029802","","","","51","0,1,0","6","blank","373","null","0.21946903927586903","1","0.18258847324008","0","","","","","",""
"","do_trial","455","2307624","0.0-426.0-0.0","328.20000000298023","","","","51","0,1,0","6","blank","374","null","0.3602596169046409","0.865902620032176","0.1589214930146566","0","","","","","",""
"","do_trial","456","2311461","0.0-427.0-0.0","276.30000000447035","","","","51","0,0,1","6","blank","375","null","0.28707246695684524","0.8559457437652412","0.10105320106080712","1","","","","","",""
"","do_trial","457","2315483","0.0-428.0-0.0","461.1000000014901","","","","51","1,0,0","6","blank","376","null","0.4104388900585804","0.7711702194491784","0.10214418888819038","0","","","","","",""
"","do_recog","458","2317797","0.0-429.0-0.0","801.6000000014901","","","","56","","","","377","probe-195","","","","","1","[object Object]","45","1","1",""
"","do_trial","459","2321726","0.0-430.0-0.0","377","","","","51","1,1,0","6","blank","378","null","0.5651754039170384","0.9439598798304676","0.06027652377598962","0","","","","","",""
"","do_recog","460","2324134","0.0-431.0-0.0","891.8999999985099","","","","56","","","","379","probe-52","","","","","1","[object Object]","126","3","1",""
"","do_trial","461","2328110","0.0-432.0-0.0","410.70000000298023","","","","51","1,1,0","6","blank","380","null","0.39771167613761554","0.9390669763851562","0.10394487702637037","0","","","","","",""
"","do_trial","462","2332085","0.0-433.0-0.0","417.5","","","","51","0,1,0","6","blank","381","null","0.31311266167199103","0.9453668637329036","0.1145721243475906","0","","","","","",""
"","do_trial","463","2336006","0.0-434.0-0.0","359.5","","","","51","1,1,0","6","blank","382","null","0.47285559900228036","0.8681754152171821","0.14726583722308811","0","","","","","",""
"","do_trial","464","2339961","0.0-435.0-0.0","392.79999999701977","","","","51","1,1,0","6","blank","383","null","0.3422814198496195","0.8124116602234288","0.29080922990915387","0","","","","","",""
"","do_trial","465","2343851","0.0-436.0-0.0","334.20000000298023","","","","51","1,1,0","6","blank","384","null","0.44592216843404503","0.7813150391523899","0.29865872040935054","0","","","","","",""
"","do_trial","466","2347779","0.0-437.0-0.0","364.80000000447035","","","","50","0,1,0","6","blank","385","null","0.46135296198826903","0.5790538281413335","0.2502320744567218","1","","","","","",""
"","do_recog","467","2350047","0.0-438.0-0.0","754.3999999985099","","","","56","","","","386","probe-188","","","","","1","[object Object]","201","5","1",""
"","do_trial","468","2353992","0.0-439.0-0.0","393.29999999701977","","","","50","1,0,0","6","blank","387","null","0.5281393317718908","0.5817708875362364","0.07351658351057024","0","","","","","",""
"","do_recog","469","2356256","0.0-440.0-0.0","752.2000000029802","","","","56","","","","388","probe-45","","","","","1","[object Object]","129","3","1",""
"","do_trial","470","2360513","0.0-441.0-0.0","703.8999999985099","","","","50","1,0,1","6","blank","389","null","0.6031940369127434","0.5935425660866127","0.12865750769755854","0","","","","","",""
"","do_recog","471","2362741","0.0-442.0-0.0","715.5","","","","56","","","","390","probe-252","","","","","0","[object Object]","null","null","0",""
"","do_trial","472","2366612","0.0-443.0-0.0","309.70000000298023","","","","50","0,0,0","6","blank","391","null","0.6286837381412709","0.44168978372351786","0.13900101575209645","0","","","","","",""
"","do_recog","473","2369012","0.0-444.0-0.0","884.2999999970198","","","","56","","","","392","probe-77","","","","","1","[object Object]","163","4","1",""
"","do_trial","474","2372966","0.0-445.0-0.0","392","","","","49","1,1,0","6","blank","393","null","0.6751173637199845","0.35308313885580356","0.16457571700646106","1","","","","","",""
"","do_trial","475","2377043","0.0-446.0-0.0","514.7000000029802","","","","49","1,0,1","6","blank","394","null","0.8655561931768455","0.3586621026649493","0.17377521453686928","1","","","","","",""
