success,trial_type,trial_index,time_elapsed,internal_node_id
true,fullscreen,0,6241,0.0-0.0
,survey-html-form,1,11351,0.0-1.0
,html-keyboard-response,2,12430,0.0-2.0
,audio-keyboard-response,3,13056,0.0-3.0-0.0
,html-keyboard-response,4,13299,0.0-3.0-1.0
,audio-keyboard-response,5,13586,0.0-4.0-0.0
,instruc9,6,15591,0.0-5.0-0.0
,html-keyboard-response,7,15934,0.0-5.0-1.0
,instruc11,8,17941,0.0-5.0-2.0
,html-keyboard-response,9,18266,0.0-5.0-3.0
,instruc12,10,20269,0.0-5.0-4.0
,html-keyboard-response,11,20618,0.0-5.0-5.0
,instruc13,12,22627,0.0-5.0-6.0
,html-keyboard-response,13,22989,0.0-5.0-7.0
,do_welcome,14,26997,0.0-5.0-8.0
,do_trial,15,28428,0.0-5.0-9.0
,html-keyboard-response,16,29432,0.0-6.0-0.0
,do_trial,17,30660,0.0-6.0-1.0
,html-keyboard-response,18,31670,0.0-7.0-0.0
,do_trial,19,32691,0.0-7.0-1.0
,html-keyboard-response,20,33705,0.0-8.0-0.0
,do_trial,21,34671,0.0-8.0-1.0
,html-keyboard-response,22,35681,0.0-9.0-0.0
,do_trial,23,36789,0.0-9.0-1.0
,do_bye,24,38301,0.0-10.0-0.0
,do_travel,25,47314,0.0-10.0-1.0
,do_welcome,26,51332,0.0-10.0-2.0
,do_trial,27,52840,0.0-10.0-3.0
,html-keyboard-response,28,53845,0.0-11.0-0.0
,do_trial,29,54973,0.0-11.0-1.0
,html-keyboard-response,30,55978,0.0-12.0-0.0
,do_trial,31,56887,0.0-12.0-1.0
,html-keyboard-response,32,57907,0.0-13.0-0.0
,do_trial,33,59008,0.0-13.0-1.0
,html-keyboard-response,34,60021,0.0-14.0-0.0
,do_trial,35,61110,0.0-14.0-1.0
,html-keyboard-response,36,62110,0.0-15.0-0.0
,html-keyboard-response,37,62594,0.0-16.0-0.0
,quiz_beginning,38,64597,0.0-16.0-1.0
,html-keyboard-response,39,65698,0.0-16.0-2.0
,correct,40,67706,0.0-17.0-0.0
,html-keyboard-response,41,68262,0.0-17.0-1.0
,html-keyboard-response,42,68651,0.0-17.0-2.0
,correct,43,70656,0.0-18.0-0.0
,html-keyboard-response,44,70924,0.0-18.0-1.0
,html-keyboard-response,45,71163,0.0-18.0-2.0
,correct,46,73170,0.0-19.0-0.0
,html-keyboard-response,47,73874,0.0-19.0-1.0
,html-keyboard-response,48,74168,0.0-19.0-2.0
,correct,49,76177,0.0-20.0-0.0
,html-keyboard-response,50,76633,0.0-20.0-1.0
,q_all_corr,51,78639,0.0-21.0-0.0
,html-keyboard-response,52,78916,0.0-21.0-1.0
,do_welcome,53,82940,0.0-22.0-0.0
,do_trial,54,84539,0.0-23.0-0.0
,html-keyboard-response,55,85544,0.0-23.0-1.0
,do_trial,56,86717,0.0-24.0-0.0
,html-keyboard-response,57,87721,0.0-24.0-1.0
,do_trial,58,88796,0.0-25.0-0.0
,html-keyboard-response,59,89799,0.0-25.0-1.0
,attention_check,60,90094,0.0-26.0-0.0
,do_bye,61,91611,0.0-26.0-1.0
,break,62,92959,0.0-26.0-2.0
,do_travel,63,101962,0.0-27.0-0.0
,do_welcome,64,105973,0.0-27.0-1.0
,do_trial,65,109986,0.0-28.0-0.0
,html-keyboard-response,66,110996,0.0-28.0-1.0
,do_trial,67,112208,0.0-29.0-0.0
,html-keyboard-response,68,113215,0.0-29.0-1.0
,do_trial,69,114326,0.0-30.0-0.0
,html-keyboard-response,70,115334,0.0-30.0-1.0
,attention_check,71,115774,0.0-31.0-0.0
,do_bye,72,117281,0.0-31.0-1.0
,break,73,119455,0.0-31.0-2.0
,do_travel,74,128462,0.0-32.0-0.0
,do_welcome,75,132483,0.0-32.0-1.0
,do_trial,76,133705,0.0-33.0-0.0
,html-keyboard-response,77,134713,0.0-33.0-1.0
,do_trial,78,135867,0.0-34.0-0.0
,html-keyboard-response,79,136868,0.0-34.0-1.0
,do_trial,80,138075,0.0-35.0-0.0
,html-keyboard-response,81,139081,0.0-35.0-1.0
,attention_check,82,139396,0.0-36.0-0.0
,do_bye,83,140914,0.0-36.0-1.0
,break,84,153122,0.0-36.0-2.0
,do_travel,85,162138,0.0-37.0-0.0
,do_welcome,86,166150,0.0-37.0-1.0
,do_trial,87,170168,0.0-38.0-0.0
,html-keyboard-response,88,171179,0.0-38.0-1.0
,do_trial,89,172377,0.0-39.0-0.0
,html-keyboard-response,90,173383,0.0-39.0-1.0
,do_trial,91,175034,0.0-40.0-0.0
,html-keyboard-response,92,176037,0.0-40.0-1.0
,attention_check,93,177674,0.0-41.0-0.0
,do_bye,94,179185,0.0-41.0-1.0
,break,95,180380,0.0-41.0-2.0
,do_travel,96,189389,0.0-42.0-0.0
,do_welcome,97,193409,0.0-42.0-1.0
,do_trial,98,195021,0.0-43.0-0.0
,html-keyboard-response,99,196026,0.0-43.0-1.0
,do_trial,100,197161,0.0-44.0-0.0
,html-keyboard-response,101,198173,0.0-44.0-1.0
,do_trial,102,199638,0.0-45.0-0.0
,html-keyboard-response,103,200643,0.0-45.0-1.0
,attention_check,104,201829,0.0-46.0-0.0
,do_bye,105,203342,0.0-46.0-1.0
,break,106,206084,0.0-46.0-2.0
,do_travel,107,215089,0.0-47.0-0.0
,do_welcome,108,219098,0.0-47.0-1.0
,do_trial,109,220647,0.0-48.0-0.0
,html-keyboard-response,110,221665,0.0-48.0-1.0
,do_trial,111,222971,0.0-49.0-0.0
,html-keyboard-response,112,223981,0.0-49.0-1.0
,do_trial,113,225075,0.0-50.0-0.0
,html-keyboard-response,114,226079,0.0-50.0-1.0
,do_bye,115,227587,0.0-51.0-0.0
,html-keyboard-response,116,251589,0.0-51.0-1.0
,html-keyboard-response,117,264377,0.0-52.0-0.0
,judgement_attention_check,118,265703,0.0-53.0-0.0
,do_welcome,119,270712,0.0-53.0-1.0
,do_trial,120,274727,0.0-54.0-0.0
,html-keyboard-response,121,275741,0.0-54.0-1.0
,do_trial,122,279750,0.0-55.0-0.0
,html-keyboard-response,123,280755,0.0-55.0-1.0
,do_trial,124,282506,0.0-56.0-0.0
,html-keyboard-response,125,283525,0.0-56.0-1.0
,do_trial,126,285487,0.0-57.0-0.0
,html-keyboard-response,127,286495,0.0-57.0-1.0
,do_trial,128,288447,0.0-58.0-0.0
,html-keyboard-response,129,289454,0.0-58.0-1.0
,do_trial,130,291387,0.0-59.0-0.0
,html-keyboard-response,131,292395,0.0-59.0-1.0
,do_trial,132,294124,0.0-60.0-0.0
,html-keyboard-response,133,295129,0.0-60.0-1.0
,do_trial,134,296881,0.0-61.0-0.0
,html-keyboard-response,135,297890,0.0-61.0-1.0
,do_trial,136,299738,0.0-62.0-0.0
,html-keyboard-response,137,300745,0.0-62.0-1.0
,do_trial,138,302494,0.0-63.0-0.0
,html-keyboard-response,139,303502,0.0-63.0-1.0
,html-keyboard-response,140,303503,0.0-64.0-0.0
,judgement_attention_check,141,304496,0.0-65.0-0.0
,do_welcome,142,309508,0.0-65.0-1.0
,do_trial,143,313526,0.0-66.0-0.0
,html-keyboard-response,144,314529,0.0-66.0-1.0
,do_trial,145,316598,0.0-67.0-0.0
,html-keyboard-response,146,317603,0.0-67.0-1.0
,do_trial,147,319683,0.0-68.0-0.0
,html-keyboard-response,148,320696,0.0-68.0-1.0
,do_trial,149,322670,0.0-69.0-0.0
,html-keyboard-response,150,323678,0.0-69.0-1.0
,do_trial,151,325588,0.0-70.0-0.0
,html-keyboard-response,152,326596,0.0-70.0-1.0
,do_trial,153,328367,0.0-71.0-0.0
,html-keyboard-response,154,329378,0.0-71.0-1.0
,do_trial,155,331226,0.0-72.0-0.0
,html-keyboard-response,156,332235,0.0-72.0-1.0
,do_trial,157,334019,0.0-73.0-0.0
,html-keyboard-response,158,335021,0.0-73.0-1.0
,do_trial,159,339035,0.0-74.0-0.0
,html-keyboard-response,160,340042,0.0-74.0-1.0
,do_trial,161,341828,0.0-75.0-0.0
,html-keyboard-response,162,342837,0.0-75.0-1.0
,html-keyboard-response,163,342841,0.0-76.0-0.0
,judgement_attention_check,164,347848,0.0-77.0-0.0
,do_welcome,165,352870,0.0-77.0-1.0
,do_trial,166,355282,0.0-78.0-0.0
,html-keyboard-response,167,356292,0.0-78.0-1.0
,do_trial,168,358118,0.0-79.0-0.0
,html-keyboard-response,169,359127,0.0-79.0-1.0
,do_trial,170,361020,0.0-80.0-0.0
,html-keyboard-response,171,362029,0.0-80.0-1.0
,do_trial,172,363929,0.0-81.0-0.0
,html-keyboard-response,173,364941,0.0-81.0-1.0
,do_trial,174,366809,0.0-82.0-0.0
,html-keyboard-response,175,367819,0.0-82.0-1.0
,do_trial,176,369765,0.0-83.0-0.0
,html-keyboard-response,177,370768,0.0-83.0-1.0
,do_trial,178,372680,0.0-84.0-0.0
,html-keyboard-response,179,373688,0.0-84.0-1.0
,do_trial,180,375578,0.0-85.0-0.0
,html-keyboard-response,181,376590,0.0-85.0-1.0
,do_trial,182,378822,0.0-86.0-0.0
,html-keyboard-response,183,379829,0.0-86.0-1.0
,do_trial,184,381924,0.0-87.0-0.0
,html-keyboard-response,185,382931,0.0-87.0-1.0
,html-keyboard-response,186,382933,0.0-88.0-0.0
,judgement_attention_check,187,383688,0.0-89.0-0.0
,do_welcome,188,388698,0.0-89.0-1.0
,do_trial,189,390725,0.0-90.0-0.0
,html-keyboard-response,190,391727,0.0-90.0-1.0
,do_trial,191,393946,0.0-91.0-0.0
,html-keyboard-response,192,394949,0.0-91.0-1.0
,do_trial,193,396707,0.0-92.0-0.0
,html-keyboard-response,194,397724,0.0-92.0-1.0
,do_trial,195,399662,0.0-93.0-0.0
,html-keyboard-response,196,400665,0.0-93.0-1.0
,do_trial,197,402533,0.0-94.0-0.0
,html-keyboard-response,198,403536,0.0-94.0-1.0
,do_trial,199,407551,0.0-95.0-0.0
,html-keyboard-response,200,408564,0.0-95.0-1.0
,do_trial,201,410566,0.0-96.0-0.0
,html-keyboard-response,202,411569,0.0-96.0-1.0
,do_trial,203,413652,0.0-97.0-0.0
,html-keyboard-response,204,414662,0.0-97.0-1.0
,do_trial,205,416424,0.0-98.0-0.0
,html-keyboard-response,206,417426,0.0-98.0-1.0
,do_trial,207,419402,0.0-99.0-0.0
,html-keyboard-response,208,420405,0.0-99.0-1.0
,html-keyboard-response,209,420406,0.0-100.0-0.0
,judgement_attention_check,210,422500,0.0-101.0-0.0
,do_welcome,211,427507,0.0-101.0-1.0
,do_trial,212,431535,0.0-102.0-0.0
,html-keyboard-response,213,432543,0.0-102.0-1.0
,do_trial,214,434487,0.0-103.0-0.0
,html-keyboard-response,215,435492,0.0-103.0-1.0
,do_trial,216,437936,0.0-104.0-0.0
,html-keyboard-response,217,438943,0.0-104.0-1.0
,do_trial,218,440967,0.0-105.0-0.0
,html-keyboard-response,219,441978,0.0-105.0-1.0
,do_trial,220,443913,0.0-106.0-0.0
,html-keyboard-response,221,444929,0.0-106.0-1.0
,do_trial,222,448944,0.0-107.0-0.0
,html-keyboard-response,223,449949,0.0-107.0-1.0
,do_trial,224,451831,0.0-108.0-0.0
,html-keyboard-response,225,452843,0.0-108.0-1.0
,do_trial,226,454802,0.0-109.0-0.0
,html-keyboard-response,227,455811,0.0-109.0-1.0
,do_trial,228,458070,0.0-110.0-0.0
,html-keyboard-response,229,459077,0.0-110.0-1.0
,do_trial,230,461008,0.0-111.0-0.0
,html-keyboard-response,231,462023,0.0-111.0-1.0
,html-keyboard-response,232,462025,0.0-112.0-0.0
,judgement_attention_check,233,463224,0.0-113.0-0.0
,do_welcome,234,468235,0.0-113.0-1.0
,do_trial,235,470232,0.0-114.0-0.0
,html-keyboard-response,236,471238,0.0-114.0-1.0
,do_trial,237,473003,0.0-115.0-0.0
,html-keyboard-response,238,474008,0.0-115.0-1.0
,do_trial,239,475769,0.0-116.0-0.0
,html-keyboard-response,240,476778,0.0-116.0-1.0
,do_trial,241,478580,0.0-117.0-0.0
,html-keyboard-response,242,479584,0.0-117.0-1.0
,do_trial,243,481403,0.0-118.0-0.0
,html-keyboard-response,244,482410,0.0-118.0-1.0
,do_trial,245,484329,0.0-119.0-0.0
,html-keyboard-response,246,485334,0.0-119.0-1.0
,do_trial,247,487230,0.0-120.0-0.0
,html-keyboard-response,248,488239,0.0-120.0-1.0
,do_trial,249,490092,0.0-121.0-0.0
,html-keyboard-response,250,491103,0.0-121.0-1.0
,do_trial,251,493098,0.0-122.0-0.0
,html-keyboard-response,252,494104,0.0-122.0-1.0
,do_trial,253,496175,0.0-123.0-0.0
,html-keyboard-response,254,497186,0.0-123.0-1.0
,html-keyboard-response,255,501304,0.0-124.0-0.0
,do_pick_best_pirate,256,506711,0.0-125.0-0.0
,do_pick_secondBest_pirate,257,508077,0.0-125.0-1.0
,do_pick_best_pirate,258,509681,0.0-126.0-0.0
,do_pick_secondBest_pirate,259,510942,0.0-126.0-1.0
,do_pick_best_pirate,260,512527,0.0-127.0-0.0
,do_pick_secondBest_pirate,261,513785,0.0-127.0-1.0
,do_pick_best_pirate,262,515085,0.0-128.0-0.0
,do_pick_secondBest_pirate,263,516347,0.0-128.0-1.0
,do_pick_best_pirate,264,517725,0.0-129.0-0.0
,do_pick_secondBest_pirate,265,518979,0.0-129.0-1.0
,do_pick_best_pirate,266,520254,0.0-130.0-0.0
,do_pick_secondBest_pirate,267,521658,0.0-130.0-1.0
,html-keyboard-response,268,575151,0.0-131.0-0.0