success,trial_type,trial_index,time_elapsed,internal_node_id,rt,responses,subject_id,stimulus,key_press,prompt,response,choice_outcomes,context_n,context_img_id,trial_n,pR_red,pR_white,pR_black,outcome,phase,island_num,passed,context_im
true,fullscreen,0,2802,0.0-0.0,,,,,,,,,,,,,,,,,,,
,survey-html-form,1,8070,0.0-1.0,5267.199999928474,{worker_id:6978da073a10376bac01161a},6978da073a10376bac01161a,,,,,,,,,,,,,,,,
,instruc1,2,10071,0.0-2.0,null,,6978da073a10376bac01161a,<div class='center'><p>Welcome! This study will last ~30 minutes. After the instructions there will be a practice game and quiz to make sure you understand the task. Today you will be the head captain of a pirate ship traveling around the world to different islands. Here is an overview of what you will be doing:</p><br><p> 1. Try to find the most successful pirate on 6 different islands</p><p> 2. Recall which pirates did the best on each island</p><br><p>,null,<div class='center'><p>Welcome! This study will last ~30 minutes. After the instructions there will be a practice game and quiz to make sure you understand the task. Today you will be the head captain of a pirate ship traveling around the world to different islands. Here is an overview of what you will be doing:</p><br><p> 1. Try to find the most successful pirate on 6 different islands</p><p> 2. Recall which pirates did the best on each island</p><br><p>,,,,,,,,,,,,,
,html-keyboard-response,3,20299,0.0-3.0,10227.600000023842,,,<div class='center'><p>Welcome! This study will last ~30 minutes. After the instructions there will be a practice game and quiz to make sure you understand the task. Today you will be the head captain of a pirate ship traveling around the world to different islands. Here is an overview of what you will be doing:</p><br><p> 1. Try to find the most successful pirate on 6 different islands</p><p> 2. Recall which pirates did the best on each island</p><br><p><p><b>[Press the space bar to continue]</b></p></div>,32,,,,,,,,,,,,,,
,instruc2,4,22300,0.0-4.0,null,,,<div class='center'><p>You are going to visit these 6 islands on your journey. You'll be able to see these islands from your ship.</p><p><img src='../static/images/contexts/all_contexts.png' height='500'></p></div>,null,<div class='center'><p>You are going to visit these 6 islands on your journey. You'll be able to see these islands from your ship.</p><p><img src='../static/images/contexts/all_contexts.png' height='500'></p></div>,,,,,,,,,,,,,
,html-keyboard-response,5,27081,0.0-5.0,4780.399999976158,,,<div class='center'><p>You are going to visit these 6 islands on your journey. You'll be able to see these islands from your ship.</p><p><img src='../static/images/contexts/all_contexts.png' height='500'></p><p><b>[Press the space bar to continue]</b></p></div>,32,,,,,,,,,,,,,,
,instruc4,6,29082,0.0-6.0,null,,,<div class='center'><p>As the head captain, you do not have to rob any ships yourself. Another pirate will be doing the robbing for you. First, you will choose a pirate to rob the next ship.</p><p><img src='../static/images/tutorial/pirates_all_crop.png' height='200'></p><p>Then, you'll see if the pirate successfully robbed the ship of their gold. If they were successful, then you'll get a stack of gold coins like this:</p><p><img src='../static/images/tutorial/reward.png' height='150'></p><p> If they were <b>not</b> successful, then you'll get no gold coins, and you'll see a big red x like this: </p><p><img src='../static/images/tutorial/reward_no.png' height='150'></p><p> How much bonus money you make is based on how many gold coins you collect.</p><div>,null,<div class='center'><p>As the head captain, you do not have to rob any ships yourself. Another pirate will be doing the robbing for you. First, you will choose a pirate to rob the next ship.</p><p><img src='../static/images/tutorial/pirates_all_crop.png' height='200'></p><p>Then, you'll see if the pirate successfully robbed the ship of their gold. If they were successful, then you'll get a stack of gold coins like this:</p><p><img src='../static/images/tutorial/reward.png' height='150'></p><p> If they were <b>not</b> successful, then you'll get no gold coins, and you'll see a big red x like this: </p><p><img src='../static/images/tutorial/reward_no.png' height='150'></p><p> How much bonus money you make is based on how many gold coins you collect.</p><div>,,,,,,,,,,,,,
,html-keyboard-response,7,48453,0.0-7.0,19370.900000095367,,,<div class='center'><p>As the head captain, you do not have to rob any ships yourself. Another pirate will be doing the robbing for you. First, you will choose a pirate to rob the next ship.</p><p><img src='../static/images/tutorial/pirates_all_crop.png' height='200'></p><p>Then, you'll see if the pirate successfully robbed the ship of their gold. If they were successful, then you'll get a stack of gold coins like this:</p><p><img src='../static/images/tutorial/reward.png' height='150'></p><p> If they were <b>not</b> successful, then you'll get no gold coins, and you'll see a big red x like this: </p><p><img src='../static/images/tutorial/reward_no.png' height='150'></p><p> How much bonus money you make is based on how many gold coins you collect.</p><div><p><b>[Press the space bar to continue]</b></p></div>,32,,,,,,,,,,,,,,
,instruc5,8,67097,0.0-8.0,18643.400000095367,,,<div class='center'><p>Even the most skilled pirate can not rob EVERY ship.</p><p> Some ships will have very strong protections against pirate attacks.</p><p> Blue beard, here, is very, very good at robbing ships, but he won't be successful every time he tries to rob one.</p><p> You can press the <b>'1'</b> key on the keyboard to choose him.</p><p> Try choosing him 10 times to see how often he succeeds at robbing a ship. </p><p><img src='../static/images/tutorial/blue.png' height='500'></p></div>,49,<div class='center'><p>Even the most skilled pirate can not rob EVERY ship.</p><p> Some ships will have very strong protections against pirate attacks.</p><p> Blue beard, here, is very, very good at robbing ships, but he won't be successful every time he tries to rob one.</p><p> You can press the <b>'1'</b> key on the keyboard to choose him.</p><p> Try choosing him 10 times to see how often he succeeds at robbing a ship. </p><p><img src='../static/images/tutorial/blue.png' height='500'></p></div>,,,,,,,,,,,,,
,html-keyboard-response,9,68599,0.0-9.0,null,,,<div class='center'><p><img src='../static/images/tutorial/blue_win.png' height='500'></p></div>,null,,,,,,,,,,,,,,
,html-keyboard-response,10,70500,0.0-10.0,1900.7000000476837,,,<div class='center'><img src='../static/images/tutorial/blue.png' height='500'></p></div>,49,,,,,,,,,,,,,,
,html-keyboard-response,11,72000,0.0-11.0,null,,,<div class='center'><p><img src='../static/images/tutorial/blue_win.png' height='500'></p></div>,null,,,,,,,,,,,,,,
,html-keyboard-response,12,72978,0.0-12.0,977.2000000476837,,,<div class='center'><img src='../static/images/tutorial/blue.png' height='500'></p></div>,49,,,,,,,,,,,,,,
,html-keyboard-response,13,74478,0.0-13.0,null,,,<div class='center'><p><img src='../static/images/tutorial/blue_win.png' height='500'></p></div>,null,,,,,,,,,,,,,,
,html-keyboard-response,14,75735,0.0-14.0,1255.8999999761581,,,<div class='center'><img src='../static/images/tutorial/blue.png' height='500'></p></div>,49,,,,,,,,,,,,,,
,html-keyboard-response,15,77235,0.0-15.0,null,,,<div class='center'><p><img src='../static/images/tutorial/blue_no_win.png' height='500'></p></div>,null,,,,,,,,,,,,,,
,html-keyboard-response,16,79149,0.0-16.0,1913.1000000238419,,,<div class='center'><img src='../static/images/tutorial/blue.png' height='500'></p></div>,49,,,,,,,,,,,,,,
,html-keyboard-response,17,80650,0.0-17.0,null,,,<div class='center'><p><img src='../static/images/tutorial/blue_win.png' height='500'></p></div>,null,,,,,,,,,,,,,,
,html-keyboard-response,18,81555,0.0-18.0,904.1999999284744,,,<div class='center'><img src='../static/images/tutorial/blue.png' height='500'></p></div>,49,,,,,,,,,,,,,,
,html-keyboard-response,19,83056,0.0-19.0,null,,,<div class='center'><p><img src='../static/images/tutorial/blue_win.png' height='500'></p></div>,null,,,,,,,,,,,,,,
,html-keyboard-response,20,83761,0.0-20.0,704.5,,,<div class='center'><img src='../static/images/tutorial/blue.png' height='500'></p></div>,49,,,,,,,,,,,,,,
,html-keyboard-response,21,85261,0.0-21.0,null,,,<div class='center'><p><img src='../static/images/tutorial/blue_win.png' height='500'></p></div>,null,,,,,,,,,,,,,,
,html-keyboard-response,22,85945,0.0-22.0,683.3000000715256,,,<div class='center'><img src='../static/images/tutorial/blue.png' height='500'></p></div>,49,,,,,,,,,,,,,,
,html-keyboard-response,23,87445,0.0-23.0,null,,,<div class='center'><p><img src='../static/images/tutorial/blue_no_win.png' height='500'></p></div>,null,,,,,,,,,,,,,,
,html-keyboard-response,24,88336,0.0-24.0,890,,,<div class='center'><img src='../static/images/tutorial/blue.png' height='500'></p></div>,49,,,,,,,,,,,,,,
,html-keyboard-response,25,89837,0.0-25.0,null,,,<div class='center'><p><img src='../static/images/tutorial/blue_win.png' height='500'></p></div>,null,,,,,,,,,,,,,,
,html-keyboard-response,26,90350,0.0-26.0,512.8000000715256,,,<div class='center'><img src='../static/images/tutorial/blue.png' height='500'></p></div>,49,,,,,,,,,,,,,,
,html-keyboard-response,27,91851,0.0-27.0,null,,,<div class='center'><p><img src='../static/images/tutorial/blue_win.png' height='500'></p></div>,null,,,,,,,,,,,,,,
,instruc6,28,93854,0.0-28.0,null,,,<div class='center'><p> See, he succeeded in robbing the ships most of the time but not every time. </p></div>,null,<div class='center'><p> See, he succeeded in robbing the ships most of the time but not every time. </p></div>,,,,,,,,,,,,,
,html-keyboard-response,29,95220,0.0-29.0,1365.7000000476837,,,<div class='center'><p> See, he succeeded in robbing the ships most of the time but not every time. </p><p><b>[Press the space bar to continue]</b></p></div>,32,,,,,,,,,,,,,,
,html-keyboard-response,30,105964,0.0-30.0,10743.700000047684,,,<div class='center'><p>From these three pirates, you will get to choose which one you want to rob the next ship. <p>Press the <b>'1'</b> key on your keyboard to pick the pirate with the red beard.</p><p> Press <b>'2'</b> to pick the pirate with the white beard.</p><p> Press <b>'3'</b> to pick the pirate with the black beard.</p><p>Try picking a pirate now!</p><p><img src='../static/images/tutorial/all_pirates.png' height='500'></p></div>,51,,,,,,,,,,,,,,
,html-keyboard-response,31,108591,0.0-31.0-0.0,2626.2000000476837,,,<div class='center'><p>Yay! This pirate succeeded in robbing the ship!</p><p><img src='../static/images/tutorial/black_win.png' height='500'></p><p><b>[Press the space bar to continue]</b></p></div>,32,,,,,,,,,,,,,,
,html-keyboard-response,32,111216,0.0-31.0-1.0,2625.100000023842,,,<div class='center'><p>Now try choosing another.</p><p><img src='../static/images/tutorial/all_pirates.png' height='500'></p></div>,49,,,,,,,,,,,,,,
,html-keyboard-response,33,113177,0.0-32.0-0.0,1959.7000000476837,,,<div class='center'><p>Oh no! This pirate did not succeed in robbing the ship.</p><p><img src='../static/images/tutorial/red_no_win.png' height='500'></p><p><b>[Press the space bar to continue]</b></p></div>,32,,,,,,,,,,,,,,
,instruc9,34,115177,0.0-33.0-0.0,null,,,<div class='center'><p>If you don't make your choice fast enough, you'll have to wait a few seconds before you can make another one. </p><p><img src='../static/images/miscellaneous/hurry_up.png' height='500'></p></div>,null,<div class='center'><p>If you don't make your choice fast enough, you'll have to wait a few seconds before you can make another one. </p><p><img src='../static/images/miscellaneous/hurry_up.png' height='500'></p></div>,,,,,,,,,,,,,
,html-keyboard-response,35,118734,0.0-33.0-1.0,3556.100000023842,,,<div class='center'><p>If you don't make your choice fast enough, you'll have to wait a few seconds before you can make another one. </p><p><img src='../static/images/miscellaneous/hurry_up.png' height='500'></p><p><b>[Press the space bar to continue]</b></p></div>,32,,,,,,,,,,,,,,
,instruc11,36,120736,0.0-33.0-2.0,null,,,<div class='center'><p>How successful a pirate is at robbing ships will depend on the island you're on.</p><p> A pirate may have visited this island many times before and gained a lot of practice robbing ships there.</p><p>So, they're more likely to be successful than a pirate who has never visited the island before.</p></div>,null,<div class='center'><p>How successful a pirate is at robbing ships will depend on the island you're on.</p><p> A pirate may have visited this island many times before and gained a lot of practice robbing ships there.</p><p>So, they're more likely to be successful than a pirate who has never visited the island before.</p></div>,,,,,,,,,,,,,
,html-keyboard-response,37,131299,0.0-33.0-3.0,10562.400000095367,,,<div class='center'><p>How successful a pirate is at robbing ships will depend on the island you're on.</p><p> A pirate may have visited this island many times before and gained a lot of practice robbing ships there.</p><p>So, they're more likely to be successful than a pirate who has never visited the island before.</p><p><b>[Press the space bar to continue]</b></p></div>,32,,,,,,,,,,,,,,
,instruc12,38,133300,0.0-33.0-4.0,null,,,<div class='center'><p>How successful a pirate is at robbing ships can also change over the time spent on the island. </p><p> Ships may hear from islanders about the pirates coming and will improve their protections against the attack. This may make it harder to rob them.</p><p> Ships may also become lazy and weaken the strength of their protections. This may make it easier to rob them.</p><br><p>Things are always changing on the high seas! So, try your best to pay attention!</p><p><img src='../static/images/tutorial/contingency.png' height='500'></p></div>,null,<div class='center'><p>How successful a pirate is at robbing ships can also change over the time spent on the island. </p><p> Ships may hear from islanders about the pirates coming and will improve their protections against the attack. This may make it harder to rob them.</p><p> Ships may also become lazy and weaken the strength of their protections. This may make it easier to rob them.</p><br><p>Things are always changing on the high seas! So, try your best to pay attention!</p><p><img src='../static/images/tutorial/contingency.png' height='500'></p></div>,,,,,,,,,,,,,
,html-keyboard-response,39,148980,0.0-33.0-5.0,15679.100000023842,,,<div class='center'><p>How successful a pirate is at robbing ships can also change over the time spent on the island. </p><p> Ships may hear from islanders about the pirates coming and will improve their protections against the attack. This may make it harder to rob them.</p><p> Ships may also become lazy and weaken the strength of their protections. This may make it easier to rob them.</p><br><p>Things are always changing on the high seas! So, try your best to pay attention!</p><p><img src='../static/images/tutorial/contingency.png' height='500'></p><p><b>[Press the space bar to continue]</b></p></div>,32,,,,,,,,,,,,,,
,instruc13,40,150981,0.0-33.0-6.0,null,,,<div class='center'><p>Let's go over the instructions quickly again. You have one thing to do: </p><p><b>Pick the pirate who is the best at robbing ships on the current island.</b></p><p>The amount of bonus money you win depends on it.</p><br><p>Let's try a practice game. The game will start by showing you an island. Pick a pirate using the <b>1, 2, 3</b> keys on your keyboard to get it to try and rob one of the ships leaving the island.</p><p>This is just a practice game, so you're not playing for money.</p><p>Good luck! This game will be very difficult but try your best!</p></div>,null,<div class='center'><p>Let's go over the instructions quickly again. You have one thing to do: </p><p><b>Pick the pirate who is the best at robbing ships on the current island.</b></p><p>The amount of bonus money you win depends on it.</p><br><p>Let's try a practice game. The game will start by showing you an island. Pick a pirate using the <b>1, 2, 3</b> keys on your keyboard to get it to try and rob one of the ships leaving the island.</p><p>This is just a practice game, so you're not playing for money.</p><p>Good luck! This game will be very difficult but try your best!</p></div>,,,,,,,,,,,,,
,html-keyboard-response,41,177052,0.0-33.0-7.0,26070.300000071526,,,<div class='center'><p>Let's go over the instructions quickly again. You have one thing to do: </p><p><b>Pick the pirate who is the best at robbing ships on the current island.</b></p><p>The amount of bonus money you win depends on it.</p><br><p>Let's try a practice game. The game will start by showing you an island. Pick a pirate using the <b>1, 2, 3</b> keys on your keyboard to get it to try and rob one of the ships leaving the island.</p><p>This is just a practice game, so you're not playing for money.</p><p>Good luck! This game will be very difficult but try your best!</p><p><b>[Press the space bar to continue]</b></p></div>,32,,,,,,,,,,,,,,
,do_welcome,42,181054,0.0-33.0-8.0,null,,,,,,null,,,,,,,,,,,,
,do_trial,43,184554,0.0-33.0-9.0,997.3000000715256,,,,,,49,1,0,0,,,,,,,,,,,
,html-keyboard-response,44,185555,0.0-34.0-0.0,null,,,<p></p>,null,,,,,,,,,,,,,,
,do_trial,45,189074,0.0-34.0-1.0,1016,,,,,,51,1,1,0,,,,,,,,,,,
,html-keyboard-response,46,190075,0.0-35.0-0.0,null,,,<p></p>,null,,,,,,,,,,,,,,
,do_trial,47,193485,0.0-35.0-1.0,908.8999999761581,,,,,,49,1,0,1,,,,,,,,,,,
,html-keyboard-response,48,194487,0.0-36.0-0.0,null,,,<p></p>,null,,,,,,,,,,,,,,
,do_trial,49,197436,0.0-36.0-1.0,435,,,,,,49,0,1,0,,,,,,,,,,,
,html-keyboard-response,50,198437,0.0-37.0-0.0,null,,,<p></p>,null,,,,,,,,,,,,,,
,do_trial,51,201397,0.0-37.0-1.0,457.89999997615814,,,,,,49,1,0,0,,,,,,,,,,,
,do_bye,52,202910,0.0-38.0-0.0,null,,,,,,null,,,,,,,,,,,,
,do_travel,53,211912,0.0-38.0-1.0,null,,,,,,null,,,,,,,,,,,,
,do_welcome,54,215915,0.0-38.0-2.0,null,,,,,,null,,,,,,,,,,,,
,do_trial,55,219637,0.0-38.0-3.0,1220.1000000238419,,,,,,50,1,0,0,,,,,,,,,,,
,html-keyboard-response,56,220638,0.0-39.0-0.0,null,,,<p></p>,null,,,,,,,,,,,,,,
,do_trial,57,223702,0.0-39.0-1.0,561.2000000476837,,,,,,51,1,0,1,,,,,,,,,,,
,html-keyboard-response,58,224718,0.0-40.0-0.0,null,,,<p></p>,null,,,,,,,,,,,,,,
,do_trial,59,227803,0.0-40.0-1.0,584.2000000476837,,,,,,51,1,1,0,,,,,,,,,,,
,html-keyboard-response,60,228804,0.0-41.0-0.0,null,,,<p></p>,null,,,,,,,,,,,,,,
,do_trial,61,232007,0.0-41.0-1.0,700.9000000953674,,,,,,51,0,0,1,,,,,,,,,,,
,html-keyboard-response,62,233008,0.0-42.0-0.0,null,,,<p></p>,null,,,,,,,,,,,,,,
,do_trial,63,236152,0.0-42.0-1.0,641.3999999761581,,,,,,51,1,0,1,,,,,,,,,,,
,html-keyboard-response,64,240044,0.0-43.0-0.0,3891,,,<div class='center'><p><img src='../static/images/tutorial/prac_best_pirate.png' height='500'></p></div>,51,,,,,,,,,,,,,,
,html-keyboard-response,65,243554,0.0-44.0-0.0,3509.1999999284744,,,<div class='center'><p>That's incorrect! Red beard was the best.</p><p><b>[Press the space bar to continue]</b></p></div>,32,,,,,,,,,,,,,,
,quiz_beginning,66,245554,0.0-44.0-1.0,null,,,<div class='center'><p>Good job on the practice game! Now, you will be asked some true or false questions to make sure you really understand the rules of the game.</p><p> Press <b>'1'</b> on the keyboard for true and press <b>'2'</b> for false.</p></div>,null,<div class='center'><p>Good job on the practice game! Now, you will be asked some true or false questions to make sure you really understand the rules of the game.</p><p> Press <b>'1'</b> on the keyboard for true and press <b>'2'</b> for false.</p></div>,,,,,,,,,,,,,
,html-keyboard-response,67,250251,0.0-44.0-2.0,4696.300000071526,,,<div class='center'><p>You win bonus money by collecting gold coins.</p><p>Press 1 for true and press  2 for false.</p></div>,49,,,,,,,,,,,,,,
,correct,68,252252,0.0-45.0-0.0,null,,,<div class='center'><p>That's correct!</p></div>,null,<div class='center'><p>That's correct!</p></div>,,,,,,,,,,,,,
,html-keyboard-response,69,253272,0.0-45.0-1.0,1019.1999999284744,,,<div class='center'><p>That's correct!</p><p><b>[Press the space bar to continue]</b></p></div>,32,,,,,,,,,,,,,,
,html-keyboard-response,70,259558,0.0-45.0-2.0,6285.700000047684,,,<div class='center'><p>The pirate who is the best at robbing ships when you first arrive on the island will definitely still be the best when you leave the island. </p><p>Press 1 for true and press  2 for false.</p></div>,50,,,,,,,,,,,,,,
,correct,71,261559,0.0-46.0-0.0,null,,,<div class='center'><p>That's correct!</p></div>,null,<div class='center'><p>That's correct!</p></div>,,,,,,,,,,,,,
,html-keyboard-response,72,262482,0.0-46.0-1.0,922.5,,,<div class='center'><p>That's correct!</p><p><b>[Press the space bar to continue]</b></p></div>,32,,,,,,,,,,,,,,
,html-keyboard-response,73,267919,0.0-46.0-2.0,5436.600000023842,,,<div class='center'><p>The pirate who is the best at robbing ships on the first island will be the best on every other island.</p><p>Press 1 for true and press  2 for false.</p></div>,50,,,,,,,,,,,,,,
,correct,74,269920,0.0-47.0-0.0,null,,,<div class='center'><p>That's correct!</p></div>,null,<div class='center'><p>That's correct!</p></div>,,,,,,,,,,,,,
,html-keyboard-response,75,270721,0.0-47.0-1.0,800.6000000238419,,,<div class='center'><p>That's correct!</p><p><b>[Press the space bar to continue]</b></p></div>,32,,,,,,,,,,,,,,
,html-keyboard-response,76,279749,0.0-47.0-2.0,9027.800000071526,,,<div class='center'><p>You should remember the island where a pirate robbed a ship.</p><p>Press 1 for true and press  2 for false.</p></div>,50,,,,,,,,,,,,,,
,q4_err,77,281751,0.0-48.0-0.0,null,,,<div class='center'><p>That’s incorrect. You should remember the island where a pirate robbed a ship. To help you remember, you can make up a story associating the object on the ship with the island.</p></div>,null,<div class='center'><p>That’s incorrect. You should remember the island where a pirate robbed a ship. To help you remember, you can make up a story associating the object on the ship with the island.</p></div>,,,,,,,,,,,,,
,html-keyboard-response,78,287820,0.0-48.0-1.0,6068.800000071526,,,<div class='center'><p>That’s incorrect. You should remember the island where a pirate robbed a ship. To help you remember, you can make up a story associating the object on the ship with the island.</p><p><b>[Press the space bar to continue]</b></p></div>,32,,,,,,,,,,,,,,
,q_all_err,79,289821,0.0-49.0-0.0,null,,,<div class='center'><p>Oops, you missed some questions. Now that you’ve heard the correct answers. Try the quiz again! </p></div>,null,<div class='center'><p>Oops, you missed some questions. Now that you’ve heard the correct answers. Try the quiz again! </p></div>,,,,,,,,,,,,,
,html-keyboard-response,80,290968,0.0-49.0-1.0,1146.8999999761581,,,<div class='center'><p>Oops, you missed some questions. Now that you’ve heard the correct answers. Try the quiz again! </p><p><b>[Press the space bar to continue]</b></p></div>,32,,,,,,,,,,,,,,
,html-keyboard-response,81,294193,0.0-49.0-2.0,3224.7000000476837,,,<div class='center'><p>You win bonus money by collecting gold coins.</p><p>Press 1 for true and press  2 for false.</p></div>,49,,,,,,,,,,,,,,
,correct,82,296194,0.0-50.0-0.0,null,,,<div class='center'><p>That's correct!</p></div>,null,<div class='center'><p>That's correct!</p></div>,,,,,,,,,,,,,
,html-keyboard-response,83,296734,0.0-50.0-1.0,539.1000000238419,,,<div class='center'><p>That's correct!</p><p><b>[Press the space bar to continue]</b></p></div>,32,,,,,,,,,,,,,,
,html-keyboard-response,84,300624,0.0-50.0-2.0,3889.7000000476837,,,<div class='center'><p>The pirate who is the best at robbing ships when you first arrive on the island will definitely still be the best when you leave the island. </p><p>Press 1 for true and press  2 for false.</p></div>,50,,,,,,,,,,,,,,
,correct,85,302625,0.0-51.0-0.0,null,,,<div class='center'><p>That's correct!</p></div>,null,<div class='center'><p>That's correct!</p></div>,,,,,,,,,,,,,
,html-keyboard-response,86,303266,0.0-51.0-1.0,640.2000000476837,,,<div class='center'><p>That's correct!</p><p><b>[Press the space bar to continue]</b></p></div>,32,,,,,,,,,,,,,,
,html-keyboard-response,87,306624,0.0-51.0-2.0,3357.7000000476837,,,<div class='center'><p>The pirate who is the best at robbing ships on the first island will be the best on every other island.</p><p>Press 1 for true and press  2 for false.</p></div>,50,,,,,,,,,,,,,,
,correct,88,308624,0.0-52.0-0.0,null,,,<div class='center'><p>That's correct!</p></div>,null,<div class='center'><p>That's correct!</p></div>,,,,,,,,,,,,,
,html-keyboard-response,89,309524,0.0-52.0-1.0,899.2999999523163,,,<div class='center'><p>That's correct!</p><p><b>[Press the space bar to continue]</b></p></div>,32,,,,,,,,,,,,,,
,html-keyboard-response,90,311569,0.0-52.0-2.0,2044.8000000715256,,,<div class='center'><p>You should remember the island where a pirate robbed a ship.</p><p>Press 1 for true and press  2 for false.</p></div>,49,,,,,,,,,,,,,,
,correct,91,313575,0.0-53.0-0.0,null,,,<div class='center'><p>That's correct!</p></div>,null,<div class='center'><p>That's correct!</p></div>,,,,,,,,,,,,,
,html-keyboard-response,92,314522,0.0-53.0-1.0,946.5999999046326,,,<div class='center'><p>That's correct!</p><p><b>[Press the space bar to continue]</b></p></div>,32,,,,,,,,,,,,,,
,q_all_corr,93,316523,0.0-54.0-0.0,null,,,<div class='center'><p>Good job! You’re now ready to move on to the real game! Remember this game will be difficult but don't get discouraged and try your best!</p></div>,null,<div class='center'><p>Good job! You’re now ready to move on to the real game! Remember this game will be difficult but don't get discouraged and try your best!</p></div>,,,,,,,,,,,,,
,html-keyboard-response,94,325148,0.0-54.0-1.0,8624.600000023842,,,<div class='center'><p>Good job! You’re now ready to move on to the real game! Remember this game will be difficult but don't get discouraged and try your best!</p><p><b>[Press the space bar to continue]</b></p></div>,32,,,,,,,,,,,,,,
,do_welcome,95,329155,0.0-55.0-0.0,null,,,,,,null,,,,,,,,,,,,
,do_trial,96,333961,0.0-56.0-0.0,2304.899999976158,,,,,,49,1,1,0,0,forest,0,0.6,0.3,0.1,1,learn,,,
,html-keyboard-response,97,334962,0.0-56.0-1.0,null,,,<p></p>,null,,,,,,,,,,,,,,
,do_trial,98,338102,0.0-57.0-0.0,638.6000000238419,,,,,,49,0,1,0,0,forest,1,0.544822173188053,0.17429415542414176,0.10637851993436048,0,learn,,,
,html-keyboard-response,99,339102,0.0-57.0-1.0,null,,,<p></p>,null,,,,,,,,,,,,,,
,do_trial,100,342262,0.0-58.0-0.0,657.3999999761581,,,,,,49,0,0,0,0,forest,2,0.47863782059008075,0.24029996341927823,0.12269469820851077,0,learn,,,
,html-keyboard-response,101,343262,0.0-58.0-1.0,null,,,<p></p>,null,,,,,,,,,,,,,,
,do_trial,102,346228,0.0-59.0-0.0,463.7000000476837,,,,,,51,1,0,0,0,forest,3,0.534049088247166,0.3048746162952248,0.26869725052922877,0,learn,,,
,html-keyboard-response,103,347229,0.0-59.0-1.0,null,,,<p></p>,null,,,,,,,,,,,,,,
,do_trial,104,350230,0.0-60.0-0.0,500.5,,,,,,50,1,0,0,0,forest,4,0.6031068144970635,0.26843691528098906,0.151969424400653,0,learn,,,
,html-keyboard-response,105,351231,0.0-60.0-1.0,null,,,<p></p>,null,,,,,,,,,,,,,,
,do_trial,106,354594,0.0-61.0-0.0,860.7000000476837,,,,,,49,1,0,0,0,forest,5,0.6928461382662416,0.17756641725742164,0.060007746834587546,1,learn,,,
,html-keyboard-response,107,355596,0.0-61.0-1.0,null,,,<p></p>,null,,,,,,,,,,,,,,
,do_trial,108,358654,0.0-62.0-0.0,555.2999999523163,,,,,,49,1,0,0,0,forest,6,0.7877540087447009,0.13065676338705193,0.18142008479072594,1,learn,,,
,html-keyboard-response,109,359655,0.0-62.0-1.0,null,,,<p></p>,null,,,,,,,,,,,,,,
,do_trial,110,362950,0.0-63.0-0.0,792.5,,,,,,49,1,0,0,0,forest,7,0.6453319724774035,0.17255682780710732,0.20433612529624562,1,learn,,,
,html-keyboard-response,111,363951,0.0-63.0-1.0,null,,,<p></p>,null,,,,,,,,,,,,,,
,do_trial,112,367071,0.0-64.0-0.0,617.6000000238419,,,,,,49,1,0,0,0,forest,8,0.6114243924809465,0.23832988235256047,0.06808227261198688,1,learn,,,
,html-keyboard-response,113,368072,0.0-64.0-1.0,null,,,<p></p>,null,,,,,,,,,,,,,,
,do_trial,114,371168,0.0-65.0-0.0,594.6000000238419,,,,,,49,1,0,0,0,forest,9,0.5930516211784022,0.30204970104628864,0.11637388671633586,1,learn,,,
,html-keyboard-response,115,372174,0.0-65.0-1.0,null,,,<p></p>,null,,,,,,,,,,,,,,
,do_trial,116,375207,0.0-66.0-0.0,531.5,,,,,,49,1,0,0,0,forest,10,0.6832701685065798,0.23802043486979885,0.1981033182957851,1,learn,,,
,html-keyboard-response,117,376209,0.0-66.0-1.0,null,,,<p></p>,null,,,,,,,,,,,,,,
,do_trial,118,379542,0.0-67.0-0.0,830.5,,,,,,49,0,0,0,0,forest,11,0.6128418025000909,0.2921900082902976,0.26704198664077744,0,learn,,,
,html-keyboard-response,119,380542,0.0-67.0-1.0,null,,,<p></p>,null,,,,,,,,,,,,,,
,do_trial,120,383553,0.0-68.0-0.0,508.1999999284744,,,,,,49,0,1,0,0,forest,12,0.6496577067039693,0.31389189608990375,0.2519529322436072,0,learn,,,
,html-keyboard-response,121,384554,0.0-68.0-1.0,null,,,<p></p>,null,,,,,,,,,,,,,,
,do_trial,122,387458,0.0-69.0-0.0,401.8000000715256,,,,,,49,1,0,0,0,forest,13,0.7059394835547906,0.3067836175153576,0.1715317153362489,1,learn,,,
,html-keyboard-response,123,388460,0.0-69.0-1.0,null,,,<p></p>,null,,,,,,,,,,,,,,
,do_trial,124,391559,0.0-70.0-0.0,597.6000000238419,,,,,,49,1,0,0,0,forest,14,0.7330245021130055,0.32018601417616255,0.15526615076373232,1,learn,,,
,html-keyboard-response,125,392561,0.0-70.0-1.0,null,,,<p></p>,null,,,,,,,,,,,,,,
,do_trial,126,395588,0.0-71.0-0.0,525.2999999523163,,,,,,49,1,1,0,0,forest,15,0.6589372383499886,0.31016004927354573,0.08942196738612182,1,learn,,,
,html-keyboard-response,127,396589,0.0-71.0-1.0,null,,,<p></p>,null,,,,,,,,,,,,,,
,do_trial,128,399578,0.0-72.0-0.0,487.5,,,,,,49,0,0,0,0,forest,16,0.5527817832566109,0.2761436140361107,0.1499968127595548,0,learn,,,
,html-keyboard-response,129,400588,0.0-72.0-1.0,null,,,<p></p>,null,,,,,,,,,,,,,,
,do_trial,130,403593,0.0-73.0-0.0,502.5,,,,,,49,1,0,0,0,forest,17,0.5961244687454308,0.33069049755974417,0.10339098115648274,1,learn,,,
,html-keyboard-response,131,404594,0.0-73.0-1.0,null,,,<p></p>,null,,,,,,,,,,,,,,
,do_trial,132,407570,0.0-74.0-0.0,473.8000000715256,,,,,,49,1,1,0,0,forest,18,0.6007259836575398,0.22368265048674374,0.2185909819286605,1,learn,,,
,html-keyboard-response,133,408571,0.0-74.0-1.0,null,,,<p></p>,null,,,,,,,,,,,,,,
,do_trial,134,411652,0.0-75.0-0.0,578.7000000476837,,,,,,49,0,1,0,0,forest,19,0.5463049295170544,0.1746545581820215,0.15030310504165756,0,learn,,,
,html-keyboard-response,135,412654,0.0-75.0-1.0,null,,,<p></p>,null,,,,,,,,,,,,,,
,do_trial,136,415615,0.0-76.0-0.0,458.89999997615814,,,,,,49,1,0,0,0,forest,20,0.5866350734092334,0.22530668531895276,0.13826306666616883,1,learn,,,
,html-keyboard-response,137,416616,0.0-76.0-1.0,null,,,<p></p>,null,,,,,,,,,,,,,,
,do_trial,138,419580,0.0-77.0-0.0,463.39999997615814,,,,,,49,1,0,0,0,forest,21,0.6648799602411135,0.37408349288461185,0.14326025181555563,1,learn,,,
,html-keyboard-response,139,420583,0.0-77.0-1.0,null,,,<p></p>,null,,,,,,,,,,,,,,
,do_trial,140,423598,0.0-78.0-0.0,513.5,,,,,,49,0,0,0,0,forest,22,0.5834819277779789,0.4171695236901726,0.16524504075890725,0,learn,,,
,html-keyboard-response,141,424600,0.0-78.0-1.0,null,,,<p></p>,null,,,,,,,,,,,,,,
,do_trial,142,427656,0.0-79.0-0.0,554.7000000476837,,,,,,49,1,0,0,0,forest,23,0.5564533607511534,0.3087785014206422,0.14887719717072626,1,learn,,,
,html-keyboard-response,143,428658,0.0-79.0-1.0,null,,,<p></p>,null,,,,,,,,,,,,,,
,do_trial,144,431453,0.0-80.0-0.0,293.3000000715256,,,,,,49,0,0,0,0,forest,24,0.559085777611927,0.36569901065755855,0.18939214779940258,0,learn,,,
,html-keyboard-response,145,432455,0.0-80.0-1.0,null,,,<p></p>,null,,,,,,,,,,,,,,
,do_trial,146,435259,0.0-81.0-0.0,302.2000000476837,,,,,,49,0,1,0,0,forest,25,0.5581968690093048,0.4162251578496792,0.22854505282132503,0,learn,,,
,html-keyboard-response,147,436261,0.0-81.0-1.0,null,,,<p></p>,null,,,,,,,,,,,,,,
,do_trial,148,439013,0.0-82.0-0.0,251.20000004768372,,,,,,49,0,0,0,0,forest,26,0.586159402193153,0.3870793943913604,0.11416700054004583,0,learn,,,
,html-keyboard-response,149,440014,0.0-82.0-1.0,null,,,<p></p>,null,,,,,,,,,,,,,,
,do_trial,150,442945,0.0-83.0-0.0,429.8000000715256,,,,,,50,1,0,0,0,forest,27,0.5164935999946557,0.3870118404645321,0.10730958657196508,0,learn,,,
,html-keyboard-response,151,443947,0.0-83.0-1.0,null,,,<p></p>,null,,,,,,,,,,,,,,
,do_trial,152,446865,0.0-84.0-0.0,416.2000000476837,,,,,,51,1,1,0,0,forest,28,0.5313042598710606,0.3980843914145894,0.09798572433150492,0,learn,,,
,html-keyboard-response,153,447866,0.0-84.0-1.0,null,,,<p></p>,null,,,,,,,,,,,,,,
,do_trial,154,450834,0.0-85.0-0.0,467,,,,,,49,0,0,0,0,forest,29,0.513909985511707,0.28299669969396607,0.1413856999899873,0,learn,,,
,html-keyboard-response,155,451835,0.0-85.0-1.0,null,,,<p></p>,null,,,,,,,,,,,,,,
,do_bye,156,453337,0.0-86.0-0.0,null,,,,,,null,,,,,,,,,,,,
,do_travel,157,462338,0.0-87.0-0.0,null,,,,,,null,,,,,,,,,,,,
,do_welcome,158,466345,0.0-87.0-1.0,null,,,,,,null,,,,,,,,,,,,
,do_trial,159,470067,0.0-88.0-0.0,1220.8999999761581,,,,,,50,1,1,0,1,highway,30,1,0.2601087739348054,0.2066293224394251,1,learn,,,
,html-keyboard-response,160,471069,0.0-88.0-1.0,null,,,<p></p>,null,,,,,,,,,,,,,,
,do_trial,161,474032,0.0-89.0-0.0,461.5,,,,,,50,1,0,0,1,highway,31,1,0.2505827650598248,0.15645013258078844,0,learn,,,
,html-keyboard-response,162,475033,0.0-89.0-1.0,null,,,<p></p>,null,,,,,,,,,,,,,,
,do_trial,163,478118,0.0-90.0-0.0,583.6000000238419,,,,,,50,1,0,0,1,highway,32,1,0.37467062872881557,0.10342381047806382,0,learn,,,
,html-keyboard-response,164,479133,0.0-90.0-1.0,null,,,<p></p>,null,,,,,,,,,,,,,,
,do_trial,165,481995,0.0-91.0-0.0,358.60000002384186,,,,,,51,1,0,0,1,highway,33,0.8675732533667367,0.4526672255215137,0.07943360642036369,0,learn,,,
,html-keyboard-response,166,482996,0.0-91.0-1.0,null,,,<p></p>,null,,,,,,,,,,,,,,
,do_trial,167,485924,0.0-92.0-0.0,425.89999997615814,,,,,,49,1,0,1,1,highway,34,0.8258507040524318,0.4081929105899083,0.11381392713246037,1,learn,,,
,html-keyboard-response,168,486925,0.0-92.0-1.0,null,,,<p></p>,null,,,,,,,,,,,,,,
,do_trial,169,489735,0.0-93.0-0.0,307.59999990463257,,,,,,49,1,0,0,1,highway,35,0.7377674155056845,0.24833713969886134,0.22624653529649702,1,learn,,,
,html-keyboard-response,170,490736,0.0-93.0-1.0,null,,,<p></p>,null,,,,,,,,,,,,,,
,do_trial,171,493703,0.0-94.0-0.0,464.5,,,,,,49,1,0,0,1,highway,36,0.6285087468484215,0.29488777692850043,0.23789649235768273,1,learn,,,
,html-keyboard-response,172,494704,0.0-94.0-1.0,null,,,<p></p>,null,,,,,,,,,,,,,,
,do_trial,173,497693,0.0-95.0-0.0,486.39999997615814,,,,,,49,1,1,0,1,highway,37,0.6529442921628231,0.4053846510055749,0.14460413722935278,1,learn,,,
,html-keyboard-response,174,498695,0.0-95.0-1.0,null,,,<p></p>,null,,,,,,,,,,,,,,
,do_trial,175,501689,0.0-96.0-0.0,492.89999997615814,,,,,,49,0,0,0,1,highway,38,0.6295008130653696,0.40205558647096007,0.16074228376592334,0,learn,,,
,html-keyboard-response,176,502691,0.0-96.0-1.0,null,,,<p></p>,null,,,,,,,,,,,,,,
,do_trial,177,505654,0.0-97.0-0.0,461,,,,,,49,0,0,0,1,highway,39,0.5585798134876273,0.37771233821149536,0.10233563091817359,0,learn,,,
,html-keyboard-response,178,506655,0.0-97.0-1.0,null,,,<p></p>,null,,,,,,,,,,,,,,
,do_trial,179,509534,0.0-98.0-0.0,376.60000002384186,,,,,,49,1,1,0,1,highway,40,0.5289536109921522,0.36485975541761356,0.09132971380851242,1,learn,,,
,html-keyboard-response,180,510535,0.0-98.0-1.0,null,,,<p></p>,null,,,,,,,,,,,,,,
,do_trial,181,513395,0.0-99.0-0.0,359.2000000476837,,,,,,49,0,0,0,1,highway,41,0.5243158330008317,0.4132411476456613,0.06639361119252178,0,learn,,,
,html-keyboard-response,182,514397,0.0-99.0-1.0,null,,,<p></p>,null,,,,,,,,,,,,,,
,do_trial,183,517323,0.0-100.0-0.0,425.3000000715256,,,,,,49,1,0,0,1,highway,42,0.3137192846778199,0.2949119997068174,0.25579764518412423,1,learn,,,
,html-keyboard-response,184,518325,0.0-100.0-1.0,null,,,<p></p>,null,,,,,,,,,,,,,,
,do_trial,185,521449,0.0-101.0-0.0,623.2000000476837,,,,,,49,0,0,1,1,highway,43,0.17146680708127143,0.21512292415245426,0.4229452318904795,0,learn,,,
,html-keyboard-response,186,522451,0.0-101.0-1.0,null,,,<p></p>,null,,,,,,,,,,,,,,
,do_trial,187,525424,0.0-102.0-0.0,472.10000002384186,,,,,,49,0,0,0,1,highway,44,0.17456297250111313,0.23092269327739012,0.4908751950820362,0,learn,,,
,html-keyboard-response,188,526425,0.0-102.0-1.0,null,,,<p></p>,null,,,,,,,,,,,,,,
,do_trial,189,529271,0.0-103.0-0.0,343.60000002384186,,,,,,50,0,0,0,1,highway,45,0.23275370731524697,0.30320087911873134,0.5773280165478007,0,learn,,,
,html-keyboard-response,190,530273,0.0-103.0-1.0,null,,,<p></p>,null,,,,,,,,,,,,,,
,do_trial,191,533125,0.0-104.0-0.0,350.10000002384186,,,,,,51,1,0,1,1,highway,46,0.36013508202914735,0.2732856315654461,0.6707170641052127,1,learn,,,
,html-keyboard-response,192,534126,0.0-104.0-1.0,null,,,<p></p>,null,,,,,,,,,,,,,,
,do_trial,193,537053,0.0-105.0-0.0,424.2000000476837,,,,,,51,0,0,0,1,highway,47,0.3497295123982142,0.14947037879270184,0.7914221034551747,0,learn,,,
,html-keyboard-response,194,538055,0.0-105.0-1.0,null,,,<p></p>,null,,,,,,,,,,,,,,
,do_trial,195,541072,0.0-106.0-0.0,516.1000000238419,,,,,,49,0,0,0,1,highway,48,0.22485934299468263,0.257853469440037,0.6901510406718679,0,learn,,,
,html-keyboard-response,196,542073,0.0-106.0-1.0,null,,,<p></p>,null,,,,,,,,,,,,,,
,do_trial,197,545012,0.0-107.0-0.0,437.60000002384186,,,,,,49,0,1,1,1,highway,49,0.15984896435477067,0.29161111887070723,0.719954215395469,0,learn,,,
,html-keyboard-response,198,546014,0.0-107.0-1.0,null,,,<p></p>,null,,,,,,,,,,,,,,
,do_trial,199,548827,0.0-108.0-0.0,310.5,,,,,,51,0,0,0,1,highway,50,0.06803136402434724,0.2459645485858203,0.5568504273710143,0,learn,,,
,html-keyboard-response,200,549828,0.0-108.0-1.0,null,,,<p></p>,null,,,,,,,,,,,,,,
,do_trial,201,552669,0.0-109.0-0.0,338.8000000715256,,,,,,51,0,1,0,1,highway,51,0.05148865087975816,0.275531075636348,0.36850186498141996,0,learn,,,
,html-keyboard-response,202,553669,0.0-109.0-1.0,null,,,<p></p>,null,,,,,,,,,,,,,,
,do_trial,203,556498,0.0-110.0-0.0,326.2999999523163,,,,,,50,0,0,1,1,highway,52,0.1297054492708985,0.2517689017048647,0.49657440855321083,0,learn,,,
,html-keyboard-response,204,557500,0.0-110.0-1.0,null,,,<p></p>,null,,,,,,,,,,,,,,
,do_trial,205,560338,0.0-111.0-0.0,336.60000002384186,,,,,,50,1,0,0,1,highway,53,0.10023267555808729,0.23105447874289853,0.5756331797740087,0,learn,,,
,html-keyboard-response,206,561340,0.0-111.0-1.0,null,,,<p></p>,null,,,,,,,,,,,,,,
,do_trial,207,564195,0.0-112.0-0.0,353.7999999523163,,,,,,49,0,1,1,1,highway,54,0.1888448023287883,0.3158568869354994,0.4791198994000058,0,learn,,,
,html-keyboard-response,208,565196,0.0-112.0-1.0,null,,,<p></p>,null,,,,,,,,,,,,,,
,do_trial,209,568268,0.0-113.0-0.0,571.1000000238419,,,,,,49,0,0,1,1,highway,55,0.2634091281704614,0.40636016239545897,0.7002613874512033,0,learn,,,
,html-keyboard-response,210,569283,0.0-113.0-1.0,null,,,<p></p>,null,,,,,,,,,,,,,,
,do_trial,211,572220,0.0-114.0-0.0,435.2000000476837,,,,,,49,0,1,0,1,highway,56,0.12386770111191847,0.49101133395696794,0.6692097430644119,0,learn,,,
,html-keyboard-response,212,573220,0.0-114.0-1.0,null,,,<p></p>,null,,,,,,,,,,,,,,
,do_trial,213,576070,0.0-115.0-0.0,348.5,,,,,,51,0,1,1,1,highway,57,0.2001772315880171,0.525122541928925,0.6188017633902915,1,learn,,,
,html-keyboard-response,214,577071,0.0-115.0-1.0,null,,,<p></p>,null,,,,,,,,,,,,,,
,do_trial,215,579944,0.0-116.0-0.0,370.5,,,,,,51,0,1,1,1,highway,58,0.17018624593426648,0.39128781140330743,0.5916503942210449,1,learn,,,
,html-keyboard-response,216,580945,0.0-116.0-1.0,null,,,<p></p>,null,,,,,,,,,,,,,,
,do_trial,217,583745,0.0-117.0-0.0,299.10000002384186,,,,,,51,0,0,1,1,highway,59,0.09742241539314861,0.23361716219678522,0.5684361141804771,1,learn,,,
,html-keyboard-response,218,584747,0.0-117.0-1.0,null,,,<p></p>,null,,,,,,,,,,,,,,
,do_trial,219,587680,0.0-118.0-0.0,431.2000000476837,,,,,,51,0,0,1,1,highway,60,0.051501284373389966,0.21653297909686772,0.6237451243885231,1,learn,,,
,html-keyboard-response,220,588681,0.0-118.0-1.0,null,,,<p></p>,null,,,,,,,,,,,,,,
,do_trial,221,592376,0.0-119.0-0.0,1192.7000000476837,,,,,,51,0,0,1,1,highway,61,0.14245631197513897,0.26803064564361406,0.6828203647892077,1,learn,,,
,html-keyboard-response,222,593376,0.0-119.0-1.0,null,,,<p></p>,null,,,,,,,,,,,,,,
,do_trial,223,596349,0.0-120.0-0.0,470.5,,,,,,51,0,0,1,1,highway,62,0.105017221608779,0.2312832792322075,0.5966453354999817,1,learn,,,
,html-keyboard-response,224,597350,0.0-120.0-1.0,null,,,<p></p>,null,,,,,,,,,,,,,,
,do_trial,225,600377,0.0-121.0-0.0,525.6999999284744,,,,,,51,0,0,1,1,highway,63,0.12179452021379257,0.3112503447053783,0.5954902955496637,1,learn,,,
,html-keyboard-response,226,601378,0.0-121.0-1.0,null,,,<p></p>,null,,,,,,,,,,,,,,
,do_trial,227,604364,0.0-122.0-0.0,483.89999997615814,,,,,,51,1,0,1,1,highway,64,0.056349877647030415,0.24932094578315817,0.6304943316844568,1,learn,,,
,html-keyboard-response,228,605365,0.0-122.0-1.0,null,,,<p></p>,null,,,,,,,,,,,,,,
,do_trial,229,608289,0.0-123.0-0.0,422,,,,,,51,0,1,1,1,highway,65,0.22956875372604768,0.34944899092166837,0.6349282642246946,1,learn,,,
,html-keyboard-response,230,609290,0.0-123.0-1.0,null,,,<p></p>,null,,,,,,,,,,,,,,
,do_trial,231,613085,0.0-124.0-0.0,1292.2999999523163,,,,,,51,0,0,1,1,highway,66,0.2013121309388192,0.37320831205218147,0.7346863178911858,1,learn,,,
,html-keyboard-response,232,614086,0.0-124.0-1.0,null,,,<p></p>,null,,,,,,,,,,,,,,
,do_trial,233,617578,0.0-125.0-0.0,990.6000000238419,,,,,,51,0,0,1,1,highway,67,0.0694312750027693,0.38164277081270165,0.6581273847254936,1,learn,,,
,html-keyboard-response,234,618594,0.0-125.0-1.0,null,,,<p></p>,null,,,,,,,,,,,,,,
,do_trial,235,621805,0.0-126.0-0.0,709.1000000238419,,,,,,51,0,0,0,1,highway,68,0.08062233898650634,0.2897765483619974,0.5510818623359695,0,learn,,,
,html-keyboard-response,236,622806,0.0-126.0-1.0,null,,,<p></p>,null,,,,,,,,,,,,,,
,do_trial,237,625847,0.0-127.0-0.0,538.8999999761581,,,,,,51,0,0,1,1,highway,69,0.2105600655637555,0.2799730503906231,0.4890959782434623,1,learn,,,
,html-keyboard-response,238,626851,0.0-127.0-1.0,null,,,<p></p>,null,,,,,,,,,,,,,,
,do_bye,239,628365,0.0-128.0-0.0,null,,,,,,null,,,,,,,,,,,,
,do_travel,240,637366,0.0-129.0-0.0,null,,,,,,null,,,,,,,,,,,,
,do_welcome,241,641372,0.0-129.0-1.0,null,,,,,,null,,,,,,,,,,,,
,do_trial,242,645269,0.0-130.0-0.0,1396.1999999284744,,,,,,50,0,0,1,2,coast,70,0.2404954793158665,0.07025147136404261,1,0,learn,,,
,html-keyboard-response,243,646271,0.0-130.0-1.0,null,,,<p></p>,null,,,,,,,,,,,,,,
,do_trial,244,649131,0.0-131.0-0.0,357.39999997615814,,,,,,49,0,0,1,2,coast,71,0.24852608465685408,0.060729767310191286,1,0,learn,,,
,html-keyboard-response,245,650133,0.0-131.0-1.0,null,,,<p></p>,null,,,,,,,,,,,,,,
,do_trial,246,653084,0.0-132.0-0.0,448.8000000715256,,,,,,51,0,0,1,2,coast,72,0.15798811820137826,0.26202806448339894,0.8726623789409633,1,learn,,,
,html-keyboard-response,247,654085,0.0-132.0-1.0,null,,,<p></p>,null,,,,,,,,,,,,,,
,do_trial,248,657081,0.0-133.0-0.0,494,,,,,,51,0,0,1,2,coast,73,0.08529378703323374,0.39656053866214025,0.8344097517535994,1,learn,,,
,html-keyboard-response,249,658083,0.0-133.0-1.0,null,,,<p></p>,null,,,,,,,,,,,,,,
,do_trial,250,661123,0.0-134.0-0.0,537.7999999523163,,,,,,51,0,0,1,2,coast,74,0.08109099030876181,0.274444131568611,0.6364095182774926,1,learn,,,
,html-keyboard-response,251,662124,0.0-134.0-1.0,null,,,<p></p>,null,,,,,,,,,,,,,,
,do_trial,252,665515,0.0-135.0-0.0,888.8000000715256,,,,,,51,0,1,1,2,coast,75,0.16186118169313293,0.4015011945527408,0.6235004851044375,1,learn,,,
,html-keyboard-response,253,666516,0.0-135.0-1.0,null,,,<p></p>,null,,,,,,,,,,,,,,
,do_trial,254,669511,0.0-136.0-0.0,493.10000002384186,,,,,,51,0,0,0,2,coast,76,0.12401163955977605,0.35785915046762007,0.615763116750771,0,learn,,,
,html-keyboard-response,255,670512,0.0-136.0-1.0,null,,,<p></p>,null,,,,,,,,,,,,,,
,do_trial,256,673369,0.0-137.0-0.0,355.2000000476837,,,,,,51,0,1,1,2,coast,77,0.11648968684672076,0.4010400058069158,0.5033796882933277,1,learn,,,
,html-keyboard-response,257,674370,0.0-137.0-1.0,null,,,<p></p>,null,,,,,,,,,,,,,,
,do_trial,258,677449,0.0-138.0-0.0,577.6999999284744,,,,,,51,0,0,1,2,coast,78,0.08907527293619787,0.2616272652687706,0.49897180003658315,1,learn,,,
,html-keyboard-response,259,678450,0.0-138.0-1.0,null,,,<p></p>,null,,,,,,,,,,,,,,
,do_trial,260,681577,0.0-139.0-0.0,625.3999999761581,,,,,,51,0,0,0,2,coast,79,0.0643195836744054,0.2756034148159889,0.5365150192997187,0,learn,,,
,html-keyboard-response,261,682578,0.0-139.0-1.0,null,,,<p></p>,null,,,,,,,,,,,,,,
,do_trial,262,685703,0.0-140.0-0.0,622.7000000476837,,,,,,51,1,0,0,2,coast,80,0.23280419723497736,0.3142397908657451,0.5333314880625859,0,learn,,,
,html-keyboard-response,263,686703,0.0-140.0-1.0,null,,,<p></p>,null,,,,,,,,,,,,,,
,do_trial,264,689812,0.0-141.0-0.0,606.8999999761581,,,,,,51,0,0,0,2,coast,81,0.19146190959543194,0.27576767128696483,0.6401370944545655,0,learn,,,
,html-keyboard-response,265,690814,0.0-141.0-1.0,null,,,<p></p>,null,,,,,,,,,,,,,,
,do_trial,266,693757,0.0-142.0-0.0,441.3000000715256,,,,,,49,0,0,0,2,coast,82,0.2953299001343055,0.2849238355057284,0.3222574465643412,0,learn,,,
,html-keyboard-response,267,694758,0.0-142.0-1.0,null,,,<p></p>,null,,,,,,,,,,,,,,
,do_trial,268,697563,0.0-143.0-0.0,304.2000000476837,,,,,,50,0,1,1,2,coast,83,0.4546924267406611,0.3998188070266845,0.5423132879756054,1,learn,,,
,html-keyboard-response,269,698564,0.0-143.0-1.0,null,,,<p></p>,null,,,,,,,,,,,,,,
,do_trial,270,701395,0.0-144.0-0.0,329.39999997615814,,,,,,50,0,0,0,2,coast,84,0.6313427673159671,0.3625062173267428,0.5631812652420473,0,learn,,,
,html-keyboard-response,271,702396,0.0-144.0-1.0,null,,,<p></p>,null,,,,,,,,,,,,,,
,do_trial,272,705224,0.0-145.0-0.0,326.1999999284744,,,,,,50,1,0,1,2,coast,85,0.7587217108275803,0.3275493028406837,0.43533244329221077,0,learn,,,
,html-keyboard-response,273,706226,0.0-145.0-1.0,null,,,<p></p>,null,,,,,,,,,,,,,,
,do_trial,274,709116,0.0-146.0-0.0,389.2000000476837,,,,,,50,1,0,1,2,coast,86,0.6519571259326518,0.14681003571217466,0.25916741532233867,0,learn,,,
,html-keyboard-response,275,710118,0.0-146.0-1.0,null,,,<p></p>,null,,,,,,,,,,,,,,
,do_trial,276,712926,0.0-147.0-0.0,306.8000000715256,,,,,,51,1,1,0,2,coast,87,0.5097960768410594,0.17965858013148606,0.26853079596498286,0,learn,,,
,html-keyboard-response,277,713928,0.0-147.0-1.0,null,,,<p></p>,null,,,,,,,,,,,,,,
,do_trial,278,716884,0.0-148.0-0.0,455,,,,,,51,0,0,0,2,coast,88,0.5500342383608786,0.10547774120220094,0.145843013777141,0,learn,,,
,html-keyboard-response,279,717885,0.0-148.0-1.0,null,,,<p></p>,null,,,,,,,,,,,,,,
,do_trial,280,721038,0.0-149.0-0.0,650.6000000238419,,,,,,49,0,0,0,2,coast,89,0.46633214596937034,0.25112461897694055,0.2792713864843024,0,learn,,,
,html-keyboard-response,281,722039,0.0-149.0-1.0,null,,,<p></p>,null,,,,,,,,,,,,,,
,do_trial,282,724918,0.0-150.0-0.0,376.39999997615814,,,,,,50,1,0,0,2,coast,90,0.5747454258852166,0.17483170564197945,0.4224378016159953,0,learn,,,
,html-keyboard-response,283,725919,0.0-150.0-1.0,null,,,<p></p>,null,,,,,,,,,,,,,,
,do_trial,284,728885,0.0-151.0-0.0,465.10000002384186,,,,,,51,1,0,0,2,coast,91,0.5848731107565398,0.07663727042759974,0.3323696710987878,0,learn,,,
,html-keyboard-response,285,729886,0.0-151.0-1.0,null,,,<p></p>,null,,,,,,,,,,,,,,
,do_trial,286,732751,0.0-152.0-0.0,363.1999999284744,,,,,,50,1,0,0,2,coast,92,0.608947163343633,0.1751443928591248,0.4249250139635414,0,learn,,,
,html-keyboard-response,287,733752,0.0-152.0-1.0,null,,,<p></p>,null,,,,,,,,,,,,,,
,do_trial,288,736674,0.0-153.0-0.0,419.7000000476837,,,,,,50,0,0,1,2,coast,93,0.7043183739678607,0.1802169697371755,0.4410412143091724,0,learn,,,
,html-keyboard-response,289,737676,0.0-153.0-1.0,null,,,<p></p>,null,,,,,,,,,,,,,,
,do_trial,290,740673,0.0-154.0-0.0,495.2000000476837,,,,,,51,0,0,0,2,coast,94,0.7079868646102035,0.22562363262266275,0.3072597006014129,0,learn,,,
,html-keyboard-response,291,741675,0.0-154.0-1.0,null,,,<p></p>,null,,,,,,,,,,,,,,
,do_trial,292,744542,0.0-155.0-0.0,364.89999997615814,,,,,,51,1,0,0,2,coast,95,0.6668402871245841,0.11230074221473295,0.27744509350954016,0,learn,,,
,html-keyboard-response,293,745544,0.0-155.0-1.0,null,,,<p></p>,null,,,,,,,,,,,,,,
,do_trial,294,748469,0.0-156.0-0.0,424.3000000715256,,,,,,49,1,1,1,2,coast,96,0.5965741516972879,0.13690569966743474,0.24175395778792833,1,learn,,,
,html-keyboard-response,295,749470,0.0-156.0-1.0,null,,,<p></p>,null,,,,,,,,,,,,,,
,do_trial,296,752371,0.0-157.0-0.0,399,,,,,,49,1,0,0,2,coast,97,0.5038663092482564,0.10340341193073961,0.25386903176158954,1,learn,,,
,html-keyboard-response,297,753372,0.0-157.0-1.0,null,,,<p></p>,null,,,,,,,,,,,,,,
,do_trial,298,756656,0.0-158.0-0.0,782.3999999761581,,,,,,49,1,0,0,2,coast,98,0.4417811952533121,0.09161722059679848,0.3151946245013903,1,learn,,,
,html-keyboard-response,299,757658,0.0-158.0-1.0,null,,,<p></p>,null,,,,,,,,,,,,,,
,do_trial,300,760647,0.0-159.0-0.0,487.3000000715256,,,,,,49,0,0,0,2,coast,99,0.4269180989150824,0.20017488520575014,0.26399818609306935,0,learn,,,
,html-keyboard-response,301,761649,0.0-159.0-1.0,null,,,<p></p>,null,,,,,,,,,,,,,,
,do_trial,302,764486,0.0-160.0-0.0,335.2000000476837,,,,,,49,0,0,0,2,coast,100,0.5660216012933649,0.14593854186689054,0.28073586357878016,0,learn,,,
,html-keyboard-response,303,765486,0.0-160.0-1.0,null,,,<p></p>,null,,,,,,,,,,,,,,
,do_trial,304,768328,0.0-161.0-0.0,340.1999999284744,,,,,,49,1,0,1,2,coast,101,0.603190346705671,0.12540382566963296,0.21978603856647763,1,learn,,,
,html-keyboard-response,305,769330,0.0-161.0-1.0,null,,,<p></p>,null,,,,,,,,,,,,,,
,do_trial,306,772187,0.0-162.0-0.0,356.2000000476837,,,,,,49,0,0,0,2,coast,102,0.5639550330887264,0.16388311693420424,0.24552274732926666,0,learn,,,
,html-keyboard-response,307,773189,0.0-162.0-1.0,null,,,<p></p>,null,,,,,,,,,,,,,,
,do_trial,308,776257,0.0-163.0-0.0,566,,,,,,49,0,0,1,2,coast,103,0.5726559592709904,0.24254503085918763,0.20299325732123508,0,learn,,,
,html-keyboard-response,309,777258,0.0-163.0-1.0,null,,,<p></p>,null,,,,,,,,,,,,,,
,do_trial,310,780338,0.0-164.0-0.0,578.2999999523163,,,,,,49,1,0,1,2,coast,104,0.552428155992143,0.1491429105326175,0.14578506355949342,1,learn,,,
,html-keyboard-response,311,781340,0.0-164.0-1.0,null,,,<p></p>,null,,,,,,,,,,,,,,
,do_trial,312,784523,0.0-165.0-0.0,681.2000000476837,,,,,,49,1,0,0,2,coast,105,0.6197195248689037,0.08740593584964185,0.10698755302938341,1,learn,,,
,html-keyboard-response,313,785525,0.0-165.0-1.0,null,,,<p></p>,null,,,,,,,,,,,,,,
,do_trial,314,788588,0.0-166.0-0.0,561.3999999761581,,,,,,49,1,0,1,2,coast,106,0.43669713421826784,0.16192597626426863,0.21673679046614577,1,learn,,,
,html-keyboard-response,315,789590,0.0-166.0-1.0,null,,,<p></p>,null,,,,,,,,,,,,,,
,do_trial,316,792682,0.0-167.0-0.0,591,,,,,,49,1,0,0,2,coast,107,0.5902546921562548,0.08027491891551669,0.14129660954655637,1,learn,,,
,html-keyboard-response,317,793684,0.0-167.0-1.0,null,,,<p></p>,null,,,,,,,,,,,,,,
,do_trial,318,796735,0.0-168.0-0.0,550,,,,,,49,1,0,0,2,coast,108,0.6167170087441397,0.11519744772500663,0.12948239456086763,1,learn,,,
,html-keyboard-response,319,797737,0.0-168.0-1.0,null,,,<p></p>,null,,,,,,,,,,,,,,
,do_trial,320,800914,0.0-169.0-0.0,673.1999999284744,,,,,,49,0,0,0,2,coast,109,0.5779424972554675,0.17037797123014892,0.22947462976860095,0,learn,,,
,html-keyboard-response,321,801916,0.0-169.0-1.0,null,,,<p></p>,null,,,,,,,,,,,,,,
,do_bye,322,803417,0.0-170.0-0.0,null,,,,,,null,,,,,,,,,,,,
,do_travel,323,812419,0.0-171.0-0.0,null,,,,,,null,,,,,,,,,,,,
,do_welcome,324,816426,0.0-171.0-1.0,null,,,,,,null,,,,,,,,,,,,
,do_trial,325,819980,0.0-172.0-0.0,1050.8999999761581,,,,,,49,1,0,0,3,mountain,110,1,0.18218963834559707,0.3143908099558281,1,learn,,,
,html-keyboard-response,326,820982,0.0-172.0-1.0,null,,,<p></p>,null,,,,,,,,,,,,,,
,do_trial,327,824769,0.0-173.0-0.0,1285.5,,,,,,49,1,1,1,3,mountain,111,1,0.07214986693251711,0.26655178840686444,1,learn,,,
,html-keyboard-response,328,825770,0.0-173.0-1.0,null,,,<p></p>,null,,,,,,,,,,,,,,
,do_trial,329,829073,0.0-174.0-0.0,801.3999999761581,,,,,,49,1,0,0,3,mountain,112,0.8679394161137937,0.09900123599758859,0.21870786742899967,1,learn,,,
,html-keyboard-response,330,830074,0.0-174.0-1.0,null,,,<p></p>,null,,,,,,,,,,,,,,
,do_trial,331,833097,0.0-175.0-0.0,521.2999999523163,,,,,,49,1,0,1,3,mountain,113,0.8812093668203577,0.08974290378530889,0.3627268798743926,1,learn,,,
,html-keyboard-response,332,834098,0.0-175.0-1.0,null,,,<p></p>,null,,,,,,,,,,,,,,
,do_trial,333,837279,0.0-176.0-0.0,679.2999999523163,,,,,,49,1,0,0,3,mountain,114,0.7141230313442338,0.16536796880610488,0.3102055405325047,1,learn,,,
,html-keyboard-response,334,838280,0.0-176.0-1.0,null,,,<p></p>,null,,,,,,,,,,,,,,
,do_trial,335,841491,0.0-177.0-0.0,708.3999999761581,,,,,,49,1,0,1,3,mountain,115,0.67633799708868,0.06221032092290631,0.2333403630891345,1,learn,,,
,html-keyboard-response,336,842492,0.0-177.0-1.0,null,,,<p></p>,null,,,,,,,,,,,,,,
,do_trial,337,845430,0.0-178.0-0.0,436.10000002384186,,,,,,49,0,0,0,3,mountain,116,0.789860906798434,0.09297471954858803,0.3197217485005873,0,learn,,,
,html-keyboard-response,338,846431,0.0-178.0-1.0,null,,,<p></p>,null,,,,,,,,,,,,,,
,do_trial,339,849381,0.0-179.0-0.0,447.60000002384186,,,,,,49,0,0,0,3,mountain,117,0.7906843390354318,0.08583291094749354,0.3754472973952733,0,learn,,,
,html-keyboard-response,340,850383,0.0-179.0-1.0,null,,,<p></p>,null,,,,,,,,,,,,,,
,do_trial,341,853288,0.0-180.0-0.0,403.7000000476837,,,,,,49,1,0,1,3,mountain,118,0.7709044341028699,0.14538145613133005,0.3232082589625815,1,learn,,,
,html-keyboard-response,342,854297,0.0-180.0-1.0,null,,,<p></p>,null,,,,,,,,,,,,,,
,do_trial,343,857919,0.0-181.0-0.0,1120,,,,,,49,1,1,0,3,mountain,119,0.6021382007507334,0.20625940013310654,0.36986708571655563,1,learn,,,
,html-keyboard-response,344,858919,0.0-181.0-1.0,null,,,<p></p>,null,,,,,,,,,,,,,,
,do_trial,345,862133,0.0-182.0-0.0,712.3000000715256,,,,,,49,1,0,0,3,mountain,120,0.5387085568779898,0.23503473867288802,0.37768374012477085,1,learn,,,
,html-keyboard-response,346,863135,0.0-182.0-1.0,null,,,<p></p>,null,,,,,,,,,,,,,,
,do_trial,347,866263,0.0-183.0-0.0,625.5,,,,,,49,0,0,0,3,mountain,121,0.5703382227345566,0.1057594305296811,0.2647535833849823,0,learn,,,
,html-keyboard-response,348,867264,0.0-183.0-1.0,null,,,<p></p>,null,,,,,,,,,,,,,,
,do_trial,349,870162,0.0-184.0-0.0,395.7000000476837,,,,,,49,0,0,0,3,mountain,122,0.3765250483885074,0.3241713933824428,0.3757057727506928,0,learn,,,
,html-keyboard-response,350,871163,0.0-184.0-1.0,null,,,<p></p>,null,,,,,,,,,,,,,,
,do_trial,351,874029,0.0-185.0-0.0,364.3000000715256,,,,,,49,0,0,0,3,mountain,123,0.28889399705968927,0.3915424199874212,0.29676253042890827,0,learn,,,
,html-keyboard-response,352,875029,0.0-185.0-1.0,null,,,<p></p>,null,,,,,,,,,,,,,,
,do_trial,353,877950,0.0-186.0-0.0,418.7000000476837,,,,,,50,0,0,0,3,mountain,124,0.3233604736927646,0.3925093079785632,0.19412771350959246,0,learn,,,
,html-keyboard-response,354,878952,0.0-186.0-1.0,null,,,<p></p>,null,,,,,,,,,,,,,,
,do_trial,355,881771,0.0-187.0-0.0,316.90000009536743,,,,,,51,0,0,0,3,mountain,125,0.17093308493416182,0.4247249489736914,0.2176305800724705,0,learn,,,
,html-keyboard-response,356,882773,0.0-187.0-1.0,null,,,<p></p>,null,,,,,,,,,,,,,,
,do_trial,357,885714,0.0-188.0-0.0,438.60000002384186,,,,,,49,0,1,0,3,mountain,126,0.14466532973433452,0.38613899437407073,0.2950981205930448,0,learn,,,
,html-keyboard-response,358,886715,0.0-188.0-1.0,null,,,<p></p>,null,,,,,,,,,,,,,,
,do_trial,359,889488,0.0-189.0-0.0,271,,,,,,49,0,1,1,3,mountain,127,0.18221610155522988,0.4688970152591314,0.3250297379156813,0,learn,,,
,html-keyboard-response,360,890491,0.0-189.0-1.0,null,,,<p></p>,null,,,,,,,,,,,,,,
,do_trial,361,893653,0.0-190.0-0.0,661.2000000476837,,,,,,49,0,0,0,3,mountain,128,0.1920744670460026,0.5184835654804555,0.24742012256778623,0,learn,,,
,html-keyboard-response,362,894654,0.0-190.0-1.0,null,,,<p></p>,null,,,,,,,,,,,,,,
,do_trial,363,897631,0.0-191.0-0.0,475.5,,,,,,50,0,1,0,3,mountain,129,0.07025854352213096,0.5820447241878753,0.3631860690947656,1,learn,,,
,html-keyboard-response,364,898632,0.0-191.0-1.0,null,,,<p></p>,null,,,,,,,,,,,,,,
,do_trial,365,901431,0.0-192.0-0.0,296.2000000476837,,,,,,50,0,0,0,3,mountain,130,0.10878188943557884,0.5538529544857945,0.3150903567527838,0,learn,,,
,html-keyboard-response,366,902432,0.0-192.0-1.0,null,,,<p></p>,null,,,,,,,,,,,,,,
,do_trial,367,905249,0.0-193.0-0.0,315.8000000715256,,,,,,50,0,1,0,3,mountain,131,0.07046920474121096,0.4670160011150432,0.20815309980569466,1,learn,,,
,html-keyboard-response,368,906250,0.0-193.0-1.0,null,,,<p></p>,null,,,,,,,,,,,,,,
,do_trial,369,909123,0.0-194.0-0.0,370.5,,,,,,50,0,1,0,3,mountain,132,0.16012153553253705,0.45724098873036156,0.26125166553665063,1,learn,,,
,html-keyboard-response,370,910124,0.0-194.0-1.0,null,,,<p></p>,null,,,,,,,,,,,,,,
,do_trial,371,913018,0.0-195.0-0.0,391.2999999523163,,,,,,50,0,1,0,3,mountain,133,0.0821605788481361,0.43373194571774754,0.19288739325631254,1,learn,,,
,html-keyboard-response,372,914018,0.0-195.0-1.0,null,,,<p></p>,null,,,,,,,,,,,,,,
,do_trial,373,917031,0.0-196.0-0.0,509.60000002384186,,,,,,50,0,1,0,3,mountain,134,0.116073924692514,0.5189595196953348,0.21116206779490065,1,learn,,,
,html-keyboard-response,374,918032,0.0-196.0-1.0,null,,,<p></p>,null,,,,,,,,,,,,,,
,do_trial,375,921115,0.0-197.0-0.0,580.7000000476837,,,,,,50,0,1,0,3,mountain,135,0.10049057023549741,0.5097401554592417,0.15864130208747887,1,learn,,,
,html-keyboard-response,376,922117,0.0-197.0-1.0,null,,,<p></p>,null,,,,,,,,,,,,,,
,do_trial,377,925105,0.0-198.0-0.0,486.89999997615814,,,,,,50,0,0,0,3,mountain,136,0.11523199678215235,0.6371408949401424,0.3377493575033196,0,learn,,,
,html-keyboard-response,378,926106,0.0-198.0-1.0,null,,,<p></p>,null,,,,,,,,,,,,,,
,do_trial,379,929095,0.0-199.0-0.0,488.3000000715256,,,,,,50,0,1,1,3,mountain,137,0.06259016619538792,0.6111522307867427,0.2640286315076552,1,learn,,,
,html-keyboard-response,380,930097,0.0-199.0-1.0,null,,,<p></p>,null,,,,,,,,,,,,,,
,do_trial,381,933066,0.0-200.0-0.0,466.6999999284744,,,,,,50,0,0,1,3,mountain,138,0.07037023182393848,0.6022277572956376,0.2925423327192442,0,learn,,,
,html-keyboard-response,382,934067,0.0-200.0-1.0,null,,,<p></p>,null,,,,,,,,,,,,,,
,do_trial,383,937017,0.0-201.0-0.0,448.10000002384186,,,,,,50,0,1,0,3,mountain,139,0.103119354097077,0.5873293559471027,0.3044340703048199,1,learn,,,
,html-keyboard-response,384,938018,0.0-201.0-1.0,null,,,<p></p>,null,,,,,,,,,,,,,,
,do_trial,385,941071,0.0-202.0-0.0,551.2000000476837,,,,,,50,0,1,0,3,mountain,140,0.08484970301633427,0.617457255774243,0.15759748258479694,1,learn,,,
,html-keyboard-response,386,942071,0.0-202.0-1.0,null,,,<p></p>,null,,,,,,,,,,,,,,
,do_trial,387,945090,0.0-203.0-0.0,517.5,,,,,,50,0,1,0,3,mountain,141,0.1314398850265844,0.5583833886378861,0.32592456329102787,1,learn,,,
,html-keyboard-response,388,946091,0.0-203.0-1.0,null,,,<p></p>,null,,,,,,,,,,,,,,
,do_trial,389,949191,0.0-204.0-0.0,589.5,,,,,,50,0,1,0,3,mountain,142,0.22713222293589638,0.531192407623495,0.2846332033150372,1,learn,,,
,html-keyboard-response,390,950192,0.0-204.0-1.0,null,,,<p></p>,null,,,,,,,,,,,,,,
,do_trial,391,953177,0.0-205.0-0.0,482.8000000715256,,,,,,50,0,0,0,3,mountain,143,0.30972463607047734,0.42025965661796244,0.12802409178029425,0,learn,,,
,html-keyboard-response,392,954179,0.0-205.0-1.0,null,,,<p></p>,null,,,,,,,,,,,,,,
,do_trial,393,957189,0.0-206.0-0.0,508.2000000476837,,,,,,50,0,1,1,3,mountain,144,0.2461386284907778,0.446620299348764,0.2290988524583828,1,learn,,,
,html-keyboard-response,394,958189,0.0-206.0-1.0,null,,,<p></p>,null,,,,,,,,,,,,,,
,do_trial,395,961200,0.0-207.0-0.0,509.5,,,,,,50,0,0,1,3,mountain,145,0.3521865368388481,0.4992172037941419,0.2456929673715665,0,learn,,,
,html-keyboard-response,396,962201,0.0-207.0-1.0,null,,,<p></p>,null,,,,,,,,,,,,,,
,do_trial,397,965120,0.0-208.0-0.0,416.8000000715256,,,,,,50,0,0,1,3,mountain,146,0.3130400069917315,0.4987017834799247,0.2609215986584621,0,learn,,,
,html-keyboard-response,398,966122,0.0-208.0-1.0,null,,,<p></p>,null,,,,,,,,,,,,,,
,do_trial,399,969006,0.0-209.0-0.0,381.7000000476837,,,,,,50,0,0,1,3,mountain,147,0.20880747836975067,0.41990740091666134,0.25303331699359155,0,learn,,,
,html-keyboard-response,400,970007,0.0-209.0-1.0,null,,,<p></p>,null,,,,,,,,,,,,,,
,do_trial,401,973040,0.0-210.0-0.0,530.7999999523163,,,,,,49,0,1,0,3,mountain,148,0.05412914739633793,0.4966395369350514,0.2429298347750791,0,learn,,,
,html-keyboard-response,402,974040,0.0-210.0-1.0,null,,,<p></p>,null,,,,,,,,,,,,,,
,do_trial,403,977008,0.0-211.0-0.0,465.5,,,,,,51,0,1,1,3,mountain,149,0.14310083957910943,0.48708139841282977,0.35273691313714695,1,learn,,,
,html-keyboard-response,404,978009,0.0-211.0-1.0,null,,,<p></p>,null,,,,,,,,,,,,,,
,do_bye,405,979510,0.0-212.0-0.0,null,,,,,,null,,,,,,,,,,,,
,do_travel,406,988511,0.0-213.0-0.0,null,,,,,,null,,,,,,,,,,,,
,do_welcome,407,992521,0.0-213.0-1.0,null,,,,,,null,,,,,,,,,,,,
,do_trial,408,996159,0.0-214.0-0.0,1131,,,,,,49,0,1,0,4,countryside,150,0.1708903957137112,1,0.23356605059723212,0,learn,,,
,html-keyboard-response,409,997160,0.0-214.0-1.0,null,,,<p></p>,null,,,,,,,,,,,,,,
,do_trial,410,1000092,0.0-215.0-0.0,429.39999997615814,,,,,,50,0,1,0,4,countryside,151,0.06117445358093068,1,0.22784375745993996,1,learn,,,
,html-keyboard-response,411,1001094,0.0-215.0-1.0,null,,,<p></p>,null,,,,,,,,,,,,,,
,do_trial,412,1004215,0.0-216.0-0.0,618.7000000476837,,,,,,50,0,1,0,4,countryside,152,0.2770521492920863,0.8696719662827317,0.1708176395002863,1,learn,,,
,html-keyboard-response,413,1005216,0.0-216.0-1.0,null,,,<p></p>,null,,,,,,,,,,,,,,
,do_trial,414,1008306,0.0-217.0-0.0,587.1000000238419,,,,,,50,0,1,0,4,countryside,153,0.21377201764666132,0.902886674209899,0.1695582956055964,1,learn,,,
,html-keyboard-response,415,1009307,0.0-217.0-1.0,null,,,<p></p>,null,,,,,,,,,,,,,,
,do_trial,416,1012267,0.0-218.0-0.0,456.60000002384186,,,,,,50,0,1,0,4,countryside,154,0.1916483379948671,0.7929247802898104,0.18964903933887428,1,learn,,,
,html-keyboard-response,417,1013268,0.0-218.0-1.0,null,,,<p></p>,null,,,,,,,,,,,,,,
,do_trial,418,1016399,0.0-219.0-0.0,628.8999999761581,,,,,,50,0,1,1,4,countryside,155,0.18906912046741242,0.7831288671196296,0.21256999300501966,1,learn,,,
,html-keyboard-response,419,1017400,0.0-219.0-1.0,null,,,<p></p>,null,,,,,,,,,,,,,,
,do_trial,420,1020593,0.0-220.0-0.0,691,,,,,,50,0,1,1,4,countryside,156,0.22690014535837175,0.8902831832248057,0.17411943797563148,1,learn,,,
,html-keyboard-response,421,1021595,0.0-220.0-1.0,null,,,<p></p>,null,,,,,,,,,,,,,,
,do_trial,422,1024600,0.0-221.0-0.0,504.3000000715256,,,,,,50,0,1,0,4,countryside,157,0.2525878047093227,0.785575681492331,0.23057853893459812,1,learn,,,
,html-keyboard-response,423,1025601,0.0-221.0-1.0,null,,,<p></p>,null,,,,,,,,,,,,,,
,do_trial,424,1028682,0.0-222.0-0.0,579.6000000238419,,,,,,50,0,1,0,4,countryside,158,0.19736950491084992,0.6666046766596091,0.13849572428069137,1,learn,,,
,html-keyboard-response,425,1029683,0.0-222.0-1.0,null,,,<p></p>,null,,,,,,,,,,,,,,
,do_trial,426,1032673,0.0-223.0-0.0,487.5,,,,,,50,0,1,1,4,countryside,159,0.07157496672422027,0.7282944859390084,0.18035542067297722,1,learn,,,
,html-keyboard-response,427,1033674,0.0-223.0-1.0,null,,,<p></p>,null,,,,,,,,,,,,,,
,do_trial,428,1036679,0.0-224.0-0.0,502.5,,,,,,50,0,0,1,4,countryside,160,0.14095240573271497,0.7471893756322909,0.14761019630370537,0,learn,,,
,html-keyboard-response,429,1037680,0.0-224.0-1.0,null,,,<p></p>,null,,,,,,,,,,,,,,
,do_trial,430,1040639,0.0-225.0-0.0,458,,,,,,50,0,0,0,4,countryside,161,0.20378865301288912,0.7123778476456072,0.1626023730134334,0,learn,,,
,html-keyboard-response,431,1041640,0.0-225.0-1.0,null,,,<p></p>,null,,,,,,,,,,,,,,
,do_trial,432,1044655,0.0-226.0-0.0,513.2999999523163,,,,,,50,0,1,0,4,countryside,162,0.1748416225258536,0.5109217062942937,0.426529424579586,1,learn,,,
,html-keyboard-response,433,1045656,0.0-226.0-1.0,null,,,<p></p>,null,,,,,,,,,,,,,,
,do_trial,434,1048624,0.0-227.0-0.0,465.2999999523163,,,,,,50,1,1,1,4,countryside,163,0.23812840996285878,0.38228698564224767,0.4545392262547334,1,learn,,,
,html-keyboard-response,435,1049625,0.0-227.0-1.0,null,,,<p></p>,null,,,,,,,,,,,,,,
,do_trial,436,1052705,0.0-228.0-0.0,578.5,,,,,,50,1,0,0,4,countryside,164,0.14248133109833236,0.2736589289153913,0.37751964003593386,0,learn,,,
,html-keyboard-response,437,1053707,0.0-228.0-1.0,null,,,<p></p>,null,,,,,,,,,,,,,,
,do_trial,438,1056738,0.0-229.0-0.0,528.8000000715256,,,,,,50,0,0,0,4,countryside,165,0.22519281627102186,0.09959920685720175,0.3464660219087509,0,learn,,,
,html-keyboard-response,439,1057739,0.0-229.0-1.0,null,,,<p></p>,null,,,,,,,,,,,,,,
,do_trial,440,1060581,0.0-230.0-0.0,339.39999997615814,,,,,,50,0,1,0,4,countryside,166,0.3060221309189909,0.129617137893204,0.4174483011544768,1,learn,,,
,html-keyboard-response,441,1061582,0.0-230.0-1.0,null,,,<p></p>,null,,,,,,,,,,,,,,
,do_trial,442,1064819,0.0-231.0-0.0,734.2999999523163,,,,,,50,0,0,0,4,countryside,167,0.39844778124213387,0.21906801903489714,0.6291155756076868,0,learn,,,
,html-keyboard-response,443,1065821,0.0-231.0-1.0,null,,,<p></p>,null,,,,,,,,,,,,,,
,do_trial,444,1068831,0.0-232.0-0.0,509.1999999284744,,,,,,50,0,0,1,4,countryside,168,0.36251863589770916,0.1373749734244285,0.726312523753354,0,learn,,,
,html-keyboard-response,445,1069832,0.0-232.0-1.0,null,,,<p></p>,null,,,,,,,,,,,,,,
,do_trial,446,1072706,0.0-233.0-0.0,373.10000002384186,,,,,,50,0,0,1,4,countryside,169,0.3443450116237804,0.14948874656420139,0.7448848778541977,0,learn,,,
,html-keyboard-response,447,1073708,0.0-233.0-1.0,null,,,<p></p>,null,,,,,,,,,,,,,,
,do_trial,448,1076660,0.0-234.0-0.0,450.2999999523163,,,,,,51,1,0,1,4,countryside,170,0.262065156612261,0.12294238609844813,0.5348400546378153,1,learn,,,
,html-keyboard-response,449,1077661,0.0-234.0-1.0,null,,,<p></p>,null,,,,,,,,,,,,,,
,do_trial,450,1080648,0.0-235.0-0.0,486,,,,,,51,0,0,0,4,countryside,171,0.25442488380679235,0.14446812281179178,0.5838359420730588,0,learn,,,
,html-keyboard-response,451,1081649,0.0-235.0-1.0,null,,,<p></p>,null,,,,,,,,,,,,,,
,do_trial,452,1084606,0.0-236.0-0.0,456,,,,,,51,0,0,1,4,countryside,172,0.31271697110931096,0.11672753541265511,0.40292498867141424,1,learn,,,
,html-keyboard-response,453,1085607,0.0-236.0-1.0,null,,,<p></p>,null,,,,,,,,,,,,,,
,do_trial,454,1088658,0.0-237.0-0.0,549.5,,,,,,51,1,0,0,4,countryside,173,0.36540497702834296,0.09769888764716816,0.4865937225300212,0,learn,,,
,html-keyboard-response,455,1089659,0.0-237.0-1.0,null,,,<p></p>,null,,,,,,,,,,,,,,
,do_trial,456,1093010,0.0-238.0-0.0,847.6000000238419,,,,,,51,1,0,0,4,countryside,174,0.41399119203733775,0.17596386457102292,0.45660604174329,0,learn,,,
,html-keyboard-response,457,1094011,0.0-238.0-1.0,null,,,<p></p>,null,,,,,,,,,,,,,,
,do_trial,458,1097458,0.0-239.0-0.0,946,,,,,,49,0,0,0,4,countryside,175,0.27497475991761894,0.26427842505831506,0.44090221912664457,0,learn,,,
,html-keyboard-response,459,1098469,0.0-239.0-1.0,null,,,<p></p>,null,,,,,,,,,,,,,,
,do_trial,460,1101332,0.0-240.0-0.0,361.8000000715256,,,,,,50,1,1,0,4,countryside,176,0.39619014614433734,0.17397139498165917,0.5545230761380305,1,learn,,,
,html-keyboard-response,461,1102333,0.0-240.0-1.0,null,,,<p></p>,null,,,,,,,,,,,,,,
,do_trial,462,1105164,0.0-241.0-0.0,328.89999997615814,,,,,,50,0,0,1,4,countryside,177,0.4197079257614374,0.093294229692242,0.5041885755239479,0,learn,,,
,html-keyboard-response,463,1106165,0.0-241.0-1.0,null,,,<p></p>,null,,,,,,,,,,,,,,
,do_trial,464,1108981,0.0-242.0-0.0,313.60000002384186,,,,,,50,0,0,0,4,countryside,178,0.4129639307885027,0.0944439564658075,0.39737518684254264,0,learn,,,
,html-keyboard-response,465,1109982,0.0-242.0-1.0,null,,,<p></p>,null,,,,,,,,,,,,,,
,do_trial,466,1112800,0.0-243.0-0.0,316.89999997615814,,,,,,50,1,1,1,4,countryside,179,0.4712526858651131,0.1547385998117323,0.5203355354769263,1,learn,,,
,html-keyboard-response,467,1113801,0.0-243.0-1.0,null,,,<p></p>,null,,,,,,,,,,,,,,
,do_trial,468,1116874,0.0-244.0-0.0,571.2000000476837,,,,,,50,0,0,1,4,countryside,180,0.42424180053244587,0.10408780500192873,0.7357926040272803,0,learn,,,
,html-keyboard-response,469,1117876,0.0-244.0-1.0,null,,,<p></p>,null,,,,,,,,,,,,,,
,do_trial,470,1120808,0.0-245.0-0.0,429.2000000476837,,,,,,51,0,1,1,4,countryside,181,0.21624847735207617,0.2393984349208025,0.7697701280900191,1,learn,,,
,html-keyboard-response,471,1121810,0.0-245.0-1.0,null,,,<p></p>,null,,,,,,,,,,,,,,
,do_trial,472,1124846,0.0-246.0-0.0,534,,,,,,51,0,0,1,4,countryside,182,0.2099605545821399,0.23566567188881135,0.7014775600488341,1,learn,,,
,html-keyboard-response,473,1125847,0.0-246.0-1.0,null,,,<p></p>,null,,,,,,,,,,,,,,
,do_trial,474,1129234,0.0-247.0-0.0,885.4000000953674,,,,,,51,0,0,1,4,countryside,183,0.1794071900916783,0.25400011712084486,0.4981534324867917,1,learn,,,
,html-keyboard-response,475,1130235,0.0-247.0-1.0,null,,,<p></p>,null,,,,,,,,,,,,,,
,do_trial,476,1133601,0.0-248.0-0.0,864.8999999761581,,,,,,51,0,0,1,4,countryside,184,0.15425628134091457,0.15941605667911027,0.516128549570244,1,learn,,,
,html-keyboard-response,477,1134602,0.0-248.0-1.0,null,,,<p></p>,null,,,,,,,,,,,,,,
,do_trial,478,1137558,0.0-249.0-0.0,453.39999997615814,,,,,,51,1,0,0,4,countryside,185,0.3525706871665335,0.11456419236917449,0.6342093190407856,0,learn,,,
,html-keyboard-response,479,1138560,0.0-249.0-1.0,null,,,<p></p>,null,,,,,,,,,,,,,,
,do_trial,480,1141485,0.0-250.0-0.0,422.39999997615814,,,,,,51,1,0,1,4,countryside,186,0.4905109811008928,0.1648918941643138,0.4999837041257621,1,learn,,,
,html-keyboard-response,481,1142485,0.0-250.0-1.0,null,,,<p></p>,null,,,,,,,,,,,,,,
,do_trial,482,1145422,0.0-251.0-0.0,434.60000002384186,,,,,,51,1,1,1,4,countryside,187,0.4181434461431365,0.17098149105024438,0.477498945911717,1,learn,,,
,html-keyboard-response,483,1146424,0.0-251.0-1.0,null,,,<p></p>,null,,,,,,,,,,,,,,
,do_trial,484,1149493,0.0-252.0-0.0,567.1000000238419,,,,,,51,1,0,1,4,countryside,188,0.33358176605075307,0.16173008472646574,0.6179891006141077,1,learn,,,
,html-keyboard-response,485,1150494,0.0-252.0-1.0,null,,,<p></p>,null,,,,,,,,,,,,,,
,do_trial,486,1153568,0.0-253.0-0.0,571.3000000715256,,,,,,51,1,0,1,4,countryside,189,0.4660090516576729,0.10307607775489952,0.5099828948263518,1,learn,,,
,html-keyboard-response,487,1154569,0.0-253.0-1.0,null,,,<p></p>,null,,,,,,,,,,,,,,
,do_bye,488,1156076,0.0-254.0-0.0,null,,,,,,null,,,,,,,,,,,,
,do_travel,489,1165078,0.0-255.0-0.0,null,,,,,,null,,,,,,,,,,,,
,do_welcome,490,1169085,0.0-255.0-1.0,null,,,,,,null,,,,,,,,,,,,
,do_trial,491,1172627,0.0-256.0-0.0,1039.3000000715256,,,,,,49,1,0,1,5,city,190,0.3031784352137096,0.19330424634100532,1,1,learn,,,
,html-keyboard-response,492,1173628,0.0-256.0-1.0,null,,,<p></p>,null,,,,,,,,,,,,,,
,do_trial,493,1176918,0.0-257.0-0.0,788.8000000715256,,,,,,49,0,0,1,5,city,191,0.28905132197967265,0.17131747412450718,1,0,learn,,,
,html-keyboard-response,494,1177920,0.0-257.0-1.0,null,,,<p></p>,null,,,,,,,,,,,,,,
,do_trial,495,1181125,0.0-258.0-0.0,702.8999999761581,,,,,,49,1,0,1,5,city,192,0.5096397283335478,0.21385644419779185,0.8074648258451593,1,learn,,,
,html-keyboard-response,496,1182126,0.0-258.0-1.0,null,,,<p></p>,null,,,,,,,,,,,,,,
,do_trial,497,1185197,0.0-259.0-0.0,569.8000000715256,,,,,,49,1,0,1,5,city,193,0.4046031143641977,0.1785174921911965,0.763171437725667,1,learn,,,
,html-keyboard-response,498,1186198,0.0-259.0-1.0,null,,,<p></p>,null,,,,,,,,,,,,,,
,do_trial,499,1189316,0.0-260.0-0.0,616.3999999761581,,,,,,49,1,0,1,5,city,194,0.3795822326274689,0.07806165405617455,0.678502840859747,1,learn,,,
,html-keyboard-response,500,1190317,0.0-260.0-1.0,null,,,<p></p>,null,,,,,,,,,,,,,,
,do_trial,501,1193337,0.0-261.0-0.0,517.1000000238419,,,,,,49,0,0,1,5,city,195,0.30321881560931346,0.1948063745510411,0.7545821298573171,0,learn,,,
,html-keyboard-response,502,1194338,0.0-261.0-1.0,null,,,<p></p>,null,,,,,,,,,,,,,,
,do_trial,503,1197385,0.0-262.0-0.0,544.7000000476837,,,,,,49,0,0,1,5,city,196,0.3494282032644561,0.13792289017224332,0.6829445724531119,0,learn,,,
,html-keyboard-response,504,1198387,0.0-262.0-1.0,null,,,<p></p>,null,,,,,,,,,,,,,,
,do_trial,505,1201244,0.0-263.0-0.0,356.3000000715256,,,,,,49,0,0,1,5,city,197,0.19905456904075414,0.20328625246468413,0.647508179524704,0,learn,,,
,html-keyboard-response,506,1202246,0.0-263.0-1.0,null,,,<p></p>,null,,,,,,,,,,,,,,
,do_trial,507,1205112,0.0-264.0-0.0,364.7999999523163,,,,,,50,0,0,1,5,city,198,0.13633353683258873,0.09786928655009558,0.6383394920953743,0,learn,,,
,html-keyboard-response,508,1206114,0.0-264.0-1.0,null,,,<p></p>,null,,,,,,,,,,,,,,
,do_trial,509,1209068,0.0-265.0-0.0,452.60000002384186,,,,,,51,0,0,1,5,city,199,0.18151481756122395,0.12358019417140924,0.5679746245582703,1,learn,,,
,html-keyboard-response,510,1210070,0.0-265.0-1.0,null,,,<p></p>,null,,,,,,,,,,,,,,
,do_trial,511,1213100,0.0-266.0-0.0,528.1000000238419,,,,,,51,0,0,1,5,city,200,0.2831758132656298,0.13585581374181444,0.5680132731259642,1,learn,,,
,html-keyboard-response,512,1214102,0.0-266.0-1.0,null,,,<p></p>,null,,,,,,,,,,,,,,
,do_trial,513,1216934,0.0-267.0-0.0,330.89999997615814,,,,,,51,0,0,0,5,city,201,0.3444303551017402,0.26803308553318195,0.5643315716883212,0,learn,,,
,html-keyboard-response,514,1217935,0.0-267.0-1.0,null,,,<p></p>,null,,,,,,,,,,,,,,
,do_trial,515,1220801,0.0-268.0-0.0,364.3000000715256,,,,,,51,0,1,0,5,city,202,0.434542523217194,0.2656391990539913,0.40641071285801583,0,learn,,,
,html-keyboard-response,516,1221803,0.0-268.0-1.0,null,,,<p></p>,null,,,,,,,,,,,,,,
,do_trial,517,1224646,0.0-269.0-0.0,340.5,,,,,,51,1,1,1,5,city,203,0.5389296828619695,0.21977343357315246,0.3588473930296296,1,learn,,,
,html-keyboard-response,518,1225647,0.0-269.0-1.0,null,,,<p></p>,null,,,,,,,,,,,,,,
,do_trial,519,1228592,0.0-270.0-0.0,442.7000000476837,,,,,,51,1,0,1,5,city,204,0.6332142889389912,0.254808627732599,0.3195701428742539,1,learn,,,
,html-keyboard-response,520,1229593,0.0-270.0-1.0,null,,,<p></p>,null,,,,,,,,,,,,,,
,do_trial,521,1232378,0.0-271.0-0.0,284.10000002384186,,,,,,51,0,0,0,5,city,205,0.5791132135192115,0.1857021168279156,0.15715616114203645,0,learn,,,
,html-keyboard-response,522,1233380,0.0-271.0-1.0,null,,,<p></p>,null,,,,,,,,,,,,,,
,do_trial,523,1236212,0.0-272.0-0.0,329.89999997615814,,,,,,51,1,0,0,5,city,206,0.6221298530338318,0.22716186333427543,0.2912121859401425,0,learn,,,
,html-keyboard-response,524,1237214,0.0-272.0-1.0,null,,,<p></p>,null,,,,,,,,,,,,,,
,do_trial,525,1239972,0.0-273.0-0.0,256.5,,,,,,51,1,0,1,5,city,207,0.6555049958086474,0.3522879177840999,0.3839294049948549,1,learn,,,
,html-keyboard-response,526,1240973,0.0-273.0-1.0,null,,,<p></p>,null,,,,,,,,,,,,,,
,do_trial,527,1243891,0.0-274.0-0.0,416.5,,,,,,51,0,0,1,5,city,208,0.6171591526924576,0.25147267846737004,0.22539697422002444,1,learn,,,
,html-keyboard-response,528,1244892,0.0-274.0-1.0,null,,,<p></p>,null,,,,,,,,,,,,,,
,do_trial,529,1247708,0.0-275.0-0.0,314.7999999523163,,,,,,51,0,0,0,5,city,209,0.6799710352187213,0.07258188504165126,0.17442327011030412,0,learn,,,
,html-keyboard-response,530,1248709,0.0-275.0-1.0,null,,,<p></p>,null,,,,,,,,,,,,,,
,do_trial,531,1251619,0.0-276.0-0.0,408.60000002384186,,,,,,51,1,0,0,5,city,210,0.8475335284973176,0.05184161069967898,0.13909315270036615,0,learn,,,
,html-keyboard-response,532,1252620,0.0-276.0-1.0,null,,,<p></p>,null,,,,,,,,,,,,,,
,do_trial,533,1255514,0.0-277.0-0.0,391.8000000715256,,,,,,51,1,0,0,5,city,211,0.7750561701988317,0.12456248753345948,0.08302396325392412,0,learn,,,
,html-keyboard-response,534,1256515,0.0-277.0-1.0,null,,,<p></p>,null,,,,,,,,,,,,,,
,do_trial,535,1259372,0.0-278.0-0.0,355.8000000715256,,,,,,49,1,0,0,5,city,212,0.756058701183679,0.16741378948838345,0.2671903336041269,1,learn,,,
,html-keyboard-response,536,1260375,0.0-278.0-1.0,null,,,<p></p>,null,,,,,,,,,,,,,,
,do_trial,537,1263228,0.0-279.0-0.0,352.3000000715256,,,,,,49,0,0,0,5,city,213,0.6941552368261268,0.16299711841920902,0.13820254379240385,0,learn,,,
,html-keyboard-response,538,1264234,0.0-279.0-1.0,null,,,<p></p>,null,,,,,,,,,,,,,,
,do_trial,539,1267273,0.0-280.0-0.0,537.3000000715256,,,,,,49,1,1,0,5,city,214,0.6533696051597165,0.19977775764769465,0.1230010075801149,1,learn,,,
,html-keyboard-response,540,1268275,0.0-280.0-1.0,null,,,<p></p>,null,,,,,,,,,,,,,,
,do_trial,541,1271229,0.0-281.0-0.0,453,,,,,,49,0,1,0,5,city,215,0.7308958473712532,0.2406475242945447,0.17454534935319838,0,learn,,,
,html-keyboard-response,542,1272229,0.0-281.0-1.0,null,,,<p></p>,null,,,,,,,,,,,,,,
,do_trial,543,1275083,0.0-282.0-0.0,351.3000000715256,,,,,,49,0,1,1,5,city,216,0.6928352546900841,0.31459942276018543,0.15338549291709902,0,learn,,,
,html-keyboard-response,544,1276084,0.0-282.0-1.0,null,,,<p></p>,null,,,,,,,,,,,,,,
,do_trial,545,1278974,0.0-283.0-0.0,388.89999997615814,,,,,,49,0,0,0,5,city,217,0.6629503237962612,0.2972967727113915,0.16615917957847554,0,learn,,,
,html-keyboard-response,546,1279975,0.0-283.0-1.0,null,,,<p></p>,null,,,,,,,,,,,,,,
,do_trial,547,1282885,0.0-284.0-0.0,407.60000002384186,,,,,,50,1,1,0,5,city,218,0.6149814354030444,0.3066104430481288,0.05158558707032155,1,learn,,,
,html-keyboard-response,548,1283886,0.0-284.0-1.0,null,,,<p></p>,null,,,,,,,,,,,,,,
,do_trial,549,1286769,0.0-285.0-0.0,380.2999999523163,,,,,,50,1,1,0,5,city,219,0.648320076757756,0.2632840066673989,0.10070571948637644,1,learn,,,
,html-keyboard-response,550,1287771,0.0-285.0-1.0,null,,,<p></p>,null,,,,,,,,,,,,,,
,do_trial,551,1290610,0.0-286.0-0.0,338.3000000715256,,,,,,50,0,0,1,5,city,220,0.7248547463483074,0.23699557929587742,0.19614162461906265,0,learn,,,
,html-keyboard-response,552,1291611,0.0-286.0-1.0,null,,,<p></p>,null,,,,,,,,,,,,,,
,do_trial,553,1294499,0.0-287.0-0.0,386.10000002384186,,,,,,50,1,0,0,5,city,221,0.7160528923429125,0.24753508596811405,0.15306736808472507,0,learn,,,
,html-keyboard-response,554,1295500,0.0-287.0-1.0,null,,,<p></p>,null,,,,,,,,,,,,,,
,do_trial,555,1298359,0.0-288.0-0.0,353.7999999523163,,,,,,50,1,1,0,5,city,222,0.7199232683880201,0.2146196720698219,0.05603509243220402,1,learn,,,
,html-keyboard-response,556,1299361,0.0-288.0-1.0,null,,,<p></p>,null,,,,,,,,,,,,,,
,do_trial,557,1302451,0.0-289.0-0.0,588.2000000476837,,,,,,50,1,0,0,5,city,223,0.7340519530297737,0.27532876055149064,0.1120468073898977,0,learn,,,
,html-keyboard-response,558,1303452,0.0-289.0-1.0,null,,,<p></p>,null,,,,,,,,,,,,,,
,do_trial,559,1306435,0.0-290.0-0.0,481.7000000476837,,,,,,50,1,0,0,5,city,224,0.8300292616486917,0.4045075623295436,0.18952587647622768,0,learn,,,
,html-keyboard-response,560,1307437,0.0-290.0-1.0,null,,,<p></p>,null,,,,,,,,,,,,,,
,do_trial,561,1310310,0.0-291.0-0.0,370.7000000476837,,,,,,50,1,0,0,5,city,225,0.677471643259115,0.3074337892474833,0.274466443629517,0,learn,,,
,html-keyboard-response,562,1311311,0.0-291.0-1.0,null,,,<p></p>,null,,,,,,,,,,,,,,
,do_trial,563,1314466,0.0-292.0-0.0,652.8999999761581,,,,,,51,1,1,0,5,city,226,0.6896917713627657,0.3386402754558174,0.26337894900054,0,learn,,,
,html-keyboard-response,564,1315466,0.0-292.0-1.0,null,,,<p></p>,null,,,,,,,,,,,,,,
,do_trial,565,1318586,0.0-293.0-0.0,617.7999999523163,,,,,,51,1,0,0,5,city,227,0.6927363738545524,0.4265653114422671,0.22719700154302228,0,learn,,,
,html-keyboard-response,566,1319587,0.0-293.0-1.0,null,,,<p></p>,null,,,,,,,,,,,,,,
,do_trial,567,1322644,0.0-294.0-0.0,555.5,,,,,,51,0,1,0,5,city,228,0.5930390559931178,0.23723164280961753,0.13978915347637055,0,learn,,,
,html-keyboard-response,568,1323646,0.0-294.0-1.0,null,,,<p></p>,null,,,,,,,,,,,,,,
,do_trial,569,1326477,0.0-295.0-0.0,330.2000000476837,,,,,,51,1,1,0,5,city,229,0.675017038157233,0.18831291434784056,0.05960920727981829,0,learn,,,
,html-keyboard-response,570,1327478,0.0-295.0-1.0,null,,,<p></p>,null,,,,,,,,,,,,,,
,do_bye,571,1328980,0.0-296.0-0.0,null,,,,,,null,,,,,,,,,,,,
,html-keyboard-response,572,1330955,0.0-296.0-1.0,1974.7000000476837,,,<div class=center><p>Nice job plundering!</p><p>Press <b>space</b> to head back to pirate HQ.</p></div>,32,,,,,,,,,,,,,,
,html-keyboard-response,573,1338057,0.0-297.0-0.0,7099.899999976158,,,<div class=center><p>We have to sail past the islands again to get back to pirate HQ. We've just got wind that there is a huge storm approaching, so while we are going to stop at each island, we won't have time to see if our plunders are successful or not.</p><p>Press <b>space</b> to continue.</p></div>,32,,,,,,,,,,,,,,
,judgement_attention_check,574,1342154,0.0-298.0-0.0,4096.299999952316,,,<div class='center'><p>Press <b>Z</b> to use the telescope to see what island is coming next!</p></div>,90,,,,,,,,,,,,0,true,
,do_welcome,575,1347156,0.0-298.0-1.0,null,,,,,,null,,,,,,,,,,,,
,do_trial,576,1353157,0.0-299.0-0.0,null,,,,,,null,0,0,0,0,forest,230,,,,,judgement,,,
,html-keyboard-response,577,1354159,0.0-299.0-1.0,null,,,<p></p>,null,,,,,,,,,,,,,,
,do_trial,578,1359376,0.0-300.0-0.0,715.5,,,,,,49,1,0,0,0,forest,231,,,,1,judgement,,,
,html-keyboard-response,579,1360377,0.0-300.0-1.0,null,,,<p></p>,null,,,,,,,,,,,,,,
,do_trial,580,1366213,0.0-301.0-0.0,1334.6000000238419,,,,,,49,1,0,0,0,forest,232,,,,1,judgement,,,
,html-keyboard-response,581,1367215,0.0-301.0-1.0,null,,,<p></p>,null,,,,,,,,,,,,,,
,do_trial,582,1372362,0.0-302.0-0.0,646.1000000238419,,,,,,49,0,1,0,0,forest,233,,,,0,judgement,,,
,html-keyboard-response,583,1373364,0.0-302.0-1.0,null,,,<p></p>,null,,,,,,,,,,,,,,
,do_trial,584,1378652,0.0-303.0-0.0,786.3000000715256,,,,,,49,0,0,0,0,forest,234,,,,0,judgement,,,
,html-keyboard-response,585,1379652,0.0-303.0-1.0,null,,,<p></p>,null,,,,,,,,,,,,,,
,html-keyboard-response,586,1379653,0.0-304.0-0.0,null,,,,null,,,,,,,,,,,,,,
,judgement_attention_check,587,1382162,0.0-305.0-0.0,2508.8000000715256,,,<div class='center'><p>Press <b>Z</b> to use the telescope to see what island is coming next!</p></div>,90,,,,,,,,,,,,1,true,
,do_welcome,588,1387165,0.0-305.0-1.0,null,,,,,,null,,,,,,,,,,,,
,do_trial,589,1393819,0.0-306.0-0.0,2151.899999976158,,,,,,50,0,0,1,1,highway,235,,,,0,judgement,,,
,html-keyboard-response,590,1394819,0.0-306.0-1.0,null,,,<p></p>,null,,,,,,,,,,,,,,
,do_trial,591,1400690,0.0-307.0-0.0,1368.9000000953674,,,,,,49,0,1,0,1,highway,236,,,,0,judgement,,,
,html-keyboard-response,592,1401690,0.0-307.0-1.0,null,,,<p></p>,null,,,,,,,,,,,,,,
,do_trial,593,1406570,0.0-308.0-0.0,378.5,,,,,,49,1,1,0,1,highway,237,,,,1,judgement,,,
,html-keyboard-response,594,1407572,0.0-308.0-1.0,null,,,<p></p>,null,,,,,,,,,,,,,,
,do_trial,595,1412485,0.0-309.0-0.0,411.10000002384186,,,,,,49,1,0,1,1,highway,238,,,,1,judgement,,,
,html-keyboard-response,596,1413486,0.0-309.0-1.0,null,,,<p></p>,null,,,,,,,,,,,,,,
,do_trial,597,1418796,0.0-310.0-0.0,806.5,,,,,,49,0,0,1,1,highway,239,,,,0,judgement,,,
,html-keyboard-response,598,1419797,0.0-310.0-1.0,null,,,<p></p>,null,,,,,,,,,,,,,,
,html-keyboard-response,599,1419797,0.0-311.0-0.0,null,,,,null,,,,,,,,,,,,,,
,judgement_attention_check,600,1421557,0.0-312.0-0.0,1759.1000000238419,,,<div class='center'><p>Press <b>Z</b> to use the telescope to see what island is coming next!</p></div>,90,,,,,,,,,,,,2,true,
,do_welcome,601,1426559,0.0-312.0-1.0,null,,,,,,null,,,,,,,,,,,,
,do_trial,602,1431729,0.0-313.0-0.0,668.5,,,,,,50,1,0,0,2,coast,240,,,,0,judgement,,,
,html-keyboard-response,603,1432729,0.0-313.0-1.0,null,,,<p></p>,null,,,,,,,,,,,,,,
,do_trial,604,1437671,0.0-314.0-0.0,439.39999997615814,,,,,,50,0,1,1,2,coast,241,,,,1,judgement,,,
,html-keyboard-response,605,1438672,0.0-314.0-1.0,null,,,<p></p>,null,,,,,,,,,,,,,,
,do_trial,606,1443655,0.0-315.0-0.0,481.7999999523163,,,,,,50,0,0,0,2,coast,242,,,,0,judgement,,,
,html-keyboard-response,607,1444656,0.0-315.0-1.0,null,,,<p></p>,null,,,,,,,,,,,,,,
,do_trial,608,1449720,0.0-316.0-0.0,562.7000000476837,,,,,,51,0,0,1,2,coast,243,,,,1,judgement,,,
,html-keyboard-response,609,1450721,0.0-316.0-1.0,null,,,<p></p>,null,,,,,,,,,,,,,,
,do_trial,610,1455802,0.0-317.0-0.0,578.5,,,,,,51,0,0,0,2,coast,244,,,,0,judgement,,,
,html-keyboard-response,611,1456802,0.0-317.0-1.0,null,,,<p></p>,null,,,,,,,,,,,,,,
,html-keyboard-response,612,1456803,0.0-318.0-0.0,null,,,,null,,,,,,,,,,,,,,
,judgement_attention_check,613,1458585,0.0-319.0-0.0,1782.1000000238419,,,<div class='center'><p>Press <b>Z</b> to use the telescope to see what island is coming next!</p></div>,90,,,,,,,,,,,,3,true,
,do_welcome,614,1463587,0.0-319.0-1.0,null,,,,,,null,,,,,,,,,,,,
,do_trial,615,1468889,0.0-320.0-0.0,799.7000000476837,,,,,,50,0,1,0,3,mountain,245,,,,1,judgement,,,
,html-keyboard-response,616,1469890,0.0-320.0-1.0,null,,,<p></p>,null,,,,,,,,,,,,,,
,do_trial,617,1474828,0.0-321.0-0.0,436.2000000476837,,,,,,50,1,0,0,3,mountain,246,,,,0,judgement,,,
,html-keyboard-response,618,1475828,0.0-321.0-1.0,null,,,<p></p>,null,,,,,,,,,,,,,,
,do_trial,619,1480825,0.0-322.0-0.0,494.60000002384186,,,,,,50,0,0,0,3,mountain,247,,,,0,judgement,,,
,html-keyboard-response,620,1481825,0.0-322.0-1.0,null,,,<p></p>,null,,,,,,,,,,,,,,
,do_trial,621,1486849,0.0-323.0-0.0,516.5,,,,,,50,1,1,0,3,mountain,248,,,,1,judgement,,,
,html-keyboard-response,622,1487851,0.0-323.0-1.0,null,,,<p></p>,null,,,,,,,,,,,,,,
,do_trial,623,1492695,0.0-324.0-0.0,342.2999999523163,,,,,,50,0,0,1,3,mountain,249,,,,0,judgement,,,
,html-keyboard-response,624,1493696,0.0-324.0-1.0,null,,,<p></p>,null,,,,,,,,,,,,,,
,html-keyboard-response,625,1493696,0.0-325.0-0.0,null,,,,null,,,,,,,,,,,,,,
,judgement_attention_check,626,1495530,0.0-326.0-0.0,1833.3999999761581,,,<div class='center'><p>Press <b>Z</b> to use the telescope to see what island is coming next!</p></div>,90,,,,,,,,,,,,4,true,
,do_welcome,627,1500532,0.0-326.0-1.0,null,,,,,,null,,,,,,,,,,,,
,do_trial,628,1505608,0.0-327.0-0.0,574.2999999523163,,,,,,50,1,1,0,4,countryside,250,,,,1,judgement,,,
,html-keyboard-response,629,1506609,0.0-327.0-1.0,null,,,<p></p>,null,,,,,,,,,,,,,,
,do_trial,630,1511475,0.0-328.0-0.0,364.39999997615814,,,,,,50,0,1,0,4,countryside,251,,,,1,judgement,,,
,html-keyboard-response,631,1512476,0.0-328.0-1.0,null,,,<p></p>,null,,,,,,,,,,,,,,
,do_trial,632,1517428,0.0-329.0-0.0,449.7000000476837,,,,,,51,0,1,1,4,countryside,252,,,,1,judgement,,,
,html-keyboard-response,633,1518429,0.0-329.0-1.0,null,,,<p></p>,null,,,,,,,,,,,,,,
,do_trial,634,1523360,0.0-330.0-0.0,429.90000009536743,,,,,,51,1,0,1,4,countryside,253,,,,1,judgement,,,
,html-keyboard-response,635,1524361,0.0-330.0-1.0,null,,,<p></p>,null,,,,,,,,,,,,,,
,do_trial,636,1529647,0.0-331.0-0.0,774.3000000715256,,,,,,51,0,0,1,4,countryside,254,,,,1,judgement,,,
,html-keyboard-response,637,1530648,0.0-331.0-1.0,null,,,<p></p>,null,,,,,,,,,,,,,,
,html-keyboard-response,638,1530649,0.0-332.0-0.0,null,,,,null,,,,,,,,,,,,,,
,judgement_attention_check,639,1532433,0.0-333.0-0.0,1783.7000000476837,,,<div class='center'><p>Press <b>Z</b> to use the telescope to see what island is coming next!</p></div>,90,,,,,,,,,,,,5,true,
,do_welcome,640,1537438,0.0-333.0-1.0,null,,,,,,null,,,,,,,,,,,,
,do_trial,641,1543309,0.0-334.0-0.0,1368.7000000476837,,,,,,50,1,0,1,5,city,255,,,,0,judgement,,,
,html-keyboard-response,642,1544310,0.0-334.0-1.0,null,,,<p></p>,null,,,,,,,,,,,,,,
,do_trial,643,1549823,0.0-335.0-0.0,1011.3000000715256,,,,,,51,0,0,0,5,city,256,,,,0,judgement,,,
,html-keyboard-response,644,1550824,0.0-335.0-1.0,null,,,<p></p>,null,,,,,,,,,,,,,,
,do_trial,645,1555911,0.0-336.0-0.0,584.7000000476837,,,,,,51,0,0,1,5,city,257,,,,1,judgement,,,
,html-keyboard-response,646,1556912,0.0-336.0-1.0,null,,,<p></p>,null,,,,,,,,,,,,,,
,do_trial,647,1562472,0.0-337.0-0.0,1058.6000000238419,,,,,,51,1,0,1,5,city,258,,,,1,judgement,,,
,html-keyboard-response,648,1563474,0.0-337.0-1.0,null,,,<p></p>,null,,,,,,,,,,,,,,
,do_trial,649,1568422,0.0-338.0-0.0,446.2000000476837,,,,,,51,1,0,1,5,city,259,,,,1,judgement,,,
,html-keyboard-response,650,1569423,0.0-338.0-1.0,null,,,<p></p>,null,,,,,,,,,,,,,,
,html-keyboard-response,651,1571210,0.0-339.0-0.0,1786.7000000476837,,,<div style='position: fixed; top: 0; left: 0; width: 100%; height: 100%; background-color: white; display: flex; align-items: center; justify-content: center;'><div><h2>We've made it to Pirate HQ!</h2><p>Press <b>space</b> to proceed.</p></div></div>,32,,,,,,,,,,,,,,
,do_pick_best_pirate,652,1576984,0.0-340.0-0.0,4767.400000095367,,,,,,49,,0,,,,,,,,,,forest
,do_pick_secondBest_pirate,653,1582901,0.0-340.0-1.0,4913.399999976158,,,,,,51,,0,,,,,,,,,,forest
,do_pick_best_pirate,654,1588419,0.0-341.0-0.0,4515.200000047684,,,,,,49,,1,,,,,,,,,,highway
,do_pick_secondBest_pirate,655,1591858,0.0-341.0-1.0,2435.7999999523163,,,,,,51,,1,,,,,,,,,,highway
,do_pick_best_pirate,656,1596108,0.0-342.0-0.0,3247.600000023842,,,,,,49,,2,,,,,,,,,,coast
,do_pick_secondBest_pirate,657,1598111,0.0-342.0-1.0,1000.5,,,,,,51,,2,,,,,,,,,,coast
,do_pick_best_pirate,658,1600518,0.0-343.0-0.0,1402.5,,,,,,50,,3,,,,,,,,,,mountain
,do_pick_secondBest_pirate,659,1602822,0.0-343.0-1.0,1301.2999999523163,,,,,,51,,3,,,,,,,,,,mountain
,do_pick_best_pirate,660,1605995,0.0-344.0-0.0,2170.100000023842,,,,,,50,,4,,,,,,,,,,countryside
,do_pick_secondBest_pirate,661,1607546,0.0-344.0-1.0,549.1999999284744,,,,,,51,,4,,,,,,,,,,countryside
,do_pick_best_pirate,662,1611173,0.0-345.0-0.0,2623.4000000953674,,,,,,51,,5,,,,,,,,,,city
,do_pick_secondBest_pirate,663,1615492,0.0-345.0-1.0,3316.7999999523163,,,,,,49,,5,,,,,,,,,,city
