success,trial_type,trial_index,time_elapsed,internal_node_id,rt,responses,subject_id,stimulus,key_press,prompt,response,choice_outcomes,context_n,context_img_id,trial_n,pR_red,pR_white,pR_black,outcome,phase,island_num,passed,context_im
true,fullscreen,0,3740,0.0-0.0,,,,,,,,,,,,,,,,,,,
,survey-html-form,1,10726,0.0-1.0,6983.5,{worker_id:6759952d860b4c0446698f2c},6759952d860b4c0446698f2c,,,,,,,,,,,,,,,,
,instruc1,2,12728,0.0-2.0,null,,6759952d860b4c0446698f2c,<div class='center'><p>Welcome! This study will last ~30 minutes. After the instructions there will be a practice game and quiz to make sure you understand the task. Today you will be the head captain of a pirate ship traveling around the world to different islands. Here is an overview of what you will be doing:</p><br><p> 1. Try to find the most successful pirate on 6 different islands</p><p> 2. Recall which pirates did the best on each island</p><br><p>,null,<div class='center'><p>Welcome! This study will last ~30 minutes. After the instructions there will be a practice game and quiz to make sure you understand the task. Today you will be the head captain of a pirate ship traveling around the world to different islands. Here is an overview of what you will be doing:</p><br><p> 1. Try to find the most successful pirate on 6 different islands</p><p> 2. Recall which pirates did the best on each island</p><br><p>,,,,,,,,,,,,,
,html-keyboard-response,3,21295,0.0-3.0,8564.90000000596,,,<div class='center'><p>Welcome! This study will last ~30 minutes. After the instructions there will be a practice game and quiz to make sure you understand the task. Today you will be the head captain of a pirate ship traveling around the world to different islands. Here is an overview of what you will be doing:</p><br><p> 1. Try to find the most successful pirate on 6 different islands</p><p> 2. Recall which pirates did the best on each island</p><br><p><p><b>[Press the space bar to continue]</b></p></div>,32,,,,,,,,,,,,,,
,instruc2,4,23296,0.0-4.0,null,,,<div class='center'><p>You are going to visit these 6 islands on your journey. You'll be able to see these islands from your ship.</p><p><img src='../static/images/contexts/all_contexts.png' height='500'></p></div>,null,<div class='center'><p>You are going to visit these 6 islands on your journey. You'll be able to see these islands from your ship.</p><p><img src='../static/images/contexts/all_contexts.png' height='500'></p></div>,,,,,,,,,,,,,
,html-keyboard-response,5,26599,0.0-5.0,3301.199999988079,,,<div class='center'><p>You are going to visit these 6 islands on your journey. You'll be able to see these islands from your ship.</p><p><img src='../static/images/contexts/all_contexts.png' height='500'></p><p><b>[Press the space bar to continue]</b></p></div>,32,,,,,,,,,,,,,,
,instruc4,6,28600,0.0-6.0,null,,,<div class='center'><p>As the head captain, you do not have to rob any ships yourself. Another pirate will be doing the robbing for you. First, you will choose a pirate to rob the next ship.</p><p><img src='../static/images/tutorial/pirates_all_crop.png' height='200'></p><p>Then, you'll see if the pirate successfully robbed the ship of their gold. If they were successful, then you'll get a stack of gold coins like this:</p><p><img src='../static/images/tutorial/reward.png' height='150'></p><p> If they were <b>not</b> successful, then you'll get no gold coins, and you'll see a big red x like this: </p><p><img src='../static/images/tutorial/reward_no.png' height='150'></p><p> How much bonus money you make is based on how many gold coins you collect.</p><div>,null,<div class='center'><p>As the head captain, you do not have to rob any ships yourself. Another pirate will be doing the robbing for you. First, you will choose a pirate to rob the next ship.</p><p><img src='../static/images/tutorial/pirates_all_crop.png' height='200'></p><p>Then, you'll see if the pirate successfully robbed the ship of their gold. If they were successful, then you'll get a stack of gold coins like this:</p><p><img src='../static/images/tutorial/reward.png' height='150'></p><p> If they were <b>not</b> successful, then you'll get no gold coins, and you'll see a big red x like this: </p><p><img src='../static/images/tutorial/reward_no.png' height='150'></p><p> How much bonus money you make is based on how many gold coins you collect.</p><div>,,,,,,,,,,,,,
,html-keyboard-response,7,51573,0.0-7.0,22971.09999999404,,,<div class='center'><p>As the head captain, you do not have to rob any ships yourself. Another pirate will be doing the robbing for you. First, you will choose a pirate to rob the next ship.</p><p><img src='../static/images/tutorial/pirates_all_crop.png' height='200'></p><p>Then, you'll see if the pirate successfully robbed the ship of their gold. If they were successful, then you'll get a stack of gold coins like this:</p><p><img src='../static/images/tutorial/reward.png' height='150'></p><p> If they were <b>not</b> successful, then you'll get no gold coins, and you'll see a big red x like this: </p><p><img src='../static/images/tutorial/reward_no.png' height='150'></p><p> How much bonus money you make is based on how many gold coins you collect.</p><div><p><b>[Press the space bar to continue]</b></p></div>,32,,,,,,,,,,,,,,
,instruc5,8,68287,0.0-8.0,16712.19999998808,,,<div class='center'><p>Even the most skilled pirate can not rob EVERY ship.</p><p> Some ships will have very strong protections against pirate attacks.</p><p> Blue beard, here, is very, very good at robbing ships, but he won't be successful every time he tries to rob one.</p><p> You can press the <b>'1'</b> key on the keyboard to choose him.</p><p> Try choosing him 10 times to see how often he succeeds at robbing a ship. </p><p><img src='../static/images/tutorial/blue.png' height='500'></p></div>,49,<div class='center'><p>Even the most skilled pirate can not rob EVERY ship.</p><p> Some ships will have very strong protections against pirate attacks.</p><p> Blue beard, here, is very, very good at robbing ships, but he won't be successful every time he tries to rob one.</p><p> You can press the <b>'1'</b> key on the keyboard to choose him.</p><p> Try choosing him 10 times to see how often he succeeds at robbing a ship. </p><p><img src='../static/images/tutorial/blue.png' height='500'></p></div>,,,,,,,,,,,,,
,html-keyboard-response,9,69788,0.0-9.0,null,,,<div class='center'><p><img src='../static/images/tutorial/blue_win.png' height='500'></p></div>,null,,,,,,,,,,,,,,
,html-keyboard-response,10,71552,0.0-10.0,1763.300000011921,,,<div class='center'><img src='../static/images/tutorial/blue.png' height='500'></p></div>,49,,,,,,,,,,,,,,
,html-keyboard-response,11,73053,0.0-11.0,null,,,<div class='center'><p><img src='../static/images/tutorial/blue_win.png' height='500'></p></div>,null,,,,,,,,,,,,,,
,html-keyboard-response,12,73417,0.0-12.0,363.60000002384186,,,<div class='center'><img src='../static/images/tutorial/blue.png' height='500'></p></div>,49,,,,,,,,,,,,,,
,html-keyboard-response,13,74919,0.0-13.0,null,,,<div class='center'><p><img src='../static/images/tutorial/blue_win.png' height='500'></p></div>,null,,,,,,,,,,,,,,
,html-keyboard-response,14,75225,0.0-14.0,305.7999999821186,,,<div class='center'><img src='../static/images/tutorial/blue.png' height='500'></p></div>,49,,,,,,,,,,,,,,
,html-keyboard-response,15,76727,0.0-15.0,null,,,<div class='center'><p><img src='../static/images/tutorial/blue_no_win.png' height='500'></p></div>,null,,,,,,,,,,,,,,
,html-keyboard-response,16,77026,0.0-16.0,297.80000001192093,,,<div class='center'><img src='../static/images/tutorial/blue.png' height='500'></p></div>,49,,,,,,,,,,,,,,
,html-keyboard-response,17,78527,0.0-17.0,null,,,<div class='center'><p><img src='../static/images/tutorial/blue_win.png' height='500'></p></div>,null,,,,,,,,,,,,,,
,html-keyboard-response,18,88980,0.0-18.0,10452.5,,,<div class='center'><img src='../static/images/tutorial/blue.png' height='500'></p></div>,49,,,,,,,,,,,,,,
,html-keyboard-response,19,90482,0.0-19.0,null,,,<div class='center'><p><img src='../static/images/tutorial/blue_win.png' height='500'></p></div>,null,,,,,,,,,,,,,,
,html-keyboard-response,20,90937,0.0-20.0,454,,,<div class='center'><img src='../static/images/tutorial/blue.png' height='500'></p></div>,49,,,,,,,,,,,,,,
,html-keyboard-response,21,92438,0.0-21.0,null,,,<div class='center'><p><img src='../static/images/tutorial/blue_win.png' height='500'></p></div>,null,,,,,,,,,,,,,,
,html-keyboard-response,22,92840,0.0-22.0,401.40000000596046,,,<div class='center'><img src='../static/images/tutorial/blue.png' height='500'></p></div>,49,,,,,,,,,,,,,,
,html-keyboard-response,23,94342,0.0-23.0,null,,,<div class='center'><p><img src='../static/images/tutorial/blue_no_win.png' height='500'></p></div>,null,,,,,,,,,,,,,,
,html-keyboard-response,24,94886,0.0-24.0,543.6000000238419,,,<div class='center'><img src='../static/images/tutorial/blue.png' height='500'></p></div>,49,,,,,,,,,,,,,,
,html-keyboard-response,25,96387,0.0-25.0,null,,,<div class='center'><p><img src='../static/images/tutorial/blue_win.png' height='500'></p></div>,null,,,,,,,,,,,,,,
,html-keyboard-response,26,96826,0.0-26.0,438.19999998807907,,,<div class='center'><img src='../static/images/tutorial/blue.png' height='500'></p></div>,49,,,,,,,,,,,,,,
,html-keyboard-response,27,98328,0.0-27.0,null,,,<div class='center'><p><img src='../static/images/tutorial/blue_win.png' height='500'></p></div>,null,,,,,,,,,,,,,,
,instruc6,28,100329,0.0-28.0,null,,,<div class='center'><p> See, he succeeded in robbing the ships most of the time but not every time. </p></div>,null,<div class='center'><p> See, he succeeded in robbing the ships most of the time but not every time. </p></div>,,,,,,,,,,,,,
,html-keyboard-response,29,101904,0.0-29.0,1574.5999999940395,,,<div class='center'><p> See, he succeeded in robbing the ships most of the time but not every time. </p><p><b>[Press the space bar to continue]</b></p></div>,32,,,,,,,,,,,,,,
,html-keyboard-response,30,123349,0.0-30.0,21443.69999998808,,,<div class='center'><p>From these three pirates, you will get to choose which one you want to rob the next ship. <p>Press the <b>'1'</b> key on your keyboard to pick the pirate with the red beard.</p><p> Press <b>'2'</b> to pick the pirate with the white beard.</p><p> Press <b>'3'</b> to pick the pirate with the black beard.</p><p>Try picking a pirate now!</p><p><img src='../static/images/tutorial/all_pirates.png' height='500'></p></div>,49,,,,,,,,,,,,,,
,html-keyboard-response,31,125647,0.0-31.0-0.0,2297.4000000059605,,,<div class='center'><p>Yay! This pirate succeeded in robbing the ship!</p><p><img src='../static/images/tutorial/red_win.png' height='500'></p><p><b>[Press the space bar to continue]</b></p></div>,32,,,,,,,,,,,,,,
,html-keyboard-response,32,128014,0.0-31.0-1.0,2365.0999999940395,,,<div class='center'><p>Now try choosing another.</p><p><img src='../static/images/tutorial/all_pirates.png' height='500'></p></div>,50,,,,,,,,,,,,,,
,html-keyboard-response,33,130060,0.0-32.0-0.0,2044.8999999761581,,,<div class='center'><p>Oh no! This pirate did not succeed in robbing the ship.</p><p><img src='../static/images/tutorial/white_no_win.png' height='500'></p><p><b>[Press the space bar to continue]</b></p></div>,32,,,,,,,,,,,,,,
,instruc9,34,132062,0.0-33.0-0.0,null,,,<div class='center'><p>If you don't make your choice fast enough, you'll have to wait a few seconds before you can make another one. </p><p><img src='../static/images/miscellaneous/hurry_up.png' height='500'></p></div>,null,<div class='center'><p>If you don't make your choice fast enough, you'll have to wait a few seconds before you can make another one. </p><p><img src='../static/images/miscellaneous/hurry_up.png' height='500'></p></div>,,,,,,,,,,,,,
,html-keyboard-response,35,133240,0.0-33.0-1.0,1177.0999999940395,,,<div class='center'><p>If you don't make your choice fast enough, you'll have to wait a few seconds before you can make another one. </p><p><img src='../static/images/miscellaneous/hurry_up.png' height='500'></p><p><b>[Press the space bar to continue]</b></p></div>,32,,,,,,,,,,,,,,
,instruc11,36,135241,0.0-33.0-2.0,null,,,<div class='center'><p>How successful a pirate is at robbing ships will depend on the island you're on.</p><p> A pirate may have visited this island many times before and gained a lot of practice robbing ships there.</p><p>So, they're more likely to be successful than a pirate who has never visited the island before.</p></div>,null,<div class='center'><p>How successful a pirate is at robbing ships will depend on the island you're on.</p><p> A pirate may have visited this island many times before and gained a lot of practice robbing ships there.</p><p>So, they're more likely to be successful than a pirate who has never visited the island before.</p></div>,,,,,,,,,,,,,
,html-keyboard-response,37,139953,0.0-33.0-3.0,4711.4000000059605,,,<div class='center'><p>How successful a pirate is at robbing ships will depend on the island you're on.</p><p> A pirate may have visited this island many times before and gained a lot of practice robbing ships there.</p><p>So, they're more likely to be successful than a pirate who has never visited the island before.</p><p><b>[Press the space bar to continue]</b></p></div>,32,,,,,,,,,,,,,,
,instruc12,38,141954,0.0-33.0-4.0,null,,,<div class='center'><p>How successful a pirate is at robbing ships can also change over the time spent on the island. </p><p> Ships may hear from islanders about the pirates coming and will improve their protections against the attack. This may make it harder to rob them.</p><p> Ships may also become lazy and weaken the strength of their protections. This may make it easier to rob them.</p><br><p>Things are always changing on the high seas! So, try your best to pay attention!</p><p><img src='../static/images/tutorial/contingency.png' height='500'></p></div>,null,<div class='center'><p>How successful a pirate is at robbing ships can also change over the time spent on the island. </p><p> Ships may hear from islanders about the pirates coming and will improve their protections against the attack. This may make it harder to rob them.</p><p> Ships may also become lazy and weaken the strength of their protections. This may make it easier to rob them.</p><br><p>Things are always changing on the high seas! So, try your best to pay attention!</p><p><img src='../static/images/tutorial/contingency.png' height='500'></p></div>,,,,,,,,,,,,,
,html-keyboard-response,39,151859,0.0-33.0-5.0,9904.700000017881,,,<div class='center'><p>How successful a pirate is at robbing ships can also change over the time spent on the island. </p><p> Ships may hear from islanders about the pirates coming and will improve their protections against the attack. This may make it harder to rob them.</p><p> Ships may also become lazy and weaken the strength of their protections. This may make it easier to rob them.</p><br><p>Things are always changing on the high seas! So, try your best to pay attention!</p><p><img src='../static/images/tutorial/contingency.png' height='500'></p><p><b>[Press the space bar to continue]</b></p></div>,32,,,,,,,,,,,,,,
,instruc13,40,153862,0.0-33.0-6.0,null,,,<div class='center'><p>Let's go over the instructions quickly again. You have one thing to do: </p><p><b>Pick the pirate who is the best at robbing ships on the current island.</b></p><p>The amount of bonus money you win depends on it.</p><br><p>Let's try a practice game. The game will start by showing you an island. Pick a pirate using the <b>1, 2, 3</b> keys on your keyboard to get it to try and rob one of the ships leaving the island.</p><p>This is just a practice game, so you're not playing for money.</p><p>Good luck! This game will be very difficult but try your best!</p></div>,null,<div class='center'><p>Let's go over the instructions quickly again. You have one thing to do: </p><p><b>Pick the pirate who is the best at robbing ships on the current island.</b></p><p>The amount of bonus money you win depends on it.</p><br><p>Let's try a practice game. The game will start by showing you an island. Pick a pirate using the <b>1, 2, 3</b> keys on your keyboard to get it to try and rob one of the ships leaving the island.</p><p>This is just a practice game, so you're not playing for money.</p><p>Good luck! This game will be very difficult but try your best!</p></div>,,,,,,,,,,,,,
,html-keyboard-response,41,165377,0.0-33.0-7.0,11514.40000000596,,,<div class='center'><p>Let's go over the instructions quickly again. You have one thing to do: </p><p><b>Pick the pirate who is the best at robbing ships on the current island.</b></p><p>The amount of bonus money you win depends on it.</p><br><p>Let's try a practice game. The game will start by showing you an island. Pick a pirate using the <b>1, 2, 3</b> keys on your keyboard to get it to try and rob one of the ships leaving the island.</p><p>This is just a practice game, so you're not playing for money.</p><p>Good luck! This game will be very difficult but try your best!</p><p><b>[Press the space bar to continue]</b></p></div>,32,,,,,,,,,,,,,,
,do_welcome,42,169384,0.0-33.0-8.0,null,,,,,,null,,,,,,,,,,,,
,do_trial,43,175388,0.0-33.0-9.0,null,,,,,,null,1,0,0,,,,,,,,,,,
,html-keyboard-response,44,176398,0.0-34.0-0.0,null,,,<p></p>,null,,,,,,,,,,,,,,
,do_trial,45,180202,0.0-34.0-1.0,1298.4000000059605,,,,,,49,1,0,0,,,,,,,,,,,
,html-keyboard-response,46,181204,0.0-35.0-0.0,null,,,<p></p>,null,,,,,,,,,,,,,,
,do_trial,47,185000,0.0-35.0-1.0,1289.5,,,,,,51,1,1,0,,,,,,,,,,,
,html-keyboard-response,48,186002,0.0-36.0-0.0,null,,,<p></p>,null,,,,,,,,,,,,,,
,do_trial,49,189129,0.0-36.0-1.0,623.1000000238419,,,,,,49,1,0,1,,,,,,,,,,,
,html-keyboard-response,50,190131,0.0-37.0-0.0,null,,,<p></p>,null,,,,,,,,,,,,,,
,do_trial,51,193646,0.0-37.0-1.0,1010.3000000119209,,,,,,49,0,1,0,,,,,,,,,,,
,html-keyboard-response,52,194647,0.0-38.0-0.0,null,,,<p></p>,null,,,,,,,,,,,,,,
,do_trial,53,198080,0.0-38.0-1.0,927.8999999761581,,,,,,51,1,0,0,,,,,,,,,,,
,do_bye,54,199588,0.0-39.0-0.0,null,,,,,,null,,,,,,,,,,,,
,do_travel,55,208593,0.0-39.0-1.0,null,,,,,,null,,,,,,,,,,,,
,do_welcome,56,212597,0.0-39.0-2.0,null,,,,,,null,,,,,,,,,,,,
,do_trial,57,217218,0.0-39.0-3.0,2115.9000000059605,,,,,,49,1,0,0,,,,,,,,,,,
,html-keyboard-response,58,218220,0.0-40.0-0.0,null,,,<p></p>,null,,,,,,,,,,,,,,
,do_trial,59,221639,0.0-40.0-1.0,913,,,,,,49,1,0,1,,,,,,,,,,,
,html-keyboard-response,60,222643,0.0-41.0-0.0,null,,,<p></p>,null,,,,,,,,,,,,,,
,do_trial,61,225779,0.0-41.0-1.0,633.1999999880791,,,,,,49,1,1,0,,,,,,,,,,,
,html-keyboard-response,62,226781,0.0-42.0-0.0,null,,,<p></p>,null,,,,,,,,,,,,,,
,do_trial,63,229817,0.0-42.0-1.0,531.9000000059605,,,,,,49,0,0,1,,,,,,,,,,,
,html-keyboard-response,64,230818,0.0-43.0-0.0,null,,,<p></p>,null,,,,,,,,,,,,,,
,do_trial,65,233598,0.0-43.0-1.0,273.7000000178814,,,,,,49,1,0,1,,,,,,,,,,,
,html-keyboard-response,66,235487,0.0-44.0-0.0,1886.7000000178814,,,<div class='center'><p><img src='../static/images/tutorial/prac_best_pirate.png' height='500'></p></div>,49,,,,,,,,,,,,,,
,html-keyboard-response,67,237597,0.0-45.0-0.0,2109.5,,,<div class='center'><p>That's correct! Red beard was the best.</p><p><b>[Press the space bar to continue]</b></p></div>,32,,,,,,,,,,,,,,
,quiz_beginning,68,239598,0.0-45.0-1.0,null,,,<div class='center'><p>Good job on the practice game! Now, you will be asked some true or false questions to make sure you really understand the rules of the game.</p><p> Press <b>'1'</b> on the keyboard for true and press <b>'2'</b> for false.</p></div>,null,<div class='center'><p>Good job on the practice game! Now, you will be asked some true or false questions to make sure you really understand the rules of the game.</p><p> Press <b>'1'</b> on the keyboard for true and press <b>'2'</b> for false.</p></div>,,,,,,,,,,,,,
,html-keyboard-response,69,243407,0.0-45.0-2.0,3807.9000000059605,,,<div class='center'><p>You win bonus money by collecting gold coins.</p><p>Press 1 for true and press  2 for false.</p></div>,49,,,,,,,,,,,,,,
,correct,70,245414,0.0-46.0-0.0,null,,,<div class='center'><p>That's correct!</p></div>,null,<div class='center'><p>That's correct!</p></div>,,,,,,,,,,,,,
,html-keyboard-response,71,246455,0.0-46.0-1.0,1039.699999988079,,,<div class='center'><p>That's correct!</p><p><b>[Press the space bar to continue]</b></p></div>,32,,,,,,,,,,,,,,
,html-keyboard-response,72,252023,0.0-46.0-2.0,5567.800000011921,,,<div class='center'><p>The pirate who is the best at robbing ships when you first arrive on the island will definitely still be the best when you leave the island. </p><p>Press 1 for true and press  2 for false.</p></div>,49,,,,,,,,,,,,,,
,q2_err,73,254024,0.0-47.0-0.0,null,,,<div class='center'><p>That’s incorrect. Which pirate is the best may change during your time on the island.</p></div>,null,<div class='center'><p>That’s incorrect. Which pirate is the best may change during your time on the island.</p></div>,,,,,,,,,,,,,
,html-keyboard-response,74,255547,0.0-47.0-1.0,1521.9000000059605,,,<div class='center'><p>That’s incorrect. Which pirate is the best may change during your time on the island.</p><p><b>[Press the space bar to continue]</b></p></div>,32,,,,,,,,,,,,,,
,html-keyboard-response,75,259352,0.0-47.0-2.0,3803.5999999940395,,,<div class='center'><p>The pirate who is the best at robbing ships on the first island will be the best on every other island.</p><p>Press 1 for true and press  2 for false.</p></div>,50,,,,,,,,,,,,,,
,correct,76,261353,0.0-48.0-0.0,null,,,<div class='center'><p>That's correct!</p></div>,null,<div class='center'><p>That's correct!</p></div>,,,,,,,,,,,,,
,html-keyboard-response,77,262205,0.0-48.0-1.0,851,,,<div class='center'><p>That's correct!</p><p><b>[Press the space bar to continue]</b></p></div>,32,,,,,,,,,,,,,,
,html-keyboard-response,78,267570,0.0-48.0-2.0,5364.200000017881,,,<div class='center'><p>You should remember the island where a pirate robbed a ship.</p><p>Press 1 for true and press  2 for false.</p></div>,49,,,,,,,,,,,,,,
,correct,79,269571,0.0-49.0-0.0,null,,,<div class='center'><p>That's correct!</p></div>,null,<div class='center'><p>That's correct!</p></div>,,,,,,,,,,,,,
,html-keyboard-response,80,270787,0.0-49.0-1.0,1215.199999988079,,,<div class='center'><p>That's correct!</p><p><b>[Press the space bar to continue]</b></p></div>,32,,,,,,,,,,,,,,
,q_all_err,81,272789,0.0-50.0-0.0,null,,,<div class='center'><p>Oops, you missed some questions. Now that you’ve heard the correct answers. Try the quiz again! </p></div>,null,<div class='center'><p>Oops, you missed some questions. Now that you’ve heard the correct answers. Try the quiz again! </p></div>,,,,,,,,,,,,,
,html-keyboard-response,82,273778,0.0-50.0-1.0,988.5999999940395,,,<div class='center'><p>Oops, you missed some questions. Now that you’ve heard the correct answers. Try the quiz again! </p><p><b>[Press the space bar to continue]</b></p></div>,32,,,,,,,,,,,,,,
,html-keyboard-response,83,275467,0.0-50.0-2.0,1688.5,,,<div class='center'><p>You win bonus money by collecting gold coins.</p><p>Press 1 for true and press  2 for false.</p></div>,49,,,,,,,,,,,,,,
,correct,84,277469,0.0-51.0-0.0,null,,,<div class='center'><p>That's correct!</p></div>,null,<div class='center'><p>That's correct!</p></div>,,,,,,,,,,,,,
,html-keyboard-response,85,278333,0.0-51.0-1.0,863.3000000119209,,,<div class='center'><p>That's correct!</p><p><b>[Press the space bar to continue]</b></p></div>,32,,,,,,,,,,,,,,
,html-keyboard-response,86,280954,0.0-51.0-2.0,2620.2999999821186,,,<div class='center'><p>The pirate who is the best at robbing ships when you first arrive on the island will definitely still be the best when you leave the island. </p><p>Press 1 for true and press  2 for false.</p></div>,50,,,,,,,,,,,,,,
,correct,87,282956,0.0-52.0-0.0,null,,,<div class='center'><p>That's correct!</p></div>,null,<div class='center'><p>That's correct!</p></div>,,,,,,,,,,,,,
,html-keyboard-response,88,283458,0.0-52.0-1.0,501.19999998807907,,,<div class='center'><p>That's correct!</p><p><b>[Press the space bar to continue]</b></p></div>,32,,,,,,,,,,,,,,
,html-keyboard-response,89,287496,0.0-52.0-2.0,4038.4000000059605,,,<div class='center'><p>The pirate who is the best at robbing ships on the first island will be the best on every other island.</p><p>Press 1 for true and press  2 for false.</p></div>,50,,,,,,,,,,,,,,
,correct,90,289498,0.0-53.0-0.0,null,,,<div class='center'><p>That's correct!</p></div>,null,<div class='center'><p>That's correct!</p></div>,,,,,,,,,,,,,
,html-keyboard-response,91,290010,0.0-53.0-1.0,510.60000002384186,,,<div class='center'><p>That's correct!</p><p><b>[Press the space bar to continue]</b></p></div>,32,,,,,,,,,,,,,,
,html-keyboard-response,92,291957,0.0-53.0-2.0,1946.5,,,<div class='center'><p>You should remember the island where a pirate robbed a ship.</p><p>Press 1 for true and press  2 for false.</p></div>,49,,,,,,,,,,,,,,
,correct,93,293975,0.0-54.0-0.0,null,,,<div class='center'><p>That's correct!</p></div>,null,<div class='center'><p>That's correct!</p></div>,,,,,,,,,,,,,
,html-keyboard-response,94,294476,0.0-54.0-1.0,500.30000001192093,,,<div class='center'><p>That's correct!</p><p><b>[Press the space bar to continue]</b></p></div>,32,,,,,,,,,,,,,,
,q_all_corr,95,296478,0.0-55.0-0.0,null,,,<div class='center'><p>Good job! You’re now ready to move on to the real game! Remember this game will be difficult but don't get discouraged and try your best!</p></div>,null,<div class='center'><p>Good job! You’re now ready to move on to the real game! Remember this game will be difficult but don't get discouraged and try your best!</p></div>,,,,,,,,,,,,,
,html-keyboard-response,96,298175,0.0-55.0-1.0,1696,,,<div class='center'><p>Good job! You’re now ready to move on to the real game! Remember this game will be difficult but don't get discouraged and try your best!</p><p><b>[Press the space bar to continue]</b></p></div>,32,,,,,,,,,,,,,,
,do_welcome,97,302183,0.0-56.0-0.0,null,,,,,,null,,,,,,,,,,,,
,do_trial,98,307049,0.0-57.0-0.0,2360,,,,,,49,0,0,0,0,mountain,0,0.6,0.3,0.1,0,learn,,,
,html-keyboard-response,99,308051,0.0-57.0-1.0,null,,,<p></p>,null,,,,,,,,,,,,,,
,do_trial,100,311479,0.0-58.0-0.0,921.5999999940395,,,,,,49,1,0,0,0,mountain,1,0.5701921155105286,0.25724818359811413,0.19414542640989918,1,learn,,,
,html-keyboard-response,101,312482,0.0-58.0-1.0,null,,,<p></p>,null,,,,,,,,,,,,,,
,do_trial,102,315920,0.0-59.0-0.0,930.8999999761581,,,,,,49,0,0,1,0,mountain,2,0.5661543200062606,0.17520794263510642,0.184466608870368,0,learn,,,
,html-keyboard-response,103,316922,0.0-59.0-1.0,null,,,<p></p>,null,,,,,,,,,,,,,,
,do_trial,104,320294,0.0-60.0-0.0,869,,,,,,50,0,0,0,0,mountain,3,0.5645036577944171,0.30657450224335187,0.1013496445939552,0,learn,,,
,html-keyboard-response,105,321297,0.0-60.0-1.0,null,,,<p></p>,null,,,,,,,,,,,,,,
,do_trial,106,324191,0.0-61.0-0.0,391.2999999821186,,,,,,50,0,0,0,0,mountain,4,0.671765802516268,0.4173648965350831,0.10810703861605755,0,learn,,,
,html-keyboard-response,107,325193,0.0-61.0-1.0,null,,,<p></p>,null,,,,,,,,,,,,,,
,do_trial,108,328152,0.0-62.0-0.0,453.40000000596046,,,,,,51,1,0,1,0,mountain,5,0.6332153198173984,0.41034144242451326,0.19340122916123867,1,learn,,,
,html-keyboard-response,109,329154,0.0-62.0-1.0,null,,,<p></p>,null,,,,,,,,,,,,,,
,do_trial,110,332200,0.0-63.0-0.0,539.4000000059605,,,,,,51,0,1,0,0,mountain,6,0.5741350831957105,0.43143860873793993,0.15520918639559106,0,learn,,,
,html-keyboard-response,111,333201,0.0-63.0-1.0,null,,,<p></p>,null,,,,,,,,,,,,,,
,do_trial,112,336498,0.0-64.0-0.0,794.2999999821186,,,,,,49,1,1,0,0,mountain,7,0.5919475650774676,0.40336389248919463,0.2740219595969484,1,learn,,,
,html-keyboard-response,113,337508,0.0-64.0-1.0,null,,,<p></p>,null,,,,,,,,,,,,,,
,do_trial,114,340438,0.0-65.0-0.0,426.2999999821186,,,,,,49,1,0,0,0,mountain,8,0.5252134536952356,0.31361547212773166,0.3213458780563343,1,learn,,,
,html-keyboard-response,115,341439,0.0-65.0-1.0,null,,,<p></p>,null,,,,,,,,,,,,,,
,do_trial,116,344531,0.0-66.0-0.0,586.4000000059605,,,,,,49,1,0,0,0,mountain,9,0.6604400791782413,0.31822646209874,0.29021007593361087,1,learn,,,
,html-keyboard-response,117,345533,0.0-66.0-1.0,null,,,<p></p>,null,,,,,,,,,,,,,,
,do_trial,118,349048,0.0-67.0-0.0,1011.5,,,,,,49,1,0,1,0,mountain,10,0.5441016584453265,0.26656167421651833,0.19684443354264783,1,learn,,,
,html-keyboard-response,119,350050,0.0-67.0-1.0,null,,,<p></p>,null,,,,,,,,,,,,,,
,do_trial,120,352850,0.0-68.0-0.0,294.19999998807907,,,,,,49,1,0,1,0,mountain,11,0.6146608049991559,0.30312456968284635,0.19599599837189163,1,learn,,,
,html-keyboard-response,121,353859,0.0-68.0-1.0,null,,,<p></p>,null,,,,,,,,,,,,,,
,do_trial,122,357039,0.0-69.0-0.0,676.2000000178814,,,,,,49,1,0,0,0,mountain,12,0.5834221014963007,0.2682656244480935,0.19593332531129065,1,learn,,,
,html-keyboard-response,123,358041,0.0-69.0-1.0,null,,,<p></p>,null,,,,,,,,,,,,,,
,do_trial,124,361445,0.0-70.0-0.0,899.1999999880791,,,,,,49,0,0,0,0,mountain,13,0.6901532484696757,0.31886125503622714,0.2886791744133722,0,learn,,,
,html-keyboard-response,125,362447,0.0-70.0-1.0,null,,,<p></p>,null,,,,,,,,,,,,,,
,do_trial,126,365794,0.0-71.0-0.0,841.4000000059605,,,,,,49,0,1,0,0,mountain,14,0.6425308031926066,0.3535694603324479,0.13455192931058563,0,learn,,,
,html-keyboard-response,127,366797,0.0-71.0-1.0,null,,,<p></p>,null,,,,,,,,,,,,,,
,do_trial,128,370079,0.0-72.0-0.0,776.5999999940395,,,,,,50,0,0,1,0,mountain,15,0.5760587968879429,0.2777786216593533,0.14775191251171213,0,learn,,,
,html-keyboard-response,129,371081,0.0-72.0-1.0,null,,,<p></p>,null,,,,,,,,,,,,,,
,do_trial,130,373994,0.0-73.0-0.0,407.69999998807907,,,,,,51,0,0,0,0,mountain,16,0.5942054044941408,0.2812495954403892,0.11990448659563654,0,learn,,,
,html-keyboard-response,131,374997,0.0-73.0-1.0,null,,,<p></p>,null,,,,,,,,,,,,,,
,do_trial,132,378158,0.0-74.0-0.0,656,,,,,,50,0,0,0,0,mountain,17,0.48658942403356764,0.1969885633303858,0.11023675105768563,0,learn,,,
,html-keyboard-response,133,379160,0.0-74.0-1.0,null,,,<p></p>,null,,,,,,,,,,,,,,
,do_trial,134,381961,0.0-75.0-0.0,295.59999999403954,,,,,,51,1,1,1,0,mountain,18,0.5314322790614363,0.3455814652771978,0.1456695414557632,1,learn,,,
,html-keyboard-response,135,382963,0.0-75.0-1.0,null,,,<p></p>,null,,,,,,,,,,,,,,
,do_trial,136,385814,0.0-76.0-0.0,347,,,,,,51,0,0,0,0,mountain,19,0.6310801366605353,0.1853154225832295,0.056277988885285145,0,learn,,,
,html-keyboard-response,137,386816,0.0-76.0-1.0,null,,,<p></p>,null,,,,,,,,,,,,,,
,do_trial,138,389606,0.0-77.0-0.0,286.2999999821186,,,,,,49,1,0,0,0,mountain,20,0.6566112495385114,0.1955226717626095,0.06108479350451777,1,learn,,,
,html-keyboard-response,139,390608,0.0-77.0-1.0,null,,,<p></p>,null,,,,,,,,,,,,,,
,do_trial,140,393457,0.0-78.0-0.0,341.80000001192093,,,,,,49,1,0,0,0,mountain,21,0.6995091811657035,0.16018538507293215,0.08606328406181232,1,learn,,,
,html-keyboard-response,141,394460,0.0-78.0-1.0,null,,,<p></p>,null,,,,,,,,,,,,,,
,do_trial,142,397828,0.0-79.0-0.0,862.5,,,,,,49,1,0,0,0,mountain,22,0.6341965653467938,0.352182276120964,0.14032825901661306,1,learn,,,
,html-keyboard-response,143,398830,0.0-79.0-1.0,null,,,<p></p>,null,,,,,,,,,,,,,,
,do_trial,144,401622,0.0-80.0-0.0,287.30000001192093,,,,,,49,0,1,1,0,mountain,23,0.5104768822524224,0.37987818039577065,0.1329050302404694,0,learn,,,
,html-keyboard-response,145,402624,0.0-80.0-1.0,null,,,<p></p>,null,,,,,,,,,,,,,,
,do_trial,146,405881,0.0-81.0-0.0,750.5,,,,,,51,1,0,0,0,mountain,24,0.5695351295578919,0.2702200027412729,0.14774355071100068,0,learn,,,
,html-keyboard-response,147,406882,0.0-81.0-1.0,null,,,<p></p>,null,,,,,,,,,,,,,,
,do_trial,148,409664,0.0-82.0-0.0,278.40000000596046,,,,,,51,0,0,0,0,mountain,25,0.461094708949305,0.3037784642485923,0.21210861591392546,0,learn,,,
,html-keyboard-response,149,410666,0.0-82.0-1.0,null,,,<p></p>,null,,,,,,,,,,,,,,
,do_trial,150,413405,0.0-83.0-0.0,236.09999999403954,,,,,,49,0,0,0,0,mountain,26,0.6061514197218216,0.2253227973679106,0.20026828522643111,0,learn,,,
,html-keyboard-response,151,414407,0.0-83.0-1.0,null,,,<p></p>,null,,,,,,,,,,,,,,
,do_trial,152,417328,0.0-84.0-0.0,417.89999997615814,,,,,,50,1,0,0,0,mountain,27,0.6391060429818417,0.21295880455730604,0.1837552847659422,0,learn,,,
,html-keyboard-response,153,418330,0.0-84.0-1.0,null,,,<p></p>,null,,,,,,,,,,,,,,
,do_trial,154,421142,0.0-85.0-0.0,304.5,,,,,,49,1,1,1,0,mountain,28,0.5911334280413872,0.20965699297659934,0.18997311576177514,1,learn,,,
,html-keyboard-response,155,422143,0.0-85.0-1.0,null,,,<p></p>,null,,,,,,,,,,,,,,
,do_trial,156,425071,0.0-86.0-0.0,424.89999997615814,,,,,,49,0,0,0,0,mountain,29,0.42813804387203463,0.05863958942511971,0.23185662815265973,0,learn,,,
,html-keyboard-response,157,426073,0.0-86.0-1.0,null,,,<p></p>,null,,,,,,,,,,,,,,
,do_bye,158,427579,0.0-87.0-0.0,null,,,,,,null,,,,,,,,,,,,
,do_travel,159,436583,0.0-88.0-0.0,null,,,,,,null,,,,,,,,,,,,
,do_welcome,160,440594,0.0-88.0-1.0,null,,,,,,null,,,,,,,,,,,,
,do_trial,161,446599,0.0-89.0-0.0,null,,,,,,null,1,0,0,1,countryside,30,1,0.21317459565636265,0.18432014526274046,,learn,,,
,html-keyboard-response,162,447605,0.0-89.0-1.0,null,,,<p></p>,null,,,,,,,,,,,,,,
,do_trial,163,450741,0.0-90.0-0.0,632.0999999940395,,,,,,49,1,1,0,1,countryside,31,1,0.2654530815566813,0.23211275121809563,1,learn,,,
,html-keyboard-response,164,451743,0.0-90.0-1.0,null,,,<p></p>,null,,,,,,,,,,,,,,
,do_trial,165,454914,0.0-91.0-0.0,665.8000000119209,,,,,,49,1,1,1,1,countryside,32,1,0.13732691601937475,0.34241098917559415,1,learn,,,
,html-keyboard-response,166,455916,0.0-91.0-1.0,null,,,<p></p>,null,,,,,,,,,,,,,,
,do_trial,167,458876,0.0-92.0-0.0,454.69999998807907,,,,,,49,1,0,0,1,countryside,33,0.8800113503246836,0.17224578802286172,0.3105479346192702,1,learn,,,
,html-keyboard-response,168,459878,0.0-92.0-1.0,null,,,<p></p>,null,,,,,,,,,,,,,,
,do_trial,169,463129,0.0-93.0-0.0,747.0999999940395,,,,,,49,0,0,0,1,countryside,34,0.6051349755638905,0.34730090917510054,0.0667951487386633,0,learn,,,
,html-keyboard-response,170,464134,0.0-93.0-1.0,null,,,<p></p>,null,,,,,,,,,,,,,,
,do_trial,171,468322,0.0-94.0-0.0,1682.2000000178814,,,,,,50,1,0,0,1,countryside,35,0.5337548765996971,0.45215968348671154,0.17871516563159312,0,learn,,,
,html-keyboard-response,172,469324,0.0-94.0-1.0,null,,,<p></p>,null,,,,,,,,,,,,,,
,do_trial,173,472214,0.0-95.0-0.0,380.69999998807907,,,,,,51,1,1,0,1,countryside,36,0.45406052100482713,0.5155622877235585,0.19123443760468667,0,learn,,,
,html-keyboard-response,174,473216,0.0-95.0-1.0,null,,,<p></p>,null,,,,,,,,,,,,,,
,do_trial,175,476010,0.0-96.0-0.0,288.09999999403954,,,,,,49,0,0,0,1,countryside,37,0.4928815582179651,0.5028568218665198,0.07036261396301724,0,learn,,,
,html-keyboard-response,176,477011,0.0-96.0-1.0,null,,,<p></p>,null,,,,,,,,,,,,,,
,do_trial,177,479797,0.0-97.0-0.0,280.39999997615814,,,,,,49,1,0,0,1,countryside,38,0.45105914805804576,0.386190775774632,0.10219460478503915,1,learn,,,
,html-keyboard-response,178,480799,0.0-97.0-1.0,null,,,<p></p>,null,,,,,,,,,,,,,,
,do_trial,179,483571,0.0-98.0-0.0,269,,,,,,49,0,0,0,1,countryside,39,0.4049677704584697,0.35892751680543916,0.06991639527426798,0,learn,,,
,html-keyboard-response,180,484573,0.0-98.0-1.0,null,,,<p></p>,null,,,,,,,,,,,,,,
,do_trial,181,487726,0.0-99.0-0.0,649.8000000119209,,,,,,49,1,1,0,1,countryside,40,0.4348176670560833,0.4646732759991986,0.08639725791793204,1,learn,,,
,html-keyboard-response,182,488728,0.0-99.0-1.0,null,,,<p></p>,null,,,,,,,,,,,,,,
,do_trial,183,491868,0.0-100.0-0.0,635.7000000178814,,,,,,49,0,0,0,1,countryside,41,0.18090022516357646,0.6247241330383732,0.16628418452343083,0,learn,,,
,html-keyboard-response,184,492870,0.0-100.0-1.0,null,,,<p></p>,null,,,,,,,,,,,,,,
,do_trial,185,495671,0.0-101.0-0.0,298.40000000596046,,,,,,49,0,1,0,1,countryside,42,0.13185873550212474,0.8066506222788364,0.23667469090856663,0,learn,,,
,html-keyboard-response,186,496673,0.0-101.0-1.0,null,,,<p></p>,null,,,,,,,,,,,,,,
,do_trial,187,499551,0.0-102.0-0.0,372.2000000178814,,,,,,50,0,1,0,1,countryside,43,0.27008635973627165,0.8102290348534397,0.1338368379942238,1,learn,,,
,html-keyboard-response,188,500553,0.0-102.0-1.0,null,,,<p></p>,null,,,,,,,,,,,,,,
,do_trial,189,503656,0.0-103.0-0.0,599.2999999821186,,,,,,50,0,0,0,1,countryside,44,0.08704689556220498,0.5911973611379553,0.05569688049781319,0,learn,,,
,html-keyboard-response,190,504658,0.0-103.0-1.0,null,,,<p></p>,null,,,,,,,,,,,,,,
,do_trial,191,507413,0.0-104.0-0.0,251.10000002384186,,,,,,50,0,1,0,1,countryside,45,0.2441574165592214,0.5221330024052546,0.0604486782443075,1,learn,,,
,html-keyboard-response,192,508415,0.0-104.0-1.0,null,,,<p></p>,null,,,,,,,,,,,,,,
,do_trial,193,511230,0.0-105.0-0.0,309.7999999821186,,,,,,50,0,1,0,1,countryside,46,0.0877012519105011,0.5227971436396732,0.18778627341202536,1,learn,,,
,html-keyboard-response,194,512241,0.0-105.0-1.0,null,,,<p></p>,null,,,,,,,,,,,,,,
,do_trial,195,515100,0.0-106.0-0.0,353.5,,,,,,50,1,1,0,1,countryside,47,0.06972758409849869,0.5951489384494004,0.05776352767740217,1,learn,,,
,html-keyboard-response,196,516102,0.0-106.0-1.0,null,,,<p></p>,null,,,,,,,,,,,,,,
,do_trial,197,518855,0.0-107.0-0.0,248.5,,,,,,50,0,0,0,1,countryside,48,0.23346058393082394,0.6380034819215752,0.13606781017180208,0,learn,,,
,html-keyboard-response,198,519857,0.0-107.0-1.0,null,,,<p></p>,null,,,,,,,,,,,,,,
,do_trial,199,522637,0.0-108.0-0.0,274.89999997615814,,,,,,50,0,1,0,1,countryside,49,0.43360358518160735,0.5607545573351991,0.20024573369568774,1,learn,,,
,html-keyboard-response,200,523638,0.0-108.0-1.0,null,,,<p></p>,null,,,,,,,,,,,,,,
,do_trial,201,526547,0.0-109.0-0.0,403,,,,,,50,1,0,0,1,countryside,50,0.45300136638067656,0.5105579053185131,0.25555260017308784,0,learn,,,
,html-keyboard-response,202,527549,0.0-109.0-1.0,null,,,<p></p>,null,,,,,,,,,,,,,,
,do_trial,203,530327,0.0-110.0-0.0,273.2000000178814,,,,,,50,1,0,0,1,countryside,51,0.44642602304873946,0.4658805574071019,0.1916413929625689,0,learn,,,
,html-keyboard-response,204,531329,0.0-110.0-1.0,null,,,<p></p>,null,,,,,,,,,,,,,,
,do_trial,205,534125,0.0-111.0-0.0,290.40000000596046,,,,,,51,0,0,0,1,countryside,52,0.33355193404246064,0.6740566803720612,0.24212259991698556,0,learn,,,
,html-keyboard-response,206,535127,0.0-111.0-1.0,null,,,<p></p>,null,,,,,,,,,,,,,,
,do_trial,207,538176,0.0-112.0-0.0,544.7999999821186,,,,,,51,0,0,0,1,countryside,53,0.2689479255662539,0.7519077382991982,0.26278622241334904,0,learn,,,
,html-keyboard-response,208,539178,0.0-112.0-1.0,null,,,<p></p>,null,,,,,,,,,,,,,,
,do_trial,209,541926,0.0-113.0-0.0,245.40000000596046,,,,,,49,1,1,0,1,countryside,54,0.36703483382092617,0.6155447856829313,0.2500538070002209,1,learn,,,
,html-keyboard-response,210,542927,0.0-113.0-1.0,null,,,<p></p>,null,,,,,,,,,,,,,,
,do_trial,211,545728,0.0-114.0-0.0,296.60000002384186,,,,,,49,0,1,0,1,countryside,55,0.2680995507668613,0.6190121608359983,0.1501234034857899,0,learn,,,
,html-keyboard-response,212,546729,0.0-114.0-1.0,null,,,<p></p>,null,,,,,,,,,,,,,,
,do_trial,213,549608,0.0-115.0-0.0,372.40000000596046,,,,,,50,1,0,0,1,countryside,56,0.25054183020612847,0.6762266070491134,0.09081494192867513,0,learn,,,
,html-keyboard-response,214,550610,0.0-115.0-1.0,null,,,<p></p>,null,,,,,,,,,,,,,,
,do_trial,215,553386,0.0-116.0-0.0,270.40000000596046,,,,,,50,1,1,0,1,countryside,57,0.3779983147275522,0.6918337336682965,0.12733170544373518,1,learn,,,
,html-keyboard-response,216,554389,0.0-116.0-1.0,null,,,<p></p>,null,,,,,,,,,,,,,,
,do_trial,217,557134,0.0-117.0-0.0,240.80000001192093,,,,,,50,0,0,0,1,countryside,58,0.3864817077339488,0.8227796859941299,0.06560156907237595,0,learn,,,
,html-keyboard-response,218,558136,0.0-117.0-1.0,null,,,<p></p>,null,,,,,,,,,,,,,,
,do_trial,219,561116,0.0-118.0-0.0,473.59999999403954,,,,,,50,0,1,0,1,countryside,59,0.5032894062860691,0.8638969895824022,0.09497734069072232,1,learn,,,
,html-keyboard-response,220,562118,0.0-118.0-1.0,null,,,<p></p>,null,,,,,,,,,,,,,,
,do_trial,221,565147,0.0-119.0-0.0,526.7000000178814,,,,,,50,1,1,0,1,countryside,60,0.42810905588900716,0.7593150993118372,0.06583625528820226,1,learn,,,
,html-keyboard-response,222,566148,0.0-119.0-1.0,null,,,<p></p>,null,,,,,,,,,,,,,,
,do_trial,223,569457,0.0-120.0-0.0,805.1999999880791,,,,,,50,0,1,1,1,countryside,61,0.31884714300991457,0.7651992927602627,0.10499309687541114,1,learn,,,
,html-keyboard-response,224,570459,0.0-120.0-1.0,null,,,<p></p>,null,,,,,,,,,,,,,,
,do_trial,225,573443,0.0-121.0-0.0,478.10000002384186,,,,,,50,0,1,0,1,countryside,62,0.2872267082735331,0.6675496243991494,0.12537405298512158,1,learn,,,
,html-keyboard-response,226,574445,0.0-121.0-1.0,null,,,<p></p>,null,,,,,,,,,,,,,,
,do_trial,227,577383,0.0-122.0-0.0,432.39999997615814,,,,,,50,0,1,0,1,countryside,63,0.37510465160630985,0.7799688296907402,0.08310433577965787,1,learn,,,
,html-keyboard-response,228,578384,0.0-122.0-1.0,null,,,<p></p>,null,,,,,,,,,,,,,,
,do_trial,229,581319,0.0-123.0-0.0,430.40000000596046,,,,,,50,0,1,0,1,countryside,64,0.3801901181399572,0.724931368834938,0.09272309733880939,1,learn,,,
,html-keyboard-response,230,582320,0.0-123.0-1.0,null,,,<p></p>,null,,,,,,,,,,,,,,
,do_trial,231,585179,0.0-124.0-0.0,357.2000000178814,,,,,,50,1,0,0,1,countryside,65,0.32186042561840994,0.5962535327534428,0.1195783891139145,0,learn,,,
,html-keyboard-response,232,586181,0.0-124.0-1.0,null,,,<p></p>,null,,,,,,,,,,,,,,
,do_trial,233,589823,0.0-125.0-0.0,1135.7999999821186,,,,,,49,0,0,0,1,countryside,66,0.4288362123048671,0.5781339608945372,0.05219654432680002,0,learn,,,
,html-keyboard-response,234,590825,0.0-125.0-1.0,null,,,<p></p>,null,,,,,,,,,,,,,,
,do_trial,235,593581,0.0-126.0-0.0,252.69999998807907,,,,,,50,0,0,0,1,countryside,67,0.26916485260833745,0.5800789007161578,0.05590958864756341,0,learn,,,
,html-keyboard-response,236,594584,0.0-126.0-1.0,null,,,<p></p>,null,,,,,,,,,,,,,,
,do_trial,237,597368,0.0-127.0-0.0,278.7999999821186,,,,,,51,0,1,0,1,countryside,68,0.25768033681615027,0.6786884671330928,0.09410284135309864,0,learn,,,
,html-keyboard-response,238,598370,0.0-127.0-1.0,null,,,<p></p>,null,,,,,,,,,,,,,,
,do_trial,239,601112,0.0-128.0-0.0,240.09999999403954,,,,,,50,0,1,0,1,countryside,69,0.09819633463477179,0.7018722373942599,0.06428049054512396,1,learn,,,
,html-keyboard-response,240,602114,0.0-128.0-1.0,null,,,<p></p>,null,,,,,,,,,,,,,,
,do_bye,241,603618,0.0-129.0-0.0,null,,,,,,null,,,,,,,,,,,,
,do_travel,242,612621,0.0-130.0-0.0,null,,,,,,null,,,,,,,,,,,,
,do_welcome,243,616642,0.0-130.0-1.0,null,,,,,,null,,,,,,,,,,,,
,do_trial,244,622650,0.0-131.0-0.0,null,,,,,,null,0,1,0,2,highway,70,0.2175925707984044,1,0.16057930595235184,,learn,,,
,html-keyboard-response,245,623652,0.0-131.0-1.0,null,,,<p></p>,null,,,,,,,,,,,,,,
,do_trial,246,626858,0.0-132.0-0.0,699.7999999821186,,,,,,49,0,1,0,2,highway,71,0.4252688377427718,1,0.2398930919318967,0,learn,,,
,html-keyboard-response,247,627860,0.0-132.0-1.0,null,,,<p></p>,null,,,,,,,,,,,,,,
,do_trial,248,631007,0.0-133.0-0.0,641.5,,,,,,49,0,0,1,2,highway,72,0.4373162199883941,0.7523184361498098,0.17160455769341276,0,learn,,,
,html-keyboard-response,249,632009,0.0-133.0-1.0,null,,,<p></p>,null,,,,,,,,,,,,,,
,do_trial,250,634880,0.0-134.0-0.0,367.30000001192093,,,,,,50,0,0,0,2,highway,73,0.34475492317936357,0.7199364518139337,0.08906827895216651,0,learn,,,
,html-keyboard-response,251,635881,0.0-134.0-1.0,null,,,<p></p>,null,,,,,,,,,,,,,,
,do_trial,252,638768,0.0-135.0-0.0,384.59999999403954,,,,,,50,1,1,0,2,highway,74,0.32848028278315766,0.6868073218930317,0.07112879072267113,1,learn,,,
,html-keyboard-response,253,639771,0.0-135.0-1.0,null,,,<p></p>,null,,,,,,,,,,,,,,
,do_trial,254,642579,0.0-136.0-0.0,298.40000000596046,,,,,,50,1,1,0,2,highway,75,0.15152497045476496,0.49209021920730084,0.0754070371780493,1,learn,,,
,html-keyboard-response,255,643580,0.0-136.0-1.0,null,,,<p></p>,null,,,,,,,,,,,,,,
,do_trial,256,646856,0.0-137.0-0.0,772.2000000178814,,,,,,50,0,1,0,2,highway,76,0.2659985094407182,0.5350437532223268,0.13461787379477147,1,learn,,,
,html-keyboard-response,257,647857,0.0-137.0-1.0,null,,,<p></p>,null,,,,,,,,,,,,,,
,do_trial,258,651031,0.0-138.0-0.0,670.5999999940395,,,,,,50,0,1,0,2,highway,77,0.3605807961404707,0.552315615412906,0.20428476777346702,1,learn,,,
,html-keyboard-response,259,652033,0.0-138.0-1.0,null,,,<p></p>,null,,,,,,,,,,,,,,
,do_trial,260,655003,0.0-139.0-0.0,467.19999998807907,,,,,,50,1,1,0,2,highway,78,0.22189956796152657,0.41984091289088116,0.16780246395491713,1,learn,,,
,html-keyboard-response,261,656005,0.0-139.0-1.0,null,,,<p></p>,null,,,,,,,,,,,,,,
,do_trial,262,658923,0.0-140.0-0.0,414.89999997615814,,,,,,50,0,0,0,2,highway,79,0.15500204376554622,0.4526306671208882,0.14679504001747165,0,learn,,,
,html-keyboard-response,263,659926,0.0-140.0-1.0,null,,,<p></p>,null,,,,,,,,,,,,,,
,do_trial,264,662810,0.0-141.0-0.0,380.09999999403954,,,,,,50,0,1,0,2,highway,80,0.11193323547034843,0.46671671794338443,0.10683065313229079,1,learn,,,
,html-keyboard-response,265,663812,0.0-141.0-1.0,null,,,<p></p>,null,,,,,,,,,,,,,,
,do_trial,266,666823,0.0-142.0-0.0,508,,,,,,50,0,1,0,2,highway,81,0.1219643516547325,0.5037315056584847,0.1274066378760614,1,learn,,,
,html-keyboard-response,267,667826,0.0-142.0-1.0,null,,,<p></p>,null,,,,,,,,,,,,,,
,do_trial,268,670666,0.0-143.0-0.0,333.5,,,,,,50,0,0,0,2,highway,82,0.3064841387592867,0.3782381835771576,0.1720565786539579,0,learn,,,
,html-keyboard-response,269,671668,0.0-143.0-1.0,null,,,<p></p>,null,,,,,,,,,,,,,,
,do_trial,270,675034,0.0-144.0-0.0,860.2999999821186,,,,,,50,1,0,0,2,highway,83,0.5665798166972856,0.10361958388284961,0.24124248959621755,0,learn,,,
,html-keyboard-response,271,676036,0.0-144.0-1.0,null,,,<p></p>,null,,,,,,,,,,,,,,
,do_trial,272,679167,0.0-145.0-0.0,627.3000000119209,,,,,,50,0,0,1,2,highway,84,0.6044651525127632,0.08680818140779877,0.28768052263046884,0,learn,,,
,html-keyboard-response,273,680168,0.0-145.0-1.0,null,,,<p></p>,null,,,,,,,,,,,,,,
,do_trial,274,683026,0.0-146.0-0.0,353.40000000596046,,,,,,51,0,1,0,2,highway,85,0.46400868573219045,0.09845709949638236,0.3150144933727919,0,learn,,,
,html-keyboard-response,275,684028,0.0-146.0-1.0,null,,,<p></p>,null,,,,,,,,,,,,,,
,do_trial,276,686957,0.0-147.0-0.0,424.5,,,,,,51,1,0,1,2,highway,86,0.7001827577485409,0.0501827257726461,0.30834213844552194,1,learn,,,
,html-keyboard-response,277,687958,0.0-147.0-1.0,null,,,<p></p>,null,,,,,,,,,,,,,,
,do_trial,278,690884,0.0-148.0-0.0,421.90000000596046,,,,,,51,1,0,0,2,highway,87,0.6460101259093601,0.08149537331619829,0.35278194315513306,0,learn,,,
,html-keyboard-response,279,691887,0.0-148.0-1.0,null,,,<p></p>,null,,,,,,,,,,,,,,
,do_trial,280,694716,0.0-149.0-0.0,327,,,,,,51,1,0,0,2,highway,88,0.6265628379148015,0.16265478496929783,0.23493853318030902,0,learn,,,
,html-keyboard-response,281,695718,0.0-149.0-1.0,null,,,<p></p>,null,,,,,,,,,,,,,,
,do_trial,282,698767,0.0-150.0-0.0,545.0999999940395,,,,,,50,1,0,1,2,highway,89,0.6685289136530972,0.1221908957315468,0.37192924580222586,0,learn,,,
,html-keyboard-response,283,699768,0.0-150.0-1.0,null,,,<p></p>,null,,,,,,,,,,,,,,
,do_trial,284,702685,0.0-151.0-0.0,413.69999998807907,,,,,,50,0,0,1,2,highway,90,0.5546289864185993,0.15623001234512257,0.47818380286869394,0,learn,,,
,html-keyboard-response,285,703687,0.0-151.0-1.0,null,,,<p></p>,null,,,,,,,,,,,,,,
,do_trial,286,706467,0.0-152.0-0.0,272.7000000178814,,,,,,49,0,0,0,2,highway,91,0.5359111060884127,0.11793079952496056,0.34162927142354305,0,learn,,,
,html-keyboard-response,287,707469,0.0-152.0-1.0,null,,,<p></p>,null,,,,,,,,,,,,,,
,do_trial,288,710264,0.0-153.0-0.0,291.59999999403954,,,,,,49,1,0,0,2,highway,92,0.4724908558110316,0.06457079025497059,0.28234170309962836,1,learn,,,
,html-keyboard-response,289,711267,0.0-153.0-1.0,null,,,<p></p>,null,,,,,,,,,,,,,,
,do_trial,290,714042,0.0-154.0-0.0,269.80000001192093,,,,,,49,1,0,0,2,highway,93,0.6104676547830414,0.1847472673031051,0.340941048682762,1,learn,,,
,html-keyboard-response,291,715045,0.0-154.0-1.0,null,,,<p></p>,null,,,,,,,,,,,,,,
,do_trial,292,718037,0.0-155.0-0.0,487.40000000596046,,,,,,49,0,1,1,2,highway,94,0.5543992194811266,0.16703217325494316,0.40656893555688634,0,learn,,,
,html-keyboard-response,293,719039,0.0-155.0-1.0,null,,,<p></p>,null,,,,,,,,,,,,,,
,do_trial,294,721909,0.0-156.0-0.0,350.59999999403954,,,,,,49,1,0,1,2,highway,95,0.5124988093957535,0.2035067859395804,0.49901462967442045,1,learn,,,
,html-keyboard-response,295,722911,0.0-156.0-1.0,null,,,<p></p>,null,,,,,,,,,,,,,,
,do_trial,296,726471,0.0-157.0-0.0,1058.2000000178814,,,,,,49,1,0,0,2,highway,96,0.6416708812708263,0.05252368207301894,0.35859685586953743,1,learn,,,
,html-keyboard-response,297,727473,0.0-157.0-1.0,null,,,<p></p>,null,,,,,,,,,,,,,,
,do_trial,298,730460,0.0-158.0-0.0,481.69999998807907,,,,,,49,1,0,0,2,highway,97,0.5986605174040904,0.1084930536075871,0.28133482903895807,1,learn,,,
,html-keyboard-response,299,731462,0.0-158.0-1.0,null,,,<p></p>,null,,,,,,,,,,,,,,
,do_trial,300,734424,0.0-159.0-0.0,456.69999998807907,,,,,,49,1,0,0,2,highway,98,0.45814394492769334,0.15126479212660565,0.1276859375974777,1,learn,,,
,html-keyboard-response,301,735426,0.0-159.0-1.0,null,,,<p></p>,null,,,,,,,,,,,,,,
,do_trial,302,738250,0.0-160.0-0.0,319.09999999403954,,,,,,49,0,0,0,2,highway,99,0.41324963329897885,0.12161404201861074,0.18379994288534535,0,learn,,,
,html-keyboard-response,303,739252,0.0-160.0-1.0,null,,,<p></p>,null,,,,,,,,,,,,,,
,do_trial,304,742015,0.0-161.0-0.0,256.7000000178814,,,,,,49,0,0,1,2,highway,100,0.258031227339,0.10770986929658954,0.19116031843022935,0,learn,,,
,html-keyboard-response,305,743016,0.0-161.0-1.0,null,,,<p></p>,null,,,,,,,,,,,,,,
,do_trial,306,745771,0.0-162.0-0.0,250.59999999403954,,,,,,49,1,1,0,2,highway,101,0.4858451199917696,0.1852837300549648,0.18772089024750038,1,learn,,,
,html-keyboard-response,307,746773,0.0-162.0-1.0,null,,,<p></p>,null,,,,,,,,,,,,,,
,do_trial,308,749711,0.0-163.0-0.0,431.40000000596046,,,,,,49,1,0,1,2,highway,102,0.45203824908583173,0.22641241764968079,0.2928928519560853,1,learn,,,
,html-keyboard-response,309,750712,0.0-163.0-1.0,null,,,<p></p>,null,,,,,,,,,,,,,,
,do_trial,310,754075,0.0-164.0-0.0,860,,,,,,49,1,1,1,2,highway,103,0.6387364640579327,0.06802687107896725,0.3656865558887268,1,learn,,,
,html-keyboard-response,311,755077,0.0-164.0-1.0,null,,,<p></p>,null,,,,,,,,,,,,,,
,do_trial,312,758024,0.0-165.0-0.0,440.69999998807907,,,,,,49,1,0,0,2,highway,104,0.5598235810595641,0.07416157382275042,0.3059078523754258,1,learn,,,
,html-keyboard-response,313,759026,0.0-165.0-1.0,null,,,<p></p>,null,,,,,,,,,,,,,,
,do_trial,314,762197,0.0-166.0-0.0,666.4000000059605,,,,,,49,0,0,0,2,highway,105,0.6828587343033329,0.05507065024664312,0.10771909704075498,0,learn,,,
,html-keyboard-response,315,763200,0.0-166.0-1.0,null,,,<p></p>,null,,,,,,,,,,,,,,
,do_trial,316,766180,0.0-167.0-0.0,475,,,,,,50,1,0,0,2,highway,106,0.5737345095706233,0.12691181952569303,0.14341181476064904,0,learn,,,
,html-keyboard-response,317,767182,0.0-167.0-1.0,null,,,<p></p>,null,,,,,,,,,,,,,,
,do_trial,318,770237,0.0-168.0-0.0,552.0999999940395,,,,,,50,0,1,0,2,highway,107,0.5042627620877791,0.056049701097072475,0.2689624679560269,1,learn,,,
,html-keyboard-response,319,771239,0.0-168.0-1.0,null,,,<p></p>,null,,,,,,,,,,,,,,
,do_trial,320,774520,0.0-169.0-0.0,776.2000000178814,,,,,,50,0,0,1,2,highway,108,0.5312923927083689,0.1296726805258286,0.38493066727769987,0,learn,,,
,html-keyboard-response,321,775521,0.0-169.0-1.0,null,,,<p></p>,null,,,,,,,,,,,,,,
,do_trial,322,780296,0.0-170.0-0.0,2271,,,,,,50,1,0,1,2,highway,109,0.6692294176627259,0.08481858717653953,0.373277882260163,0,learn,,,
,html-keyboard-response,323,781298,0.0-170.0-1.0,null,,,<p></p>,null,,,,,,,,,,,,,,
,do_bye,324,782800,0.0-171.0-0.0,null,,,,,,null,,,,,,,,,,,,
,do_travel,325,791804,0.0-172.0-0.0,null,,,,,,null,,,,,,,,,,,,
,do_welcome,326,795814,0.0-172.0-1.0,null,,,,,,null,,,,,,,,,,,,
,do_trial,327,801821,0.0-173.0-0.0,null,,,,,,null,1,0,0,3,forest,110,1,0.08872128891980705,0.3102308835683568,,learn,,,
,html-keyboard-response,328,802823,0.0-173.0-1.0,null,,,<p></p>,null,,,,,,,,,,,,,,
,do_trial,329,808829,0.0-174.0-0.0,null,,,,,,null,1,0,0,3,forest,111,1,0.05150309259815895,0.23082242247682166,,learn,,,
,html-keyboard-response,330,809844,0.0-174.0-1.0,null,,,<p></p>,null,,,,,,,,,,,,,,
,do_trial,331,815850,0.0-175.0-0.0,null,,,,,,null,1,0,1,3,forest,112,0.7534825841571057,0.16329602366811982,0.273854810397379,,learn,,,
,html-keyboard-response,332,816852,0.0-175.0-1.0,null,,,<p></p>,null,,,,,,,,,,,,,,
,do_trial,333,821501,0.0-176.0-0.0,2143,,,,,,49,1,0,0,3,forest,113,0.7508281600137272,0.1281001885147974,0.2440959745407805,1,learn,,,
,html-keyboard-response,334,822503,0.0-176.0-1.0,null,,,<p></p>,null,,,,,,,,,,,,,,
,do_trial,335,825509,0.0-177.0-0.0,501.2999999821186,,,,,,49,1,0,0,3,forest,114,0.7701345712255485,0.12485715235923349,0.47381969843429234,1,learn,,,
,html-keyboard-response,336,826511,0.0-177.0-1.0,null,,,<p></p>,null,,,,,,,,,,,,,,
,do_trial,337,829391,0.0-178.0-0.0,373.59999999403954,,,,,,49,1,0,0,3,forest,115,0.8729990542249693,0.07573473556800005,0.4798357266919648,1,learn,,,
,html-keyboard-response,338,830393,0.0-178.0-1.0,null,,,<p></p>,null,,,,,,,,,,,,,,
,do_trial,339,833266,0.0-179.0-0.0,366.60000002384186,,,,,,49,0,0,0,3,forest,116,0.7623319498373876,0.06960910432364675,0.48995117246310194,0,learn,,,
,html-keyboard-response,340,834267,0.0-179.0-1.0,null,,,<p></p>,null,,,,,,,,,,,,,,
,do_trial,341,837442,0.0-180.0-0.0,670.9000000059605,,,,,,49,1,0,0,3,forest,117,0.6825928339507206,0.17332783090544282,0.279338788072809,1,learn,,,
,html-keyboard-response,342,838445,0.0-180.0-1.0,null,,,<p></p>,null,,,,,,,,,,,,,,
,do_trial,343,841533,0.0-181.0-0.0,585,,,,,,49,1,0,0,3,forest,118,0.6338267474702833,0.15463490610924754,0.33011038218617017,1,learn,,,
,html-keyboard-response,344,842534,0.0-181.0-1.0,null,,,<p></p>,null,,,,,,,,,,,,,,
,do_trial,345,845456,0.0-182.0-0.0,416.5,,,,,,49,1,0,1,3,forest,119,0.7284917166504101,0.08204808560265119,0.33568598088384255,1,learn,,,
,html-keyboard-response,346,846458,0.0-182.0-1.0,null,,,<p></p>,null,,,,,,,,,,,,,,
,do_trial,347,850378,0.0-183.0-0.0,1413.9000000059605,,,,,,49,0,0,1,3,forest,120,0.6410632762893362,0.058138269247720815,0.3055965379014172,0,learn,,,
,html-keyboard-response,348,851379,0.0-183.0-1.0,null,,,<p></p>,null,,,,,,,,,,,,,,
,do_trial,349,854927,0.0-184.0-0.0,1043.5999999940395,,,,,,49,0,0,0,3,forest,121,0.6324606336747778,0.12631654933574996,0.46023069082473717,0,learn,,,
,html-keyboard-response,350,855928,0.0-184.0-1.0,null,,,<p></p>,null,,,,,,,,,,,,,,
,do_trial,351,858731,0.0-185.0-0.0,300,,,,,,50,1,1,1,3,forest,122,0.30054379181144436,0.3547759223174322,0.3466868877752398,1,learn,,,
,html-keyboard-response,352,859733,0.0-185.0-1.0,null,,,<p></p>,null,,,,,,,,,,,,,,
,do_trial,353,862542,0.0-186.0-0.0,302.39999997615814,,,,,,50,1,0,0,3,forest,123,0.12664245639310054,0.3415063060690132,0.3376295457528161,0,learn,,,
,html-keyboard-response,354,863544,0.0-186.0-1.0,null,,,<p></p>,null,,,,,,,,,,,,,,
,do_trial,355,867037,0.0-187.0-0.0,985.5,,,,,,50,0,0,0,3,forest,124,0.18581425123281553,0.4386869936055153,0.3023739251200022,0,learn,,,
,html-keyboard-response,356,868039,0.0-187.0-1.0,null,,,<p></p>,null,,,,,,,,,,,,,,
,do_trial,357,870807,0.0-188.0-0.0,263.10000002384186,,,,,,51,0,0,0,3,forest,125,0.226911426673482,0.636783998430926,0.2997589971390581,0,learn,,,
,html-keyboard-response,358,871809,0.0-188.0-1.0,null,,,<p></p>,null,,,,,,,,,,,,,,
,do_trial,359,874632,0.0-189.0-0.0,321.19999998807907,,,,,,51,0,1,0,3,forest,126,0.2148306625468045,0.6146584373446106,0.36223030791437305,0,learn,,,
,html-keyboard-response,360,875635,0.0-189.0-1.0,null,,,<p></p>,null,,,,,,,,,,,,,,
,do_trial,361,878409,0.0-190.0-0.0,269,,,,,,49,0,0,0,3,forest,127,0.12866792213092804,0.6158808227052134,0.309894117371779,0,learn,,,
,html-keyboard-response,362,879422,0.0-190.0-1.0,null,,,<p></p>,null,,,,,,,,,,,,,,
,do_trial,363,882250,0.0-191.0-0.0,324.80000001192093,,,,,,49,0,1,0,3,forest,128,0.1259150722104785,0.5256941133765585,0.22450955438644607,0,learn,,,
,html-keyboard-response,364,883252,0.0-191.0-1.0,null,,,<p></p>,null,,,,,,,,,,,,,,
,do_trial,365,886062,0.0-192.0-0.0,306.5,,,,,,50,0,0,0,3,forest,129,0.07239866644836263,0.4086097749880619,0.13077087627351996,0,learn,,,
,html-keyboard-response,366,887064,0.0-192.0-1.0,null,,,<p></p>,null,,,,,,,,,,,,,,
,do_trial,367,889784,0.0-193.0-0.0,213.59999999403954,,,,,,50,0,0,1,3,forest,130,0.06942629000495322,0.5581842513380382,0.282370550256234,0,learn,,,
,html-keyboard-response,368,890787,0.0-193.0-1.0,null,,,<p></p>,null,,,,,,,,,,,,,,
,do_trial,369,893603,0.0-194.0-0.0,311.40000000596046,,,,,,51,1,0,0,3,forest,131,0.08349676362655731,0.6658775262772437,0.3506041548663494,0,learn,,,
,html-keyboard-response,370,894604,0.0-194.0-1.0,null,,,<p></p>,null,,,,,,,,,,,,,,
,do_trial,371,897384,0.0-195.0-0.0,276.39999997615814,,,,,,51,1,0,0,3,forest,132,0.30790136052052414,0.5650627108107634,0.3318764776599265,0,learn,,,
,html-keyboard-response,372,898387,0.0-195.0-1.0,null,,,<p></p>,null,,,,,,,,,,,,,,
,do_trial,373,901208,0.0-196.0-0.0,315.19999998807907,,,,,,51,0,1,0,3,forest,133,0.2141076156426918,0.6638477744483422,0.5172477067460004,0,learn,,,
,html-keyboard-response,374,902210,0.0-196.0-1.0,null,,,<p></p>,null,,,,,,,,,,,,,,
,do_trial,375,905007,0.0-197.0-0.0,294.59999999403954,,,,,,50,0,1,0,3,forest,134,0.10402652020525853,0.5441878171193263,0.30996135129478014,1,learn,,,
,html-keyboard-response,376,906010,0.0-197.0-1.0,null,,,<p></p>,null,,,,,,,,,,,,,,
,do_trial,377,908776,0.0-198.0-0.0,261.5,,,,,,50,0,1,0,3,forest,135,0.06817053325860989,0.4673187297503985,0.2507468805632342,1,learn,,,
,html-keyboard-response,378,909778,0.0-198.0-1.0,null,,,<p></p>,null,,,,,,,,,,,,,,
,do_trial,379,912671,0.0-199.0-0.0,389.30000001192093,,,,,,50,0,1,1,3,forest,136,0.07257683421448673,0.6897064964151813,0.2557741720759445,1,learn,,,
,html-keyboard-response,380,913673,0.0-199.0-1.0,null,,,<p></p>,null,,,,,,,,,,,,,,
,do_trial,381,916659,0.0-200.0-0.0,483.69999998807907,,,,,,50,0,1,0,3,forest,137,0.16385968451313965,0.6220806271970654,0.21187153045232712,1,learn,,,
,html-keyboard-response,382,917662,0.0-200.0-1.0,null,,,<p></p>,null,,,,,,,,,,,,,,
,do_trial,383,920399,0.0-201.0-0.0,232.5,,,,,,50,0,1,1,3,forest,138,0.07535522288795209,0.5597608325059323,0.2124296870838469,1,learn,,,
,html-keyboard-response,384,921400,0.0-201.0-1.0,null,,,<p></p>,null,,,,,,,,,,,,,,
,do_trial,385,924480,0.0-202.0-0.0,576.2999999821186,,,,,,50,0,0,0,3,forest,139,0.11598702321808096,0.5178664730953014,0.14800555638192778,0,learn,,,
,html-keyboard-response,386,925482,0.0-202.0-1.0,null,,,<p></p>,null,,,,,,,,,,,,,,
,do_trial,387,928303,0.0-203.0-0.0,315.69999998807907,,,,,,49,0,1,0,3,forest,140,0.061326349312819,0.640692644834906,0.09725594927567946,0,learn,,,
,html-keyboard-response,388,929306,0.0-203.0-1.0,null,,,<p></p>,null,,,,,,,,,,,,,,
,do_trial,389,932046,0.0-204.0-0.0,234,,,,,,49,0,1,0,3,forest,141,0.12737342111701844,0.4526298715314098,0.2405067898788853,0,learn,,,
,html-keyboard-response,390,933047,0.0-204.0-1.0,null,,,<p></p>,null,,,,,,,,,,,,,,
,do_trial,391,935781,0.0-205.0-0.0,229.19999998807907,,,,,,50,1,1,1,3,forest,142,0.08824891051124949,0.6559611874976455,0.32498785102202293,1,learn,,,
,html-keyboard-response,392,936783,0.0-205.0-1.0,null,,,<p></p>,null,,,,,,,,,,,,,,
,do_trial,393,939606,0.0-206.0-0.0,319.59999999403954,,,,,,50,0,0,0,3,forest,143,0.15972625094337822,0.7327721790517958,0.21243188968168714,0,learn,,,
,html-keyboard-response,394,940609,0.0-206.0-1.0,null,,,<p></p>,null,,,,,,,,,,,,,,
,do_trial,395,943348,0.0-207.0-0.0,233.40000000596046,,,,,,50,1,1,0,3,forest,144,0.28586337738667267,0.6077140326643399,0.17777975286963096,1,learn,,,
,html-keyboard-response,396,944351,0.0-207.0-1.0,null,,,<p></p>,null,,,,,,,,,,,,,,
,do_trial,397,947492,0.0-208.0-0.0,636,,,,,,50,0,0,1,3,forest,145,0.22458725761853768,0.6592476248845083,0.29499666464700486,0,learn,,,
,html-keyboard-response,398,948495,0.0-208.0-1.0,null,,,<p></p>,null,,,,,,,,,,,,,,
,do_trial,399,951261,0.0-209.0-0.0,261.2999999821186,,,,,,50,0,1,0,3,forest,146,0.14375951043917387,0.7089958092237443,0.18729108569854502,1,learn,,,
,html-keyboard-response,400,952263,0.0-209.0-1.0,null,,,<p></p>,null,,,,,,,,,,,,,,
,do_trial,401,955331,0.0-210.0-0.0,562.9000000059605,,,,,,50,0,1,0,3,forest,147,0.15346391198097678,0.7125073841573902,0.3277203995260212,1,learn,,,
,html-keyboard-response,402,956333,0.0-210.0-1.0,null,,,<p></p>,null,,,,,,,,,,,,,,
,do_trial,403,959404,0.0-211.0-0.0,564.7999999821186,,,,,,50,1,1,0,3,forest,148,0.21854689616001416,0.8429877660879769,0.41288051294062256,1,learn,,,
,html-keyboard-response,404,960407,0.0-211.0-1.0,null,,,<p></p>,null,,,,,,,,,,,,,,
,do_trial,405,963348,0.0-212.0-0.0,436.69999998807907,,,,,,50,0,0,0,3,forest,149,0.09011110571098734,0.8069961931759878,0.4134174388442611,0,learn,,,
,html-keyboard-response,406,964349,0.0-212.0-1.0,null,,,<p></p>,null,,,,,,,,,,,,,,
,do_bye,407,965857,0.0-213.0-0.0,null,,,,,,null,,,,,,,,,,,,
,do_travel,408,974861,0.0-214.0-0.0,null,,,,,,null,,,,,,,,,,,,
,do_welcome,409,978871,0.0-214.0-1.0,null,,,,,,null,,,,,,,,,,,,
,do_trial,410,982189,0.0-215.0-0.0,813,,,,,,49,0,1,1,4,coast,150,0.16767771068843906,1,0.35501633189126025,0,learn,,,
,html-keyboard-response,411,983190,0.0-215.0-1.0,null,,,<p></p>,null,,,,,,,,,,,,,,
,do_trial,412,986021,0.0-216.0-0.0,327.7000000178814,,,,,,49,0,1,0,4,coast,151,0.17106847389512234,1,0.2382032533419229,0,learn,,,
,html-keyboard-response,413,987023,0.0-216.0-1.0,null,,,<p></p>,null,,,,,,,,,,,,,,
,do_trial,414,990197,0.0-217.0-0.0,668.0999999940395,,,,,,50,0,1,0,4,coast,152,0.05629378586927281,0.8870490297972701,0.15537497809250833,1,learn,,,
,html-keyboard-response,415,991199,0.0-217.0-1.0,null,,,<p></p>,null,,,,,,,,,,,,,,
,do_trial,416,994506,0.0-218.0-0.0,802,,,,,,50,0,1,0,4,coast,153,0.13678056208464606,0.8314651012597538,0.1154257559057086,1,learn,,,
,html-keyboard-response,417,995508,0.0-218.0-1.0,null,,,<p></p>,null,,,,,,,,,,,,,,
,do_trial,418,998311,0.0-219.0-0.0,297.80000001192093,,,,,,50,1,0,0,4,coast,154,0.25854811480319806,0.7886938845433497,0.17638142822236152,0,learn,,,
,html-keyboard-response,419,999312,0.0-219.0-1.0,null,,,<p></p>,null,,,,,,,,,,,,,,
,do_trial,420,1002038,0.0-220.0-0.0,222.89999997615814,,,,,,50,1,0,1,4,coast,155,0.16515643132828203,0.6964611622834629,0.2574316655299632,0,learn,,,
,html-keyboard-response,421,1003040,0.0-220.0-1.0,null,,,<p></p>,null,,,,,,,,,,,,,,
,do_trial,422,1005816,0.0-221.0-0.0,272.2000000178814,,,,,,51,0,1,1,4,coast,156,0.09010864545144218,0.8058920661709317,0.19741354365273558,1,learn,,,
,html-keyboard-response,423,1006818,0.0-221.0-1.0,null,,,<p></p>,null,,,,,,,,,,,,,,
,do_trial,424,1009609,0.0-222.0-0.0,287.40000000596046,,,,,,51,0,0,0,4,coast,157,0.05820155741783709,0.6725084888768988,0.19160792001845736,0,learn,,,
,html-keyboard-response,425,1010611,0.0-222.0-1.0,null,,,<p></p>,null,,,,,,,,,,,,,,
,do_trial,426,1013426,0.0-223.0-0.0,309.19999998807907,,,,,,51,0,1,1,4,coast,158,0.08861367286669357,0.7065429198231564,0.25939762220119944,1,learn,,,
,html-keyboard-response,427,1014429,0.0-223.0-1.0,null,,,<p></p>,null,,,,,,,,,,,,,,
,do_trial,428,1017282,0.0-224.0-0.0,349.5,,,,,,51,0,1,0,4,coast,159,0.14884624230797147,0.6417834623816013,0.33494058967016016,0,learn,,,
,html-keyboard-response,429,1018284,0.0-224.0-1.0,null,,,<p></p>,null,,,,,,,,,,,,,,
,do_trial,430,1021043,0.0-225.0-0.0,252.7999999821186,,,,,,51,1,0,0,4,coast,160,0.2968740428626694,0.7335634888449591,0.23514952888597226,0,learn,,,
,html-keyboard-response,431,1022045,0.0-225.0-1.0,null,,,<p></p>,null,,,,,,,,,,,,,,
,do_trial,432,1024772,0.0-226.0-0.0,222.2000000178814,,,,,,49,1,0,1,4,coast,161,0.38146741963794256,0.6694079821938247,0.305346551937218,1,learn,,,
,html-keyboard-response,433,1025776,0.0-226.0-1.0,null,,,<p></p>,null,,,,,,,,,,,,,,
,do_trial,434,1028500,0.0-227.0-0.0,219.69999998807907,,,,,,49,1,0,1,4,coast,162,0.22751208233743256,0.5684905559421135,0.3066192581224978,1,learn,,,
,html-keyboard-response,435,1029502,0.0-227.0-1.0,null,,,<p></p>,null,,,,,,,,,,,,,,
,do_trial,436,1032394,0.0-228.0-0.0,387,,,,,,49,0,0,1,4,coast,163,0.2913607002986037,0.47719444062418187,0.5913101492154951,0,learn,,,
,html-keyboard-response,437,1033396,0.0-228.0-1.0,null,,,<p></p>,null,,,,,,,,,,,,,,
,do_trial,438,1036165,0.0-229.0-0.0,263.2000000178814,,,,,,49,0,1,1,4,coast,164,0.16268235624014682,0.48581677361876846,0.5204707368911212,0,learn,,,
,html-keyboard-response,439,1037168,0.0-229.0-1.0,null,,,<p></p>,null,,,,,,,,,,,,,,
,do_trial,440,1039914,0.0-230.0-0.0,240.59999999403954,,,,,,50,0,1,1,4,coast,165,0.10014216042756491,0.44552433609985626,0.6807303154490513,1,learn,,,
,html-keyboard-response,441,1040916,0.0-230.0-1.0,null,,,<p></p>,null,,,,,,,,,,,,,,
,do_trial,442,1043948,0.0-231.0-0.0,527.5999999940395,,,,,,50,0,1,1,4,coast,166,0.12863127789224377,0.3441034172827548,0.764073203485542,1,learn,,,
,html-keyboard-response,443,1044950,0.0-231.0-1.0,null,,,<p></p>,null,,,,,,,,,,,,,,
,do_trial,444,1047919,0.0-232.0-0.0,464.2000000178814,,,,,,50,0,0,0,4,coast,167,0.12577716075174364,0.6274620838095376,0.5585312053016933,0,learn,,,
,html-keyboard-response,445,1048921,0.0-232.0-1.0,null,,,<p></p>,null,,,,,,,,,,,,,,
,do_trial,446,1051677,0.0-233.0-0.0,253.19999998807907,,,,,,50,0,0,1,4,coast,168,0.07333212022007253,0.4239123764463213,0.6071594311537399,0,learn,,,
,html-keyboard-response,447,1052679,0.0-233.0-1.0,null,,,<p></p>,null,,,,,,,,,,,,,,
,do_trial,448,1055470,0.0-234.0-0.0,288,,,,,,51,0,0,0,4,coast,169,0.06588133072681841,0.3742980355069069,0.6941248006565423,0,learn,,,
,html-keyboard-response,449,1056486,0.0-234.0-1.0,null,,,<p></p>,null,,,,,,,,,,,,,,
,do_trial,450,1059360,0.0-235.0-0.0,370.90000000596046,,,,,,51,1,0,0,4,coast,170,0.2620442073199017,0.22963611942106688,0.6862392987872907,0,learn,,,
,html-keyboard-response,451,1060362,0.0-235.0-1.0,null,,,<p></p>,null,,,,,,,,,,,,,,
,do_trial,452,1063104,0.0-236.0-0.0,236.5,,,,,,49,0,0,1,4,coast,171,0.24041854315994884,0.28316052210703135,0.6750147321258143,0,learn,,,
,html-keyboard-response,453,1064105,0.0-236.0-1.0,null,,,<p></p>,null,,,,,,,,,,,,,,
,do_trial,454,1066887,0.0-237.0-0.0,278.40000000596046,,,,,,49,0,0,1,4,coast,172,0.06186885758494299,0.3019849533188764,0.5690758266592864,0,learn,,,
,html-keyboard-response,455,1067888,0.0-237.0-1.0,null,,,<p></p>,null,,,,,,,,,,,,,,
,do_trial,456,1070671,0.0-238.0-0.0,279.59999999403954,,,,,,50,0,0,1,4,coast,173,0.07291711876139031,0.2996500939621212,0.7167616684621505,0,learn,,,
,html-keyboard-response,457,1071673,0.0-238.0-1.0,null,,,<p></p>,null,,,,,,,,,,,,,,
,do_trial,458,1074403,0.0-239.0-0.0,224.09999999403954,,,,,,50,0,0,1,4,coast,174,0.24666180784421443,0.1891645580991716,0.6115512045049142,0,learn,,,
,html-keyboard-response,459,1075406,0.0-239.0-1.0,null,,,<p></p>,null,,,,,,,,,,,,,,
,do_trial,460,1078171,0.0-240.0-0.0,259.7999999821186,,,,,,51,1,0,0,4,coast,175,0.2465227632356127,0.31791081226967355,0.5221903412917397,0,learn,,,
,html-keyboard-response,461,1079173,0.0-240.0-1.0,null,,,<p></p>,null,,,,,,,,,,,,,,
,do_trial,462,1081842,0.0-241.0-0.0,163.19999998807907,,,,,,51,0,0,1,4,coast,176,0.18312389724765873,0.3449426492587715,0.5390568818501064,1,learn,,,
,html-keyboard-response,463,1082843,0.0-241.0-1.0,null,,,<p></p>,null,,,,,,,,,,,,,,
,do_trial,464,1085665,0.0-242.0-0.0,317.19999998807907,,,,,,51,0,1,1,4,coast,177,0.13467673198374644,0.3743081507782418,0.4636938719049596,1,learn,,,
,html-keyboard-response,465,1086667,0.0-242.0-1.0,null,,,<p></p>,null,,,,,,,,,,,,,,
,do_trial,466,1089594,0.0-243.0-0.0,422,,,,,,51,0,1,0,4,coast,178,0.1561540011533609,0.48344831662857296,0.5742220904907647,0,learn,,,
,html-keyboard-response,467,1090596,0.0-243.0-1.0,null,,,<p></p>,null,,,,,,,,,,,,,,
,do_trial,468,1093431,0.0-244.0-0.0,329.69999998807907,,,,,,51,0,1,1,4,coast,179,0.2196579478515652,0.4348576077862525,0.43311314046657473,1,learn,,,
,html-keyboard-response,469,1094433,0.0-244.0-1.0,null,,,<p></p>,null,,,,,,,,,,,,,,
,do_trial,470,1097403,0.0-245.0-0.0,465.59999999403954,,,,,,51,0,1,0,4,coast,180,0.2137933575833524,0.4399767394639817,0.3138987274438422,0,learn,,,
,html-keyboard-response,471,1098405,0.0-245.0-1.0,null,,,<p></p>,null,,,,,,,,,,,,,,
,do_trial,472,1101362,0.0-246.0-0.0,454,,,,,,51,1,0,0,4,coast,181,0.3931305142127461,0.2779554286927515,0.29631095477343505,0,learn,,,
,html-keyboard-response,473,1102364,0.0-246.0-1.0,null,,,<p></p>,null,,,,,,,,,,,,,,
,do_trial,474,1105174,0.0-247.0-0.0,307,,,,,,51,1,0,1,4,coast,182,0.357796449032281,0.33069143579276966,0.46283532449998144,1,learn,,,
,html-keyboard-response,475,1106176,0.0-247.0-1.0,null,,,<p></p>,null,,,,,,,,,,,,,,
,do_trial,476,1108980,0.0-248.0-0.0,301.30000001192093,,,,,,51,0,1,1,4,coast,183,0.42785291439099693,0.3369262657907677,0.5131402486826941,1,learn,,,
,html-keyboard-response,477,1109983,0.0-248.0-1.0,null,,,<p></p>,null,,,,,,,,,,,,,,
,do_trial,478,1113124,0.0-249.0-0.0,635.4000000059605,,,,,,51,0,0,0,4,coast,184,0.3380418755278599,0.2516873597558444,0.6052305610381111,0,learn,,,
,html-keyboard-response,479,1114126,0.0-249.0-1.0,null,,,<p></p>,null,,,,,,,,,,,,,,
,do_trial,480,1116908,0.0-250.0-0.0,277.5,,,,,,51,0,0,1,4,coast,185,0.21721297690676372,0.3152992830779067,0.4522262166522012,1,learn,,,
,html-keyboard-response,481,1117909,0.0-250.0-1.0,null,,,<p></p>,null,,,,,,,,,,,,,,
,do_trial,482,1121229,0.0-251.0-0.0,816.8000000119209,,,,,,51,0,1,1,4,coast,186,0.14038387266689678,0.37099700223284765,0.5765916715662308,1,learn,,,
,html-keyboard-response,483,1122231,0.0-251.0-1.0,null,,,<p></p>,null,,,,,,,,,,,,,,
,do_trial,484,1125077,0.0-252.0-0.0,338.7999999821186,,,,,,51,0,1,0,4,coast,187,0.14605427671390106,0.4157709009929582,0.5681152697096681,0,learn,,,
,html-keyboard-response,485,1126079,0.0-252.0-1.0,null,,,<p></p>,null,,,,,,,,,,,,,,
,do_trial,486,1128856,0.0-253.0-0.0,272.90000000596046,,,,,,51,0,0,1,4,coast,188,0.1024294431774911,0.372785326480644,0.5492461711612403,1,learn,,,
,html-keyboard-response,487,1129859,0.0-253.0-1.0,null,,,<p></p>,null,,,,,,,,,,,,,,
,do_trial,488,1132712,0.0-254.0-0.0,348,,,,,,51,0,0,1,4,coast,189,0.06102863469871522,0.30005889724320417,0.5203515144698263,1,learn,,,
,html-keyboard-response,489,1133727,0.0-254.0-1.0,null,,,<p></p>,null,,,,,,,,,,,,,,
,do_bye,490,1135232,0.0-255.0-0.0,null,,,,,,null,,,,,,,,,,,,
,do_travel,491,1144234,0.0-256.0-0.0,null,,,,,,null,,,,,,,,,,,,
,do_welcome,492,1148247,0.0-256.0-1.0,null,,,,,,null,,,,,,,,,,,,
,do_trial,493,1152134,0.0-257.0-0.0,1379.4000000059605,,,,,,49,0,0,1,5,city,190,0.13885194689997335,0.28957870893940185,1,0,learn,,,
,html-keyboard-response,494,1153136,0.0-257.0-1.0,null,,,<p></p>,null,,,,,,,,,,,,,,
,do_trial,495,1155985,0.0-258.0-0.0,344.30000001192093,,,,,,49,0,0,1,5,city,191,0.1174293496125676,0.3351734084566744,1,0,learn,,,
,html-keyboard-response,496,1156986,0.0-258.0-1.0,null,,,<p></p>,null,,,,,,,,,,,,,,
,do_trial,497,1159767,0.0-259.0-0.0,274.5,,,,,,50,0,0,1,5,city,192,0.14856687595113524,0.4084300929741573,0.7443455935219494,0,learn,,,
,html-keyboard-response,498,1160769,0.0-259.0-1.0,null,,,<p></p>,null,,,,,,,,,,,,,,
,do_trial,499,1163515,0.0-260.0-0.0,239.09999999403954,,,,,,50,0,0,1,5,city,193,0.07797247566106538,0.4092076264660216,0.5784435581533469,0,learn,,,
,html-keyboard-response,500,1164516,0.0-260.0-1.0,null,,,<p></p>,null,,,,,,,,,,,,,,
,do_trial,501,1167415,0.0-261.0-0.0,395.90000000596046,,,,,,51,0,0,0,5,city,194,0.10788215391542723,0.5378385612852697,0.6027403844417605,0,learn,,,
,html-keyboard-response,502,1168417,0.0-261.0-1.0,null,,,<p></p>,null,,,,,,,,,,,,,,
,do_trial,503,1171400,0.0-262.0-0.0,478.60000002384186,,,,,,50,1,0,0,5,city,195,0.13728136660109502,0.40695911005593716,0.6887072522555826,0,learn,,,
,html-keyboard-response,504,1172402,0.0-262.0-1.0,null,,,<p></p>,null,,,,,,,,,,,,,,
,do_trial,505,1175167,0.0-263.0-0.0,259.40000000596046,,,,,,51,0,0,1,5,city,196,0.219807184533297,0.1632793387226799,0.6696019328087285,1,learn,,,
,html-keyboard-response,506,1176169,0.0-263.0-1.0,null,,,<p></p>,null,,,,,,,,,,,,,,
,do_trial,507,1179051,0.0-264.0-0.0,377.2000000178814,,,,,,51,0,0,0,5,city,197,0.15538543910998528,0.25999616652493324,0.5081928949883183,0,learn,,,
,html-keyboard-response,508,1180053,0.0-264.0-1.0,null,,,<p></p>,null,,,,,,,,,,,,,,
,do_trial,509,1182854,0.0-265.0-0.0,295,,,,,,51,0,0,1,5,city,198,0.12069532755998143,0.12907193049863663,0.4525822415809091,1,learn,,,
,html-keyboard-response,510,1183857,0.0-265.0-1.0,null,,,<p></p>,null,,,,,,,,,,,,,,
,do_trial,511,1186713,0.0-266.0-0.0,350.09999999403954,,,,,,51,1,0,1,5,city,199,0.15662157842679186,0.28608882968204613,0.5022290311100764,1,learn,,,
,html-keyboard-response,512,1187714,0.0-266.0-1.0,null,,,<p></p>,null,,,,,,,,,,,,,,
,do_trial,513,1190508,0.0-267.0-0.0,288.39999997615814,,,,,,51,1,1,1,5,city,200,0.11951069381244468,0.2502599268801982,0.5171088977594278,1,learn,,,
,html-keyboard-response,514,1191510,0.0-267.0-1.0,null,,,<p></p>,null,,,,,,,,,,,,,,
,do_trial,515,1194288,0.0-268.0-0.0,273.7999999821186,,,,,,51,0,0,1,5,city,201,0.13943275100041633,0.2889222806582471,0.7452048875367209,1,learn,,,
,html-keyboard-response,516,1195290,0.0-268.0-1.0,null,,,<p></p>,null,,,,,,,,,,,,,,
,do_trial,517,1198079,0.0-269.0-0.0,283.40000000596046,,,,,,51,0,0,0,5,city,202,0.06906802092483735,0.3343150489147226,0.6536442138609938,0,learn,,,
,html-keyboard-response,518,1199081,0.0-269.0-1.0,null,,,<p></p>,null,,,,,,,,,,,,,,
,do_trial,519,1202946,0.0-270.0-0.0,1359.0999999940395,,,,,,49,0,0,1,5,city,203,0.08092124737570053,0.41313260139502456,0.5616414951768944,0,learn,,,
,html-keyboard-response,520,1203948,0.0-270.0-1.0,null,,,<p></p>,null,,,,,,,,,,,,,,
,do_trial,521,1206695,0.0-271.0-0.0,241.09999999403954,,,,,,49,0,0,0,5,city,204,0.1143376242717106,0.5306375740911559,0.5971691768781182,0,learn,,,
,html-keyboard-response,522,1207698,0.0-271.0-1.0,null,,,<p></p>,null,,,,,,,,,,,,,,
,do_trial,523,1210524,0.0-272.0-0.0,323.5,,,,,,50,1,1,0,5,city,205,0.266050188352304,0.6631301523576747,0.5284097725887452,1,learn,,,
,html-keyboard-response,524,1211526,0.0-272.0-1.0,null,,,<p></p>,null,,,,,,,,,,,,,,
,do_trial,525,1214673,0.0-273.0-0.0,641.5999999940395,,,,,,50,0,0,0,5,city,206,0.2662294570780431,0.5533655452320378,0.43274379308558497,0,learn,,,
,html-keyboard-response,526,1215676,0.0-273.0-1.0,null,,,<p></p>,null,,,,,,,,,,,,,,
,do_trial,527,1218428,0.0-274.0-0.0,240.40000000596046,,,,,,50,0,1,0,5,city,207,0.09703466651394795,0.5799040081106123,0.40003884517657673,1,learn,,,
,html-keyboard-response,528,1219430,0.0-274.0-1.0,null,,,<p></p>,null,,,,,,,,,,,,,,
,do_trial,529,1222438,0.0-275.0-0.0,502,,,,,,50,0,0,0,5,city,208,0.05814240974577501,0.53694259344813,0.37944455787066267,0,learn,,,
,html-keyboard-response,530,1223440,0.0-275.0-1.0,null,,,<p></p>,null,,,,,,,,,,,,,,
,do_trial,531,1226236,0.0-276.0-0.0,288.59999999403954,,,,,,50,0,1,1,5,city,209,0.12053306874556792,0.5855175864279157,0.3929303344937246,1,learn,,,
,html-keyboard-response,532,1227238,0.0-276.0-1.0,null,,,<p></p>,null,,,,,,,,,,,,,,
,do_trial,533,1230361,0.0-277.0-0.0,618.8000000119209,,,,,,50,0,1,0,5,city,210,0.31349299614908377,0.5646799064190934,0.2732863806433106,1,learn,,,
,html-keyboard-response,534,1231364,0.0-277.0-1.0,null,,,<p></p>,null,,,,,,,,,,,,,,
,do_trial,535,1234638,0.0-278.0-0.0,768.8999999761581,,,,,,50,0,0,1,5,city,211,0.14692106749924919,0.3589832524893901,0.3342648630113523,0,learn,,,
,html-keyboard-response,536,1235640,0.0-278.0-1.0,null,,,<p></p>,null,,,,,,,,,,,,,,
,do_trial,537,1238486,0.0-279.0-0.0,340.5,,,,,,50,0,1,0,5,city,212,0.24311439799905202,0.5601978174152433,0.5251929049494622,1,learn,,,
,html-keyboard-response,538,1239488,0.0-279.0-1.0,null,,,<p></p>,null,,,,,,,,,,,,,,
,do_trial,539,1242503,0.0-280.0-0.0,510.90000000596046,,,,,,50,0,1,0,5,city,213,0.3092690788750174,0.7241866024964599,0.46246937699566304,1,learn,,,
,html-keyboard-response,540,1243506,0.0-280.0-1.0,null,,,<p></p>,null,,,,,,,,,,,,,,
,do_trial,541,1246650,0.0-281.0-0.0,638.6999999880791,,,,,,50,0,1,1,5,city,214,0.27821910799352606,0.5847903924947627,0.43369497713381644,1,learn,,,
,html-keyboard-response,542,1247652,0.0-281.0-1.0,null,,,<p></p>,null,,,,,,,,,,,,,,
,do_trial,543,1250842,0.0-282.0-0.0,684.2000000178814,,,,,,50,0,0,0,5,city,215,0.17072329504460043,0.48466622928150654,0.27097587997164957,0,learn,,,
,html-keyboard-response,544,1251844,0.0-282.0-1.0,null,,,<p></p>,null,,,,,,,,,,,,,,
,do_trial,545,1254721,0.0-283.0-0.0,374.90000000596046,,,,,,51,0,0,0,5,city,216,0.2284192360624665,0.5069468033239408,0.1424809757036841,0,learn,,,
,html-keyboard-response,546,1255723,0.0-283.0-1.0,null,,,<p></p>,null,,,,,,,,,,,,,,
,do_trial,547,1259011,0.0-284.0-0.0,782.1999999880791,,,,,,51,1,0,0,5,city,217,0.13833821177844716,0.5679051439495811,0.10611219700739373,0,learn,,,
,html-keyboard-response,548,1260014,0.0-284.0-1.0,null,,,<p></p>,null,,,,,,,,,,,,,,
,do_trial,549,1263206,0.0-285.0-0.0,686.2999999821186,,,,,,51,0,0,0,5,city,218,0.06498188026505104,0.5462602033873923,0.13406453487749784,0,learn,,,
,html-keyboard-response,550,1264207,0.0-285.0-1.0,null,,,<p></p>,null,,,,,,,,,,,,,,
,do_trial,551,1267108,0.0-286.0-0.0,397.59999999403954,,,,,,51,0,0,0,5,city,219,0.06179797135634223,0.6086136462827162,0.16108499105463775,0,learn,,,
,html-keyboard-response,552,1268110,0.0-286.0-1.0,null,,,<p></p>,null,,,,,,,,,,,,,,
,do_trial,553,1270901,0.0-287.0-0.0,287.5,,,,,,51,0,1,0,5,city,220,0.09904918135085655,0.5685737818536117,0.21369174739183383,0,learn,,,
,html-keyboard-response,554,1271903,0.0-287.0-1.0,null,,,<p></p>,null,,,,,,,,,,,,,,
,do_trial,555,1274637,0.0-288.0-0.0,232.2999999821186,,,,,,50,0,1,0,5,city,221,0.055307510156695536,0.5601411834285314,0.16825629210408988,1,learn,,,
,html-keyboard-response,556,1275639,0.0-288.0-1.0,null,,,<p></p>,null,,,,,,,,,,,,,,
,do_trial,557,1278649,0.0-289.0-0.0,505.2000000178814,,,,,,50,0,1,0,5,city,222,0.09437751616459152,0.5664449249085096,0.23353572859340424,1,learn,,,
,html-keyboard-response,558,1279650,0.0-289.0-1.0,null,,,<p></p>,null,,,,,,,,,,,,,,
,do_trial,559,1282540,0.0-290.0-0.0,376.69999998807907,,,,,,50,0,1,0,5,city,223,0.1734446618224114,0.566438657767364,0.3415389373762393,1,learn,,,
,html-keyboard-response,560,1283542,0.0-290.0-1.0,null,,,<p></p>,null,,,,,,,,,,,,,,
,do_trial,561,1286577,0.0-291.0-0.0,528.1000000238419,,,,,,50,0,1,1,5,city,224,0.12004848363047206,0.5213540173682494,0.414705657332995,1,learn,,,
,html-keyboard-response,562,1287578,0.0-291.0-1.0,null,,,<p></p>,null,,,,,,,,,,,,,,
,do_trial,563,1290399,0.0-292.0-0.0,307.5,,,,,,50,0,0,0,5,city,225,0.12026934485837489,0.5668841056213397,0.25506345498100497,0,learn,,,
,html-keyboard-response,564,1291401,0.0-292.0-1.0,null,,,<p></p>,null,,,,,,,,,,,,,,
,do_trial,565,1294362,0.0-293.0-0.0,454.90000000596046,,,,,,50,0,1,0,5,city,226,0.0901051020812155,0.5843410313998392,0.26650874807920877,1,learn,,,
,html-keyboard-response,566,1295365,0.0-293.0-1.0,null,,,<p></p>,null,,,,,,,,,,,,,,
,do_trial,567,1298529,0.0-294.0-0.0,659.5,,,,,,50,0,1,1,5,city,227,0.05979326481131445,0.5629875913969515,0.3725306415119183,1,learn,,,
,html-keyboard-response,568,1299532,0.0-294.0-1.0,null,,,<p></p>,null,,,,,,,,,,,,,,
,do_trial,569,1302612,0.0-295.0-0.0,577.8000000119209,,,,,,50,0,1,0,5,city,228,0.15531074857899899,0.5732881514467889,0.3332694343572863,1,learn,,,
,html-keyboard-response,570,1303615,0.0-295.0-1.0,null,,,<p></p>,null,,,,,,,,,,,,,,
,do_trial,571,1306632,0.0-296.0-0.0,511.39999997615814,,,,,,50,0,0,1,5,city,229,0.07702891995373037,0.5866137368425057,0.3334360390017798,0,learn,,,
,html-keyboard-response,572,1307633,0.0-296.0-1.0,null,,,<p></p>,null,,,,,,,,,,,,,,
,do_bye,573,1309137,0.0-297.0-0.0,null,,,,,,null,,,,,,,,,,,,
,html-keyboard-response,574,1311201,0.0-297.0-1.0,2063.300000011921,,,<div class=center><p>Nice job plundering!</p><p>Press <b>space</b> to head back to pirate HQ.</p></div>,32,,,,,,,,,,,,,,
,html-keyboard-response,575,1319642,0.0-298.0-0.0,8435.100000023842,,,<div class=center><p>We have to sail past the islands again to get back to pirate HQ. We've just got wind that there is a huge storm approaching, so while we are going to stop at each island, we won't have time to see if our plunders are successful or not.</p><p>Press <b>space</b> to continue.</p></div>,32,,,,,,,,,,,,,,
,judgement_attention_check,576,1324644,0.0-299.0-0.0,null,,,<div class='center'><p>Press <b>Z</b> to use the telescope to see what island is coming next!</p></div>,null,,,,,,,,,,,,0,false,
,do_welcome,577,1329649,0.0-299.0-1.0,null,,,,,,null,,,,,,,,,,,,
,do_trial,578,1335656,0.0-300.0-0.0,null,,,,,,null,0,1,0,0,mountain,230,,,,,judgement,,,
,html-keyboard-response,579,1336659,0.0-300.0-1.0,null,,,<p></p>,null,,,,,,,,,,,,,,
,do_trial,580,1341563,0.0-301.0-0.0,399.2000000178814,,,,,,49,0,0,0,0,mountain,231,,,,0,judgement,,,
,html-keyboard-response,581,1342566,0.0-301.0-1.0,null,,,<p></p>,null,,,,,,,,,,,,,,
,do_trial,582,1348320,0.0-302.0-0.0,1248,,,,,,50,0,0,1,0,mountain,232,,,,0,judgement,,,
,html-keyboard-response,583,1349321,0.0-302.0-1.0,null,,,<p></p>,null,,,,,,,,,,,,,,
,do_trial,584,1354252,0.0-303.0-0.0,425.60000002384186,,,,,,51,0,0,1,0,mountain,233,,,,1,judgement,,,
,html-keyboard-response,585,1355254,0.0-303.0-1.0,null,,,<p></p>,null,,,,,,,,,,,,,,
,do_trial,586,1360180,0.0-304.0-0.0,423.19999998807907,,,,,,49,0,0,0,0,mountain,234,,,,0,judgement,,,
,html-keyboard-response,587,1361182,0.0-304.0-1.0,null,,,<p></p>,null,,,,,,,,,,,,,,
,html-keyboard-response,588,1361184,0.0-305.0-0.0,null,,,,null,,,,,,,,,,,,,,
,judgement_attention_check,589,1363447,0.0-306.0-0.0,2262.0999999940395,,,<div class='center'><p>Press <b>Z</b> to use the telescope to see what island is coming next!</p></div>,90,,,,,,,,,,,,1,true,
,do_welcome,590,1368453,0.0-306.0-1.0,null,,,,,,null,,,,,,,,,,,,
,do_trial,591,1374189,0.0-307.0-0.0,1232.4000000059605,,,,,,50,0,1,0,1,countryside,235,,,,1,judgement,,,
,html-keyboard-response,592,1375192,0.0-307.0-1.0,null,,,<p></p>,null,,,,,,,,,,,,,,
,do_trial,593,1380147,0.0-308.0-0.0,448.90000000596046,,,,,,51,1,0,1,1,countryside,236,,,,1,judgement,,,
,html-keyboard-response,594,1381149,0.0-308.0-1.0,null,,,<p></p>,null,,,,,,,,,,,,,,
,do_trial,595,1385970,0.0-309.0-0.0,316.09999999403954,,,,,,49,0,0,0,1,countryside,237,,,,0,judgement,,,
,html-keyboard-response,596,1386972,0.0-309.0-1.0,null,,,<p></p>,null,,,,,,,,,,,,,,
,do_trial,597,1391762,0.0-310.0-0.0,286.09999999403954,,,,,,50,1,1,0,1,countryside,238,,,,1,judgement,,,
,html-keyboard-response,598,1392764,0.0-310.0-1.0,null,,,<p></p>,null,,,,,,,,,,,,,,
,do_trial,599,1397555,0.0-311.0-0.0,285,,,,,,51,0,1,1,1,countryside,239,,,,1,judgement,,,
,html-keyboard-response,600,1398557,0.0-311.0-1.0,null,,,<p></p>,null,,,,,,,,,,,,,,
,html-keyboard-response,601,1398559,0.0-312.0-0.0,null,,,,null,,,,,,,,,,,,,,
,judgement_attention_check,602,1400753,0.0-313.0-0.0,2192.4000000059605,,,<div class='center'><p>Press <b>Z</b> to use the telescope to see what island is coming next!</p></div>,90,,,,,,,,,,,,2,true,
,do_welcome,603,1405758,0.0-313.0-1.0,null,,,,,,null,,,,,,,,,,,,
,do_trial,604,1410871,0.0-314.0-0.0,606.4000000059605,,,,,,49,1,0,1,2,highway,240,,,,1,judgement,,,
,html-keyboard-response,605,1411872,0.0-314.0-1.0,null,,,<p></p>,null,,,,,,,,,,,,,,
,do_trial,606,1416791,0.0-315.0-0.0,414.90000000596046,,,,,,50,0,1,0,2,highway,241,,,,1,judgement,,,
,html-keyboard-response,607,1417793,0.0-315.0-1.0,null,,,<p></p>,null,,,,,,,,,,,,,,
,do_trial,608,1422747,0.0-316.0-0.0,451.2000000178814,,,,,,51,0,0,0,2,highway,242,,,,0,judgement,,,
,html-keyboard-response,609,1423749,0.0-316.0-1.0,null,,,<p></p>,null,,,,,,,,,,,,,,
,do_trial,610,1429019,0.0-317.0-0.0,758.8000000119209,,,,,,49,1,0,0,2,highway,243,,,,1,judgement,,,
,html-keyboard-response,611,1430021,0.0-317.0-1.0,null,,,<p></p>,null,,,,,,,,,,,,,,
,do_trial,612,1434898,0.0-318.0-0.0,372.59999999403954,,,,,,50,1,0,1,2,highway,244,,,,0,judgement,,,
,html-keyboard-response,613,1435900,0.0-318.0-1.0,null,,,<p></p>,null,,,,,,,,,,,,,,
,html-keyboard-response,614,1435901,0.0-319.0-0.0,null,,,,null,,,,,,,,,,,,,,
,judgement_attention_check,615,1440903,0.0-320.0-0.0,null,,,<div class='center'><p>Press <b>Z</b> to use the telescope to see what island is coming next!</p></div>,null,,,,,,,,,,,,3,false,
,do_welcome,616,1445907,0.0-320.0-1.0,null,,,,,,null,,,,,,,,,,,,
,do_trial,617,1451081,0.0-321.0-0.0,665,,,,,,51,0,0,1,3,forest,245,,,,1,judgement,,,
,html-keyboard-response,618,1452083,0.0-321.0-1.0,null,,,<p></p>,null,,,,,,,,,,,,,,
,do_trial,619,1457100,0.0-322.0-0.0,511.30000001192093,,,,,,49,0,0,0,3,forest,246,,,,0,judgement,,,
,html-keyboard-response,620,1458102,0.0-322.0-1.0,null,,,<p></p>,null,,,,,,,,,,,,,,
,do_trial,621,1462940,0.0-323.0-0.0,334.90000000596046,,,,,,50,1,0,0,3,forest,247,,,,0,judgement,,,
,html-keyboard-response,622,1463941,0.0-323.0-1.0,null,,,<p></p>,null,,,,,,,,,,,,,,
,do_trial,623,1468965,0.0-324.0-0.0,520.0999999940395,,,,,,51,0,1,0,3,forest,248,,,,0,judgement,,,
,html-keyboard-response,624,1469966,0.0-324.0-1.0,null,,,<p></p>,null,,,,,,,,,,,,,,
,do_trial,625,1474871,0.0-325.0-0.0,401.89999997615814,,,,,,49,1,0,0,3,forest,249,,,,1,judgement,,,
,html-keyboard-response,626,1475872,0.0-325.0-1.0,null,,,<p></p>,null,,,,,,,,,,,,,,
,html-keyboard-response,627,1475873,0.0-326.0-0.0,null,,,,null,,,,,,,,,,,,,,
,judgement_attention_check,628,1480875,0.0-327.0-0.0,null,,,<div class='center'><p>Press <b>Z</b> to use the telescope to see what island is coming next!</p></div>,null,,,,,,,,,,,,4,false,
,do_welcome,629,1485879,0.0-327.0-1.0,null,,,,,,null,,,,,,,,,,,,
,do_trial,630,1491077,0.0-328.0-0.0,694.2999999821186,,,,,,50,0,1,1,4,coast,250,,,,1,judgement,,,
,html-keyboard-response,631,1492079,0.0-328.0-1.0,null,,,<p></p>,null,,,,,,,,,,,,,,
,do_trial,632,1497612,0.0-329.0-0.0,1029.9000000059605,,,,,,51,0,0,0,4,coast,251,,,,0,judgement,,,
,html-keyboard-response,633,1498614,0.0-329.0-1.0,null,,,<p></p>,null,,,,,,,,,,,,,,
,do_trial,634,1503949,0.0-330.0-0.0,828.3999999761581,,,,,,49,0,0,1,4,coast,252,,,,0,judgement,,,
,html-keyboard-response,635,1504955,0.0-330.0-1.0,null,,,<p></p>,null,,,,,,,,,,,,,,
,do_trial,636,1509919,0.0-331.0-0.0,459.60000002384186,,,,,,50,0,0,0,4,coast,253,,,,0,judgement,,,
,html-keyboard-response,637,1510921,0.0-331.0-1.0,null,,,<p></p>,null,,,,,,,,,,,,,,
,do_trial,638,1516277,0.0-332.0-0.0,853.1000000238419,,,,,,51,0,1,0,4,coast,254,,,,0,judgement,,,
,html-keyboard-response,639,1517280,0.0-332.0-1.0,null,,,<p></p>,null,,,,,,,,,,,,,,
,html-keyboard-response,640,1517281,0.0-333.0-0.0,null,,,,null,,,,,,,,,,,,,,
,judgement_attention_check,641,1522283,0.0-334.0-0.0,null,,,<div class='center'><p>Press <b>Z</b> to use the telescope to see what island is coming next!</p></div>,null,,,,,,,,,,,,5,false,
,do_welcome,642,1527287,0.0-334.0-1.0,null,,,,,,null,,,,,,,,,,,,
,do_trial,643,1533294,0.0-335.0-0.0,null,,,,,,null,0,0,0,5,city,255,,,,,judgement,,,
,html-keyboard-response,644,1534296,0.0-335.0-1.0,null,,,<p></p>,null,,,,,,,,,,,,,,
,do_trial,645,1539647,0.0-336.0-0.0,844,,,,,,50,1,0,0,5,city,256,,,,0,judgement,,,
,html-keyboard-response,646,1540649,0.0-336.0-1.0,null,,,<p></p>,null,,,,,,,,,,,,,,
,do_trial,647,1545527,0.0-337.0-0.0,372,,,,,,50,1,0,0,5,city,257,,,,0,judgement,,,
,html-keyboard-response,648,1546529,0.0-337.0-1.0,null,,,<p></p>,null,,,,,,,,,,,,,,
,do_trial,649,1551379,0.0-338.0-0.0,344.5,,,,,,50,0,0,1,5,city,258,,,,0,judgement,,,
,html-keyboard-response,650,1552381,0.0-338.0-1.0,null,,,<p></p>,null,,,,,,,,,,,,,,
,do_trial,651,1557313,0.0-339.0-0.0,415.40000000596046,,,,,,50,0,0,0,5,city,259,,,,0,judgement,,,
,html-keyboard-response,652,1558315,0.0-339.0-1.0,null,,,<p></p>,null,,,,,,,,,,,,,,
,html-keyboard-response,653,1561257,0.0-340.0-0.0,2940.5,,,<div style='position: fixed; top: 0; left: 0; width: 100%; height: 100%; background-color: white; display: flex; align-items: center; justify-content: center;'><div><h2>We've made it to Pirate HQ!</h2><p>Press <b>space</b> to proceed.</p></div></div>,32,,,,,,,,,,,,,,
,do_pick_best_pirate,654,1567224,0.0-341.0-0.0,4947.800000011921,,,,,,49,,0,,,,,,,,,,mountain
,do_pick_secondBest_pirate,655,1571336,0.0-341.0-1.0,3106.9000000059605,,,,,,50,,0,,,,,,,,,,mountain
,do_pick_best_pirate,656,1576852,0.0-342.0-0.0,4511,,,,,,49,,1,,,,,,,,,,countryside
,do_pick_secondBest_pirate,657,1578720,0.0-342.0-1.0,859.7999999821186,,,,,,50,,1,,,,,,,,,,countryside
,do_pick_best_pirate,658,1582049,0.0-343.0-0.0,2323.9000000059605,,,,,,50,,2,,,,,,,,,,highway
,do_pick_secondBest_pirate,659,1585802,0.0-343.0-1.0,2740,,,,,,49,,2,,,,,,,,,,highway
,do_pick_best_pirate,660,1588587,0.0-344.0-0.0,1778.9000000059605,,,,,,50,,3,,,,,,,,,,forest
,do_pick_secondBest_pirate,661,1592188,0.0-344.0-1.0,2594.199999988079,,,,,,49,,3,,,,,,,,,,forest
,do_pick_best_pirate,662,1597656,0.0-345.0-0.0,4458.5,,,,,,51,,4,,,,,,,,,,coast
,do_pick_secondBest_pirate,663,1599888,0.0-345.0-1.0,1226.4000000059605,,,,,,50,,4,,,,,,,,,,coast
,do_pick_best_pirate,664,1601954,0.0-346.0-0.0,1060.699999988079,,,,,,51,,5,,,,,,,,,,city
,do_pick_secondBest_pirate,665,1603869,0.0-346.0-1.0,904.5,,,,,,50,,5,,,,,,,,,,city
