success,trial_type,trial_index,time_elapsed,internal_node_id,rt,responses,subject_id,stimulus,key_press,prompt,response,choice_outcomes,context_n,context_img_id,trial_n,pR_red,pR_white,pR_black,outcome,phase,passed,island_num,context_im,contextArray_ind,pRew_Red,pRew_White,pRew_Black
true,fullscreen,0,2692,0.0-0.0,,,,,,,,,,,,,,,,,,,,,,,
,survey-html-form,1,54130,0.0-1.0,51435.20000000007,{worker_id:Trenton Yu},Trenton Yu,,,,,,,,,,,,,,,,,,,,
,instruc1,2,56133,0.0-2.0,null,,Trenton Yu,<div class='center'><p>Welcome! This study will last ~30 minutes. After the instructions there will be a practice game and quiz to make sure you understand the task. Today you will be the head captain of a pirate ship traveling around the world to different islands. Here is an overview of what you will be doing:</p><br><p> 1. Try to find the most successful pirate on 6 different islands</p><p> 2. Recall which pirates did the best on each island</p><br><p>,null,<div class='center'><p>Welcome! This study will last ~30 minutes. After the instructions there will be a practice game and quiz to make sure you understand the task. Today you will be the head captain of a pirate ship traveling around the world to different islands. Here is an overview of what you will be doing:</p><br><p> 1. Try to find the most successful pirate on 6 different islands</p><p> 2. Recall which pirates did the best on each island</p><br><p>,,,,,,,,,,,,,,,,,
,html-keyboard-response,3,80930,0.0-3.0,24794.70000000007,,,<div class='center'><p>Welcome! This study will last ~30 minutes. After the instructions there will be a practice game and quiz to make sure you understand the task. Today you will be the head captain of a pirate ship traveling around the world to different islands. Here is an overview of what you will be doing:</p><br><p> 1. Try to find the most successful pirate on 6 different islands</p><p> 2. Recall which pirates did the best on each island</p><br><p><p><b>[Press the space bar to continue]</b></p></div>,32,,,,,,,,,,,,,,,,,,
,instruc2,4,82933,0.0-4.0,null,,,<div class='center'><p>You are going to visit these 6 islands on your journey. You'll be able to see these islands from your ship.</p><p><img src='../static/images/contexts/all_contexts.png' height='500'></p></div>,null,<div class='center'><p>You are going to visit these 6 islands on your journey. You'll be able to see these islands from your ship.</p><p><img src='../static/images/contexts/all_contexts.png' height='500'></p></div>,,,,,,,,,,,,,,,,,
,html-keyboard-response,5,87607,0.0-5.0,4672.099999999977,,,<div class='center'><p>You are going to visit these 6 islands on your journey. You'll be able to see these islands from your ship.</p><p><img src='../static/images/contexts/all_contexts.png' height='500'></p><p><b>[Press the space bar to continue]</b></p></div>,32,,,,,,,,,,,,,,,,,,
,instruc4,6,89610,0.0-6.0,null,,,<div class='center'><p>As the head captain, you do not have to rob any ships yourself. Another pirate will be doing the robbing for you. First, you will choose a pirate to rob the next ship.</p><p><img src='../static/images/tutorial/pirates_all_crop.png' height='200'></p><p>Then, you'll see if the pirate successfully robbed the ship of their gold. If they were successful, then you'll get a stack of gold coins like this:</p><p><img src='../static/images/tutorial/reward.png' height='150'></p><p> If they were <b>not</b> successful, then you'll get no gold coins, and you'll see a big red x like this: </p><p><img src='../static/images/tutorial/reward_no.png' height='150'></p><p> How much bonus money you make is based on how many gold coins you collect.</p><div>,null,<div class='center'><p>As the head captain, you do not have to rob any ships yourself. Another pirate will be doing the robbing for you. First, you will choose a pirate to rob the next ship.</p><p><img src='../static/images/tutorial/pirates_all_crop.png' height='200'></p><p>Then, you'll see if the pirate successfully robbed the ship of their gold. If they were successful, then you'll get a stack of gold coins like this:</p><p><img src='../static/images/tutorial/reward.png' height='150'></p><p> If they were <b>not</b> successful, then you'll get no gold coins, and you'll see a big red x like this: </p><p><img src='../static/images/tutorial/reward_no.png' height='150'></p><p> How much bonus money you make is based on how many gold coins you collect.</p><div>,,,,,,,,,,,,,,,,,
,html-keyboard-response,7,102449,0.0-7.0,12837.099999999977,,,<div class='center'><p>As the head captain, you do not have to rob any ships yourself. Another pirate will be doing the robbing for you. First, you will choose a pirate to rob the next ship.</p><p><img src='../static/images/tutorial/pirates_all_crop.png' height='200'></p><p>Then, you'll see if the pirate successfully robbed the ship of their gold. If they were successful, then you'll get a stack of gold coins like this:</p><p><img src='../static/images/tutorial/reward.png' height='150'></p><p> If they were <b>not</b> successful, then you'll get no gold coins, and you'll see a big red x like this: </p><p><img src='../static/images/tutorial/reward_no.png' height='150'></p><p> How much bonus money you make is based on how many gold coins you collect.</p><div><p><b>[Press the space bar to continue]</b></p></div>,32,,,,,,,,,,,,,,,,,,
,instruc5,8,116047,0.0-8.0,13597.199999999953,,,<div class='center'><p>Even the most skilled pirate can not rob EVERY ship.</p><p> Some ships will have very strong protections against pirate attacks.</p><p> Blue beard, here, is very, very good at robbing ships, but he won't be successful every time he tries to rob one.</p><p> You can press the <b>'1'</b> key on the keyboard to choose him.</p><p> Try choosing him 10 times to see how often he succeeds at robbing a ship. </p><p><img src='../static/images/tutorial/blue.png' height='500'></p></div>,49,<div class='center'><p>Even the most skilled pirate can not rob EVERY ship.</p><p> Some ships will have very strong protections against pirate attacks.</p><p> Blue beard, here, is very, very good at robbing ships, but he won't be successful every time he tries to rob one.</p><p> You can press the <b>'1'</b> key on the keyboard to choose him.</p><p> Try choosing him 10 times to see how often he succeeds at robbing a ship. </p><p><img src='../static/images/tutorial/blue.png' height='500'></p></div>,,,,,,,,,,,,,,,,,
,html-keyboard-response,9,117551,0.0-9.0,null,,,<div class='center'><p><img src='../static/images/tutorial/blue_win.png' height='500'></p></div>,null,,,,,,,,,,,,,,,,,,
,html-keyboard-response,10,117675,0.0-10.0,123.09999999997672,,,<div class='center'><img src='../static/images/tutorial/blue.png' height='500'></p></div>,49,,,,,,,,,,,,,,,,,,
,html-keyboard-response,11,119178,0.0-11.0,null,,,<div class='center'><p><img src='../static/images/tutorial/blue_win.png' height='500'></p></div>,null,,,,,,,,,,,,,,,,,,
,html-keyboard-response,12,119727,0.0-12.0,548,,,<div class='center'><img src='../static/images/tutorial/blue.png' height='500'></p></div>,49,,,,,,,,,,,,,,,,,,
,html-keyboard-response,13,121230,0.0-13.0,null,,,<div class='center'><p><img src='../static/images/tutorial/blue_win.png' height='500'></p></div>,null,,,,,,,,,,,,,,,,,,
,html-keyboard-response,14,121622,0.0-14.0,390.9000000000233,,,<div class='center'><img src='../static/images/tutorial/blue.png' height='500'></p></div>,49,,,,,,,,,,,,,,,,,,
,html-keyboard-response,15,123125,0.0-15.0,null,,,<div class='center'><p><img src='../static/images/tutorial/blue_no_win.png' height='500'></p></div>,null,,,,,,,,,,,,,,,,,,
,html-keyboard-response,16,123393,0.0-16.0,266.5,,,<div class='center'><img src='../static/images/tutorial/blue.png' height='500'></p></div>,49,,,,,,,,,,,,,,,,,,
,html-keyboard-response,17,124895,0.0-17.0,null,,,<div class='center'><p><img src='../static/images/tutorial/blue_win.png' height='500'></p></div>,null,,,,,,,,,,,,,,,,,,
,html-keyboard-response,18,125164,0.0-18.0,267.5999999999767,,,<div class='center'><img src='../static/images/tutorial/blue.png' height='500'></p></div>,49,,,,,,,,,,,,,,,,,,
,html-keyboard-response,19,126667,0.0-19.0,null,,,<div class='center'><p><img src='../static/images/tutorial/blue_win.png' height='500'></p></div>,null,,,,,,,,,,,,,,,,,,
,html-keyboard-response,20,127137,0.0-20.0,468.30000000004657,,,<div class='center'><img src='../static/images/tutorial/blue.png' height='500'></p></div>,49,,,,,,,,,,,,,,,,,,
,html-keyboard-response,21,128640,0.0-21.0,null,,,<div class='center'><p><img src='../static/images/tutorial/blue_win.png' height='500'></p></div>,null,,,,,,,,,,,,,,,,,,
,html-keyboard-response,22,128991,0.0-22.0,350.19999999995343,,,<div class='center'><img src='../static/images/tutorial/blue.png' height='500'></p></div>,49,,,,,,,,,,,,,,,,,,
,html-keyboard-response,23,130494,0.0-23.0,null,,,<div class='center'><p><img src='../static/images/tutorial/blue_no_win.png' height='500'></p></div>,null,,,,,,,,,,,,,,,,,,
,html-keyboard-response,24,130807,0.0-24.0,311.9000000000233,,,<div class='center'><img src='../static/images/tutorial/blue.png' height='500'></p></div>,49,,,,,,,,,,,,,,,,,,
,html-keyboard-response,25,132309,0.0-25.0,null,,,<div class='center'><p><img src='../static/images/tutorial/blue_win.png' height='500'></p></div>,null,,,,,,,,,,,,,,,,,,
,html-keyboard-response,26,132593,0.0-26.0,282.79999999993015,,,<div class='center'><img src='../static/images/tutorial/blue.png' height='500'></p></div>,49,,,,,,,,,,,,,,,,,,
,html-keyboard-response,27,134096,0.0-27.0,null,,,<div class='center'><p><img src='../static/images/tutorial/blue_win.png' height='500'></p></div>,null,,,,,,,,,,,,,,,,,,
,instruc6,28,136098,0.0-28.0,null,,,<div class='center'><p> See, he succeeded in robbing the ships most of the time but not every time. </p></div>,null,<div class='center'><p> See, he succeeded in robbing the ships most of the time but not every time. </p></div>,,,,,,,,,,,,,,,,,
,html-keyboard-response,29,137016,0.0-29.0,917.1999999999534,,,<div class='center'><p> See, he succeeded in robbing the ships most of the time but not every time. </p><p><b>[Press the space bar to continue]</b></p></div>,32,,,,,,,,,,,,,,,,,,
,html-keyboard-response,30,144277,0.0-30.0,7258.800000000047,,,<div class='center'><p>From these three pirates, you will get to choose which one you want to rob the next ship. <p>Press the <b>'1'</b> key on your keyboard to pick the pirate with the red beard.</p><p> Press <b>'2'</b> to pick the pirate with the white beard.</p><p> Press <b>'3'</b> to pick the pirate with the black beard.</p><p>Try picking a pirate now!</p><p><img src='../static/images/tutorial/all_pirates.png' height='500'></p></div>,49,,,,,,,,,,,,,,,,,,
,audio-keyboard-response,31,146590,0.0-31.0-0.0,2309.6999999999534,,,../static/audio/clip_8_chosen_pirate_win.m4a,32,,,,,,,,,,,,,,,,,,
,html-keyboard-response,32,148433,0.0-31.0-1.0,1841.5999999999767,,,<div class='center'><p>Now try choosing another.</p><p><img src='../static/images/tutorial/all_pirates.png' height='500'></p></div>,50,,,,,,,,,,,,,,,,,,
,audio-keyboard-response,33,149630,0.0-32.0-0.0,1195.3000000000466,,,../static/audio/clip_10_chosen_pirate_loss.m4a,32,,,,,,,,,,,,,,,,,,
,instruc9,34,151633,0.0-33.0-0.0,null,,,<div class='center'><p>If you don't make your choice fast enough, you'll have to wait a few seconds before you can make another one. </p><p><img src='../static/images/miscellaneous/hurry_up.png' height='500'></p></div>,null,<div class='center'><p>If you don't make your choice fast enough, you'll have to wait a few seconds before you can make another one. </p><p><img src='../static/images/miscellaneous/hurry_up.png' height='500'></p></div>,,,,,,,,,,,,,,,,,
,html-keyboard-response,35,152979,0.0-33.0-1.0,1344.2000000000698,,,<div class='center'><p>If you don't make your choice fast enough, you'll have to wait a few seconds before you can make another one. </p><p><img src='../static/images/miscellaneous/hurry_up.png' height='500'></p><p><b>[Press the space bar to continue]</b></p></div>,32,,,,,,,,,,,,,,,,,,
,instruc11,36,154982,0.0-33.0-2.0,null,,,<div class='center'><p>How successful a pirate is at robbing ships will depend on the island you're on.</p><p> A pirate may have visited this island many times before and gained a lot of practice robbing ships there.</p><p>So, they're more likely to be successful than a pirate who has never visited the island before.</p></div>,null,<div class='center'><p>How successful a pirate is at robbing ships will depend on the island you're on.</p><p> A pirate may have visited this island many times before and gained a lot of practice robbing ships there.</p><p>So, they're more likely to be successful than a pirate who has never visited the island before.</p></div>,,,,,,,,,,,,,,,,,
,html-keyboard-response,37,161504,0.0-33.0-3.0,6521.599999999977,,,<div class='center'><p>How successful a pirate is at robbing ships will depend on the island you're on.</p><p> A pirate may have visited this island many times before and gained a lot of practice robbing ships there.</p><p>So, they're more likely to be successful than a pirate who has never visited the island before.</p><p><b>[Press the space bar to continue]</b></p></div>,32,,,,,,,,,,,,,,,,,,
,instruc12,38,163507,0.0-33.0-4.0,null,,,<div class='center'><p>How successful a pirate is at robbing ships can also change over the time spent on the island. </p><p> Ships may hear from islanders about the pirates coming and will improve their protections against the attack. This may make it harder to rob them.</p><p> Ships may also become lazy and weaken the strength of their protections. This may make it easier to rob them.</p><br><p>Things are always changing on the high seas! So, try your best to pay attention!</p><p><img src='../static/images/tutorial/contingency.png' height='500'></p></div>,null,<div class='center'><p>How successful a pirate is at robbing ships can also change over the time spent on the island. </p><p> Ships may hear from islanders about the pirates coming and will improve their protections against the attack. This may make it harder to rob them.</p><p> Ships may also become lazy and weaken the strength of their protections. This may make it easier to rob them.</p><br><p>Things are always changing on the high seas! So, try your best to pay attention!</p><p><img src='../static/images/tutorial/contingency.png' height='500'></p></div>,,,,,,,,,,,,,,,,,
,html-keyboard-response,39,177345,0.0-33.0-5.0,13835.599999999977,,,<div class='center'><p>How successful a pirate is at robbing ships can also change over the time spent on the island. </p><p> Ships may hear from islanders about the pirates coming and will improve their protections against the attack. This may make it harder to rob them.</p><p> Ships may also become lazy and weaken the strength of their protections. This may make it easier to rob them.</p><br><p>Things are always changing on the high seas! So, try your best to pay attention!</p><p><img src='../static/images/tutorial/contingency.png' height='500'></p><p><b>[Press the space bar to continue]</b></p></div>,32,,,,,,,,,,,,,,,,,,
,instruc13,40,179347,0.0-33.0-6.0,null,,,<div class='center'><p>Let's go over the instructions quickly again. You have one thing to do: </p><b><p> Pick the pirate who is the best at robbing ships on the current island. </p></b><b><p> The amount of bonus money you win depends on it.</p><p><br><p>Let's try a practice game. The game will start by showing you an island. Pick a pirate using the <b> 1, 2, 3 </b> keys on your keyboard to get it to try and rob one of the ships leaving the island.</p><p>This is just a practice game, so you're not playing for money. </p><p> Good luck! This game will be very difficult but try your best!</p></div>,null,<div class='center'><p>Let's go over the instructions quickly again. You have one thing to do: </p><b><p> Pick the pirate who is the best at robbing ships on the current island. </p></b><b><p> The amount of bonus money you win depends on it.</p><p><br><p>Let's try a practice game. The game will start by showing you an island. Pick a pirate using the <b> 1, 2, 3 </b> keys on your keyboard to get it to try and rob one of the ships leaving the island.</p><p>This is just a practice game, so you're not playing for money. </p><p> Good luck! This game will be very difficult but try your best!</p></div>,,,,,,,,,,,,,,,,,
,html-keyboard-response,41,188721,0.0-33.0-7.0,9372.400000000023,,,<div class='center'><p>Let's go over the instructions quickly again. You have one thing to do: </p><b><p> Pick the pirate who is the best at robbing ships on the current island. </p></b><b><p> The amount of bonus money you win depends on it.</p><p><br><p>Let's try a practice game. The game will start by showing you an island. Pick a pirate using the <b> 1, 2, 3 </b> keys on your keyboard to get it to try and rob one of the ships leaving the island.</p><p>This is just a practice game, so you're not playing for money. </p><p> Good luck! This game will be very difficult but try your best!</p><p><b>[Press the space bar to continue]</b></p></div>,32,,,,,,,,,,,,,,,,,,
,do_welcome,42,192729,0.0-33.0-8.0,null,,,,,,null,,,,,,,,,,,,,,,,
,do_trial,43,196271,0.0-33.0-9.0,1034.5999999999767,,,,,,49,1,0,0,,,,,,,,,,,,,,,
,html-keyboard-response,44,197274,0.0-34.0-0.0,null,,,<p></p>,null,,,,,,,,,,,,,,,,,,
,do_trial,45,200343,0.0-34.0-1.0,562.7000000000698,,,,,,50,1,1,0,,,,,,,,,,,,,,,
,html-keyboard-response,46,201347,0.0-35.0-0.0,null,,,<p></p>,null,,,,,,,,,,,,,,,,,,
,do_trial,47,204437,0.0-35.0-1.0,583.6999999999534,,,,,,51,1,0,1,,,,,,,,,,,,,,,
,html-keyboard-response,48,205440,0.0-36.0-0.0,null,,,<p></p>,null,,,,,,,,,,,,,,,,,,
,do_trial,49,208635,0.0-36.0-1.0,690.9000000000233,,,,,,49,0,1,0,,,,,,,,,,,,,,,
,html-keyboard-response,50,209638,0.0-37.0-0.0,null,,,<p></p>,null,,,,,,,,,,,,,,,,,,
,do_trial,51,212608,0.0-37.0-1.0,466,,,,,,50,1,0,0,,,,,,,,,,,,,,,
,do_bye,52,214116,0.0-38.0-0.0,null,,,,,,null,,,,,,,,,,,,,,,,
,do_travel,53,223118,0.0-38.0-1.0,null,,,,,,null,,,,,,,,,,,,,,,,
,do_welcome,54,227125,0.0-38.0-2.0,null,,,,,,null,,,,,,,,,,,,,,,,
,do_trial,55,230349,0.0-38.0-3.0,717.5,,,,,,49,1,0,0,,,,,,,,,,,,,,,
,html-keyboard-response,56,231351,0.0-39.0-0.0,null,,,<p></p>,null,,,,,,,,,,,,,,,,,,
,do_trial,57,234398,0.0-39.0-1.0,541,,,,,,50,1,0,1,,,,,,,,,,,,,,,
,html-keyboard-response,58,235401,0.0-40.0-0.0,null,,,<p></p>,null,,,,,,,,,,,,,,,,,,
,do_trial,59,238327,0.0-40.0-1.0,420.4000000000233,,,,,,49,1,1,0,,,,,,,,,,,,,,,
,html-keyboard-response,60,239330,0.0-41.0-0.0,null,,,<p></p>,null,,,,,,,,,,,,,,,,,,
,do_trial,61,242077,0.0-41.0-1.0,239.80000000004657,,,,,,49,0,0,1,,,,,,,,,,,,,,,
,html-keyboard-response,62,243080,0.0-42.0-0.0,null,,,<p></p>,null,,,,,,,,,,,,,,,,,,
,do_trial,63,245875,0.0-42.0-1.0,287.80000000004657,,,,,,49,1,0,1,,,,,,,,,,,,,,,
,html-keyboard-response,64,249391,0.0-43.0-0.0,3513.600000000093,,,<div class='center'><p><img src='../static/images/tutorial/prac_best_pirate.png' height='500'></p></div>,49,,,,,,,,,,,,,,,,,,
,html-keyboard-response,65,250613,0.0-44.0-0.0,1221.4000000000233,,,<div class='center'><p>That's correct! Red beard was the best.</p><p><b>[Press the space bar to continue]</b></p></div>,32,,,,,,,,,,,,,,,,,,
,quiz_beginning,66,252616,0.0-44.0-1.0,null,,,<div class='center'><p>Good job on the practice game! Now, you will be asked some true or false questions to make sure you really understand the rules of the game.</p><p> Press <b>'1'</b> on the keyboard for true and press <b>'2'</b> for false.</p></div>,null,<div class='center'><p>Good job on the practice game! Now, you will be asked some true or false questions to make sure you really understand the rules of the game.</p><p> Press <b>'1'</b> on the keyboard for true and press <b>'2'</b> for false.</p></div>,,,,,,,,,,,,,,,,,
,html-keyboard-response,67,256699,0.0-44.0-2.0,4082.6999999999534,,,<div class='center'><p>You win bonus money by collecting gold coins.</p><p>Press 1 for true and press  2 for false.</p></div>,49,,,,,,,,,,,,,,,,,,
,correct,68,258702,0.0-45.0-0.0,null,,,<div class='center'><p>That's correct!</p></div>,null,<div class='center'><p>That's correct!</p></div>,,,,,,,,,,,,,,,,,
,html-keyboard-response,69,259872,0.0-45.0-1.0,1168.5,,,<div class='center'><p>That's correct!</p><p><b>[Press the space bar to continue]</b></p></div>,32,,,,,,,,,,,,,,,,,,
,html-keyboard-response,70,263256,0.0-45.0-2.0,3383.5999999999767,,,<div class='center'><p>The pirate who is the best at robbing ships when you first arrive on the island will definitely still be the best when you leave the island. </p><p>Press 1 for true and press  2 for false.</p></div>,50,,,,,,,,,,,,,,,,,,
,correct,71,265259,0.0-46.0-0.0,null,,,<div class='center'><p>That's correct!</p></div>,null,<div class='center'><p>That's correct!</p></div>,,,,,,,,,,,,,,,,,
,html-keyboard-response,72,266433,0.0-46.0-1.0,1172.8000000000466,,,<div class='center'><p>That's correct!</p><p><b>[Press the space bar to continue]</b></p></div>,32,,,,,,,,,,,,,,,,,,
,html-keyboard-response,73,270664,0.0-46.0-2.0,4230.399999999907,,,<div class='center'><p>The pirate who is the best at robbing ships on the first island will be the best on every other island.</p><p>Press 1 for true and press  2 for false.</p></div>,50,,,,,,,,,,,,,,,,,,
,correct,74,272667,0.0-47.0-0.0,null,,,<div class='center'><p>That's correct!</p></div>,null,<div class='center'><p>That's correct!</p></div>,,,,,,,,,,,,,,,,,
,html-keyboard-response,75,273602,0.0-47.0-1.0,934.1999999999534,,,<div class='center'><p>That's correct!</p><p><b>[Press the space bar to continue]</b></p></div>,32,,,,,,,,,,,,,,,,,,
,html-keyboard-response,76,278533,0.0-47.0-2.0,4930.699999999953,,,<div class='center'><p>You should remember the island where a pirate robbed a ship.</p><p>Press 1 for true and press  2 for false.</p></div>,49,,,,,,,,,,,,,,,,,,
,correct,77,280556,0.0-48.0-0.0,null,,,<div class='center'><p>That's correct!</p></div>,null,<div class='center'><p>That's correct!</p></div>,,,,,,,,,,,,,,,,,
,html-keyboard-response,78,281336,0.0-48.0-1.0,777.8000000000466,,,<div class='center'><p>That's correct!</p><p><b>[Press the space bar to continue]</b></p></div>,32,,,,,,,,,,,,,,,,,,
,q_all_corr,79,283338,0.0-49.0-0.0,null,,,<div class='center'><p>Good job! You’re now ready to move on to the real game! Remember this game will be difficult but don't get discouraged and try your best!</p></div>,null,<div class='center'><p>Good job! You’re now ready to move on to the real game! Remember this game will be difficult but don't get discouraged and try your best!</p></div>,,,,,,,,,,,,,,,,,
,html-keyboard-response,80,284588,0.0-49.0-1.0,1248.2000000000698,,,<div class='center'><p>Good job! You’re now ready to move on to the real game! Remember this game will be difficult but don't get discouraged and try your best!</p><p><b>[Press the space bar to continue]</b></p></div>,32,,,,,,,,,,,,,,,,,,
,do_welcome,81,288600,0.0-50.0-0.0,null,,,,,,null,,,,,,,,,,,,,,,,
,do_trial,82,292089,0.0-51.0-0.0,981,,,,,,49,0,0,0,0,countryside,0,0.6,0.3,0.1,0,learn,,,,,,,
,html-keyboard-response,83,293093,0.0-51.0-1.0,null,,,<p></p>,null,,,,,,,,,,,,,,,,,,
,do_trial,84,296040,0.0-52.0-0.0,441.5,,,,,,50,1,1,0,0,countryside,1,0.6056289100097356,0.41676116127342994,0.09298107465576942,1,learn,,,,,,,
,html-keyboard-response,85,297044,0.0-52.0-1.0,null,,,<p></p>,null,,,,,,,,,,,,,,,,,,
,do_trial,86,299927,0.0-53.0-0.0,375.69999999995343,,,,,,50,1,1,0,0,countryside,2,0.5115033964113274,0.4202733783887696,0.22295713353473456,1,learn,,,,,,,
,html-keyboard-response,87,300930,0.0-53.0-1.0,null,,,<p></p>,null,,,,,,,,,,,,,,,,,,
,do_trial,88,303723,0.0-54.0-0.0,285.39999999990687,,,,,,50,1,0,0,0,countryside,3,0.601501235630323,0.3132634651574186,0.12540705254182755,0,learn,,,,,,,
,html-keyboard-response,89,304726,0.0-54.0-1.0,null,,,<p></p>,null,,,,,,,,,,,,,,,,,,
,do_trial,90,307486,0.0-55.0-0.0,254.20000000018626,,,,,,51,1,0,1,0,countryside,4,0.6531823357057175,0.20179426559564498,0.26662162013716506,1,learn,,,,,,,
,html-keyboard-response,91,308489,0.0-55.0-1.0,null,,,<p></p>,null,,,,,,,,,,,,,,,,,,
,do_trial,92,311273,0.0-56.0-0.0,278.39999999990687,,,,,,51,1,0,0,0,countryside,5,0.6246592324981554,0.2685266937493126,0.23975496919288553,0,learn,,,,,,,
,html-keyboard-response,93,312277,0.0-56.0-1.0,null,,,<p></p>,null,,,,,,,,,,,,,,,,,,
,do_trial,94,315101,0.0-57.0-0.0,316.60000000009313,,,,,,51,1,1,0,0,countryside,6,0.5727432583531367,0.17592085499422674,0.28138698076713087,0,learn,,,,,,,
,html-keyboard-response,95,316104,0.0-57.0-1.0,null,,,<p></p>,null,,,,,,,,,,,,,,,,,,
,do_trial,96,318919,0.0-58.0-0.0,307.69999999995343,,,,,,49,0,0,0,0,countryside,7,0.5081177139173245,0.18993848840911784,0.29157348533434585,0,learn,,,,,,,
,html-keyboard-response,97,319922,0.0-58.0-1.0,null,,,<p></p>,null,,,,,,,,,,,,,,,,,,
,do_trial,98,322702,0.0-59.0-0.0,273.29999999981374,,,,,,50,0,0,0,0,countryside,8,0.5492240869108194,0.24238511300269447,0.10733615461064204,0,learn,,,,,,,
,html-keyboard-response,99,323705,0.0-59.0-1.0,null,,,<p></p>,null,,,,,,,,,,,,,,,,,,
,do_trial,100,326461,0.0-60.0-0.0,248.39999999990687,,,,,,50,1,1,0,0,countryside,9,0.4962935904997716,0.18948082671692398,0.259721996687235,1,learn,,,,,,,
,html-keyboard-response,101,327464,0.0-60.0-1.0,null,,,<p></p>,null,,,,,,,,,,,,,,,,,,
,do_trial,102,330239,0.0-61.0-0.0,269,,,,,,50,1,1,0,0,countryside,10,0.4805202788121408,0.271474608856031,0.2042685791653215,1,learn,,,,,,,
,html-keyboard-response,103,331242,0.0-61.0-1.0,null,,,<p></p>,null,,,,,,,,,,,,,,,,,,
,do_trial,104,334009,0.0-62.0-0.0,259.89999999990687,,,,,,50,1,0,1,0,countryside,11,0.5069769537418034,0.24927345358548267,0.1995127946485903,0,learn,,,,,,,
,html-keyboard-response,105,335012,0.0-62.0-1.0,null,,,<p></p>,null,,,,,,,,,,,,,,,,,,
,do_trial,106,337801,0.0-63.0-0.0,282.19999999995343,,,,,,50,1,1,0,0,countryside,12,0.5041270207074379,0.3180545005406111,0.053068055567641714,1,learn,,,,,,,
,html-keyboard-response,107,338804,0.0-63.0-1.0,null,,,<p></p>,null,,,,,,,,,,,,,,,,,,
,do_trial,108,341660,0.0-64.0-0.0,349.89999999990687,,,,,,50,0,0,0,0,countryside,13,0.5346594959890862,0.2831473246400509,0.18029141703892357,0,learn,,,,,,,
,html-keyboard-response,109,342662,0.0-64.0-1.0,null,,,<p></p>,null,,,,,,,,,,,,,,,,,,
,do_trial,110,345395,0.0-65.0-0.0,225.0999999998603,,,,,,50,1,1,1,0,countryside,14,0.41547046324908804,0.3606079362646331,0.2623387330058459,1,learn,,,,,,,
,html-keyboard-response,111,346397,0.0-65.0-1.0,null,,,<p></p>,null,,,,,,,,,,,,,,,,,,
,do_trial,112,349625,0.0-66.0-0.0,721,,,,,,51,1,0,0,0,countryside,15,0.4805057916501513,0.357871333363638,0.38918827345172274,0,learn,,,,,,,
,html-keyboard-response,113,350628,0.0-66.0-1.0,null,,,<p></p>,null,,,,,,,,,,,,,,,,,,
,do_trial,114,353386,0.0-67.0-0.0,251.89999999990687,,,,,,50,0,1,0,0,countryside,16,0.395030226810524,0.2167193267505995,0.1748297147188567,1,learn,,,,,,,
,html-keyboard-response,115,354388,0.0-67.0-1.0,null,,,<p></p>,null,,,,,,,,,,,,,,,,,,
,do_trial,116,357249,0.0-68.0-0.0,354.19999999995343,,,,,,50,0,1,0,0,countryside,17,0.37560658839995953,0.2688918158139536,0.06941755878887251,1,learn,,,,,,,
,html-keyboard-response,117,358252,0.0-68.0-1.0,null,,,<p></p>,null,,,,,,,,,,,,,,,,,,
,do_trial,118,360984,0.0-69.0-0.0,226,,,,,,50,0,0,0,0,countryside,18,0.45352682640274855,0.3022198904961909,0.17781183946747806,0,learn,,,,,,,
,html-keyboard-response,119,361988,0.0-69.0-1.0,null,,,<p></p>,null,,,,,,,,,,,,,,,,,,
,do_trial,120,364742,0.0-70.0-0.0,248.9000000001397,,,,,,50,0,1,0,0,countryside,19,0.4904943353928263,0.24172480443797711,0.12130962655306103,1,learn,,,,,,,
,html-keyboard-response,121,365745,0.0-70.0-1.0,null,,,<p></p>,null,,,,,,,,,,,,,,,,,,
,do_trial,122,368521,0.0-71.0-0.0,268.5999999998603,,,,,,50,1,0,0,0,countryside,20,0.5097988357660418,0.2947306447161399,0.23071793254375222,0,learn,,,,,,,
,html-keyboard-response,123,369524,0.0-71.0-1.0,null,,,<p></p>,null,,,,,,,,,,,,,,,,,,
,do_trial,124,372188,0.0-72.0-0.0,157.9000000001397,,,,,,50,0,0,0,0,countryside,21,0.4943055675178777,0.3996211675088647,0.2920261729697134,0,learn,,,,,,,
,html-keyboard-response,125,373191,0.0-72.0-1.0,null,,,<p></p>,null,,,,,,,,,,,,,,,,,,
,do_trial,126,375903,0.0-73.0-0.0,205.5,,,,,,49,1,0,1,0,countryside,22,0.49781114147269284,0.46832174709178787,0.3512848304339348,1,learn,,,,,,,
,html-keyboard-response,127,376906,0.0-73.0-1.0,null,,,<p></p>,null,,,,,,,,,,,,,,,,,,
,do_trial,128,379675,0.0-74.0-0.0,263.10000000009313,,,,,,49,0,1,0,0,countryside,23,0.5229706456234459,0.4552632045101316,0.24123442362416195,0,learn,,,,,,,
,html-keyboard-response,129,380678,0.0-74.0-1.0,null,,,<p></p>,null,,,,,,,,,,,,,,,,,,
,do_trial,130,383457,0.0-75.0-0.0,271.19999999995343,,,,,,49,1,0,0,0,countryside,24,0.5775174379095532,0.25167723930415753,0.1626779008220645,1,learn,,,,,,,
,html-keyboard-response,131,384460,0.0-75.0-1.0,null,,,<p></p>,null,,,,,,,,,,,,,,,,,,
,do_trial,132,387242,0.0-76.0-0.0,274.0999999998603,,,,,,49,1,1,0,0,countryside,25,0.5880984301442541,0.3973098872297193,0.14501608785757172,1,learn,,,,,,,
,html-keyboard-response,133,388245,0.0-76.0-1.0,null,,,<p></p>,null,,,,,,,,,,,,,,,,,,
,do_trial,134,390969,0.0-77.0-0.0,216.80000000004657,,,,,,49,1,0,0,0,countryside,26,0.6730135982356107,0.5854222368218726,0.12536340964625114,1,learn,,,,,,,
,html-keyboard-response,135,391972,0.0-77.0-1.0,null,,,<p></p>,null,,,,,,,,,,,,,,,,,,
,do_trial,136,394715,0.0-78.0-0.0,237,,,,,,49,0,1,0,0,countryside,27,0.5286746426700801,0.5475657467155352,0.2410564235829523,0,learn,,,,,,,
,html-keyboard-response,137,395717,0.0-78.0-1.0,null,,,<p></p>,null,,,,,,,,,,,,,,,,,,
,do_trial,138,398443,0.0-79.0-0.0,219.9000000001397,,,,,,49,1,0,1,0,countryside,28,0.5327015175556052,0.3171660986163062,0.1749540815408936,1,learn,,,,,,,
,html-keyboard-response,139,399445,0.0-79.0-1.0,null,,,<p></p>,null,,,,,,,,,,,,,,,,,,
,do_trial,140,402183,0.0-80.0-0.0,231,,,,,,49,1,0,0,0,countryside,29,0.5007153008674606,0.41550054045088675,0.06655294607635741,1,learn,,,,,,,
,html-keyboard-response,141,403186,0.0-80.0-1.0,null,,,<p></p>,null,,,,,,,,,,,,,,,,,,
,attention_check,142,403403,0.0-81.0-0.0,216,,,<div style='position:relative; margin-top: 600px;'><p>Before we set sail — press the <b>Z</b> key to continue!</p></div>,49,,,,,,,,,,,,false,,,,,,
,do_bye,143,404911,0.0-81.0-1.0,null,,,,,,null,,,,,,,,,,,,,,,,
,break,144,409024,0.0-81.0-2.0,4112.100000000093,,,<div class='center'><p>Time to take a quick break! You have 2 minutes to rest, but you can move on sooner if you'd like.</p><p> Press the <b>space bar</b> to continue.</p></div>,32,,,,,,,,,,,,,,,,,,
,do_travel,145,418029,0.0-82.0-0.0,null,,,,,,null,,,,,,,,,,,,,,,,
,do_welcome,146,422041,0.0-82.0-1.0,null,,,,,,null,,,,,,,,,,,,,,,,
,do_trial,147,425896,0.0-83.0-0.0,1346.3000000000466,,,,,,51,1,0,0,1,forest,30,1,0.2998634479436696,0.1067213363330911,0,learn,,,,,,,
,html-keyboard-response,148,426899,0.0-83.0-1.0,null,,,<p></p>,null,,,,,,,,,,,,,,,,,,
,do_trial,149,429705,0.0-84.0-0.0,299.39999999990687,,,,,,50,1,0,0,1,forest,31,1,0.38546795626676345,0.06352081087825565,0,learn,,,,,,,
,html-keyboard-response,150,430708,0.0-84.0-1.0,null,,,<p></p>,null,,,,,,,,,,,,,,,,,,
,do_trial,151,433470,0.0-85.0-0.0,254.39999999990687,,,,,,49,1,0,0,1,forest,32,1,0.21800638343735393,0.14855109273220718,1,learn,,,,,,,
,html-keyboard-response,152,434473,0.0-85.0-1.0,null,,,<p></p>,null,,,,,,,,,,,,,,,,,,
,do_trial,153,437227,0.0-86.0-0.0,246.9000000001397,,,,,,49,1,0,0,1,forest,33,0.7333904060814581,0.25311071934051543,0.10357073160878251,1,learn,,,,,,,
,html-keyboard-response,154,438230,0.0-86.0-1.0,null,,,<p></p>,null,,,,,,,,,,,,,,,,,,
,do_trial,155,440986,0.0-87.0-0.0,248.19999999995343,,,,,,49,1,1,1,1,forest,34,0.6036650136125996,0.18366152536287841,0.15076181782843795,1,learn,,,,,,,
,html-keyboard-response,156,441988,0.0-87.0-1.0,null,,,<p></p>,null,,,,,,,,,,,,,,,,,,
,do_trial,157,444714,0.0-88.0-0.0,218.5,,,,,,49,0,0,0,1,forest,35,0.737256037986482,0.14650554453229558,0.11967829002898386,0,learn,,,,,,,
,html-keyboard-response,158,445717,0.0-88.0-1.0,null,,,<p></p>,null,,,,,,,,,,,,,,,,,,
,do_trial,159,448475,0.0-89.0-0.0,251.39999999990687,,,,,,49,1,0,1,1,forest,36,0.7383581422614803,0.21974115812574602,0.2522047962978956,1,learn,,,,,,,
,html-keyboard-response,160,449478,0.0-89.0-1.0,null,,,<p></p>,null,,,,,,,,,,,,,,,,,,
,do_trial,161,452232,0.0-90.0-0.0,247,,,,,,49,0,0,0,1,forest,37,0.7356046852984893,0.308165234832079,0.1967230485266693,0,learn,,,,,,,
,html-keyboard-response,162,453235,0.0-90.0-1.0,null,,,<p></p>,null,,,,,,,,,,,,,,,,,,
,do_trial,163,455981,0.0-91.0-0.0,238.20000000018626,,,,,,49,1,0,0,1,forest,38,0.7467739007238763,0.22019645486372055,0.19549934292679336,1,learn,,,,,,,
,html-keyboard-response,164,456984,0.0-91.0-1.0,null,,,<p></p>,null,,,,,,,,,,,,,,,,,,
,do_trial,165,459676,0.0-92.0-0.0,186.19999999995343,,,,,,49,1,1,0,1,forest,39,0.8212273606320584,0.26588788512394546,0.1668787797426326,1,learn,,,,,,,
,html-keyboard-response,166,460679,0.0-92.0-1.0,null,,,<p></p>,null,,,,,,,,,,,,,,,,,,
,do_trial,167,463419,0.0-93.0-0.0,234.30000000004657,,,,,,49,1,0,0,1,forest,40,0.778408923815565,0.23373470742857547,0.08530100425874272,1,learn,,,,,,,
,html-keyboard-response,168,464422,0.0-93.0-1.0,null,,,<p></p>,null,,,,,,,,,,,,,,,,,,
,do_trial,169,467202,0.0-94.0-0.0,272.39999999990687,,,,,,49,0,1,0,1,forest,41,0.6500617575897669,0.21901652859300186,0.07360380777787699,0,learn,,,,,,,
,html-keyboard-response,170,468205,0.0-94.0-1.0,null,,,<p></p>,null,,,,,,,,,,,,,,,,,,
,do_trial,171,470980,0.0-95.0-0.0,268.69999999995343,,,,,,49,0,0,0,1,forest,42,0.5122018106585969,0.38160610129169087,0.1437163617121564,0,learn,,,,,,,
,html-keyboard-response,172,471983,0.0-95.0-1.0,null,,,<p></p>,null,,,,,,,,,,,,,,,,,,
,do_trial,173,474730,0.0-96.0-0.0,241.89999999990687,,,,,,50,0,0,0,1,forest,43,0.3666596621056823,0.4514416240025289,0.07561291208200716,0,learn,,,,,,,
,html-keyboard-response,174,475733,0.0-96.0-1.0,null,,,<p></p>,null,,,,,,,,,,,,,,,,,,
,do_trial,175,478517,0.0-97.0-0.0,276.5,,,,,,51,1,0,0,1,forest,44,0.3298441934875092,0.6529633328755026,0.15259198429974333,0,learn,,,,,,,
,html-keyboard-response,176,479519,0.0-97.0-1.0,null,,,<p></p>,null,,,,,,,,,,,,,,,,,,
,do_trial,177,482213,0.0-98.0-0.0,187.39999999990687,,,,,,49,1,1,0,1,forest,45,0.22483764460177358,0.737180452791477,0.24423731078967173,1,learn,,,,,,,
,html-keyboard-response,178,483215,0.0-98.0-1.0,null,,,<p></p>,null,,,,,,,,,,,,,,,,,,
,do_trial,179,485966,0.0-99.0-0.0,244.4000000001397,,,,,,49,0,1,1,1,forest,46,0.0943921194556999,0.5423367705219581,0.38428939116199673,0,learn,,,,,,,
,html-keyboard-response,180,486970,0.0-99.0-1.0,null,,,<p></p>,null,,,,,,,,,,,,,,,,,,
,do_trial,181,489710,0.0-100.0-0.0,233.69999999995343,,,,,,49,0,0,0,1,forest,47,0.143265123721828,0.6078801695986115,0.511529006420362,0,learn,,,,,,,
,html-keyboard-response,182,490713,0.0-100.0-1.0,null,,,<p></p>,null,,,,,,,,,,,,,,,,,,
,do_trial,183,494158,0.0-101.0-0.0,939.3000000000466,,,,,,49,0,0,1,1,forest,48,0.120828418813234,0.6053218015757176,0.6189997015301715,0,learn,,,,,,,
,html-keyboard-response,184,495162,0.0-101.0-1.0,null,,,<p></p>,null,,,,,,,,,,,,,,,,,,
,do_trial,185,497891,0.0-102.0-0.0,222.80000000004657,,,,,,51,0,1,0,1,forest,49,0.19029747370518346,0.6028823739636888,0.49081602141064573,0,learn,,,,,,,
,html-keyboard-response,186,498894,0.0-102.0-1.0,null,,,<p></p>,null,,,,,,,,,,,,,,,,,,
,do_trial,187,501640,0.0-103.0-0.0,240.0999999998603,,,,,,50,0,1,1,1,forest,50,0.1164183558875627,0.6630080664681683,0.5148284341107902,1,learn,,,,,,,
,html-keyboard-response,188,502643,0.0-103.0-1.0,null,,,<p></p>,null,,,,,,,,,,,,,,,,,,
,do_trial,189,505404,0.0-104.0-0.0,254.89999999990687,,,,,,50,0,1,0,1,forest,51,0.12935022759174986,0.6103117145550061,0.37224782672188533,1,learn,,,,,,,
,html-keyboard-response,190,506407,0.0-104.0-1.0,null,,,<p></p>,null,,,,,,,,,,,,,,,,,,
,do_trial,191,509108,0.0-105.0-0.0,195.89999999990687,,,,,,50,0,1,1,1,forest,52,0.0817739880646372,0.6365550724186197,0.31198358031466966,1,learn,,,,,,,
,html-keyboard-response,192,510111,0.0-105.0-1.0,null,,,<p></p>,null,,,,,,,,,,,,,,,,,,
,do_trial,193,512847,0.0-106.0-0.0,228.69999999995343,,,,,,50,0,1,0,1,forest,53,0.053322346618244976,0.7763053592746347,0.31864327859935815,1,learn,,,,,,,
,html-keyboard-response,194,513850,0.0-106.0-1.0,null,,,<p></p>,null,,,,,,,,,,,,,,,,,,
,do_trial,195,516615,0.0-107.0-0.0,259.19999999995343,,,,,,50,0,1,0,1,forest,54,0.13523810831633185,0.833825419551397,0.2465491024524199,1,learn,,,,,,,
,html-keyboard-response,196,517619,0.0-107.0-1.0,null,,,<p></p>,null,,,,,,,,,,,,,,,,,,
,do_trial,197,520356,0.0-108.0-0.0,230.80000000004657,,,,,,50,0,1,1,1,forest,55,0.09062519725680328,0.7323688007648086,0.4276418035422204,1,learn,,,,,,,
,html-keyboard-response,198,521360,0.0-108.0-1.0,null,,,<p></p>,null,,,,,,,,,,,,,,,,,,
,do_trial,199,524020,0.0-109.0-0.0,152.70000000018626,,,,,,50,0,0,0,1,forest,56,0.06886656941403768,0.5301050047531963,0.36951756871258995,0,learn,,,,,,,
,html-keyboard-response,200,525023,0.0-109.0-1.0,null,,,<p></p>,null,,,,,,,,,,,,,,,,,,
,do_trial,201,527734,0.0-110.0-0.0,203.5,,,,,,50,0,1,0,1,forest,57,0.2187217535665783,0.41514010861269623,0.2527074156005659,1,learn,,,,,,,
,html-keyboard-response,202,528737,0.0-110.0-1.0,null,,,<p></p>,null,,,,,,,,,,,,,,,,,,
,do_trial,203,531738,0.0-111.0-0.0,495.29999999981374,,,,,,50,0,1,0,1,forest,58,0.16306874708664265,0.6233981053218028,0.26991884427596674,1,learn,,,,,,,
,html-keyboard-response,204,532741,0.0-111.0-1.0,null,,,<p></p>,null,,,,,,,,,,,,,,,,,,
,do_trial,205,535577,0.0-112.0-0.0,328.69999999995343,,,,,,50,0,0,0,1,forest,59,0.09207478672011324,0.48791201593411315,0.37883177486088704,0,learn,,,,,,,
,html-keyboard-response,206,536580,0.0-112.0-1.0,null,,,<p></p>,null,,,,,,,,,,,,,,,,,,
,do_trial,207,539320,0.0-113.0-0.0,233.30000000004657,,,,,,50,1,0,0,1,forest,60,0.08618262495340898,0.44493622604784494,0.4611659386081886,0,learn,,,,,,,
,html-keyboard-response,208,540323,0.0-113.0-1.0,null,,,<p></p>,null,,,,,,,,,,,,,,,,,,
,do_trial,209,543124,0.0-114.0-0.0,294.20000000018626,,,,,,50,1,0,1,1,forest,61,0.218425394348514,0.49075851532543235,0.43173675231290787,0,learn,,,,,,,
,html-keyboard-response,210,544128,0.0-114.0-1.0,null,,,<p></p>,null,,,,,,,,,,,,,,,,,,
,do_trial,211,546855,0.0-115.0-0.0,219.70000000018626,,,,,,51,0,1,1,1,forest,62,0.24064413960057385,0.5840707084153212,0.3997146615698843,1,learn,,,,,,,
,html-keyboard-response,212,547858,0.0-115.0-1.0,null,,,<p></p>,null,,,,,,,,,,,,,,,,,,
,do_trial,213,550629,0.0-116.0-0.0,263.5,,,,,,51,0,1,0,1,forest,63,0.2676988838424616,0.6555571018435413,0.33953663411227836,0,learn,,,,,,,
,html-keyboard-response,214,551632,0.0-116.0-1.0,null,,,<p></p>,null,,,,,,,,,,,,,,,,,,
,do_trial,215,554284,0.0-117.0-0.0,144.89999999990687,,,,,,51,0,0,0,1,forest,64,0.29171223297455234,0.538219504060664,0.3540193881298424,0,learn,,,,,,,
,html-keyboard-response,216,555287,0.0-117.0-1.0,null,,,<p></p>,null,,,,,,,,,,,,,,,,,,
,do_trial,217,558083,0.0-118.0-0.0,289.5,,,,,,49,0,1,0,1,forest,65,0.2178363330321705,0.5387892493640896,0.37469706942385117,0,learn,,,,,,,
,html-keyboard-response,218,559085,0.0-118.0-1.0,null,,,<p></p>,null,,,,,,,,,,,,,,,,,,
,do_trial,219,561793,0.0-119.0-0.0,200.89999999990687,,,,,,50,0,0,0,1,forest,66,0.14054340347076846,0.45175404213466525,0.336138274071302,0,learn,,,,,,,
,html-keyboard-response,220,562796,0.0-119.0-1.0,null,,,<p></p>,null,,,,,,,,,,,,,,,,,,
,do_trial,221,565453,0.0-120.0-0.0,148.30000000004657,,,,,,51,0,0,1,1,forest,67,0.09136945369286031,0.4758028868466436,0.17070688997858185,1,learn,,,,,,,
,html-keyboard-response,222,566456,0.0-120.0-1.0,null,,,<p></p>,null,,,,,,,,,,,,,,,,,,
,do_trial,223,569185,0.0-121.0-0.0,220.60000000009313,,,,,,51,0,0,0,1,forest,68,0.09254747876652035,0.5424429228123003,0.29018037316676554,0,learn,,,,,,,
,html-keyboard-response,224,570188,0.0-121.0-1.0,null,,,<p></p>,null,,,,,,,,,,,,,,,,,,
,do_trial,225,573036,0.0-122.0-0.0,341.5999999998603,,,,,,51,0,1,0,1,forest,69,0.21141335026325153,0.5396454207394772,0.4547028718931142,0,learn,,,,,,,
,html-keyboard-response,226,574039,0.0-122.0-1.0,null,,,<p></p>,null,,,,,,,,,,,,,,,,,,
,attention_check,227,574313,0.0-123.0-0.0,273.30000000004657,,,<div style='position:relative; margin-top: 600px;'><p>Before we set sail — press the <b>Z</b> key to continue!</p></div>,51,,,,,,,,,,,,false,,,,,,
,do_bye,228,575821,0.0-123.0-1.0,null,,,,,,null,,,,,,,,,,,,,,,,
,break,229,577577,0.0-123.0-2.0,1753.5,,,<div class='center'><p>Time to take a quick break! You have 2 minutes to rest, but you can move on sooner if you'd like.</p><p> Press the <b>space bar</b> to continue.</p></div>,32,,,,,,,,,,,,,,,,,,
,do_travel,230,586581,0.0-124.0-0.0,null,,,,,,null,,,,,,,,,,,,,,,,
,do_welcome,231,590595,0.0-124.0-1.0,null,,,,,,null,,,,,,,,,,,,,,,,
,do_trial,232,594312,0.0-125.0-0.0,1209.8999999999069,,,,,,49,0,1,1,2,highway,70,0.23175607899255224,1,0.3805288844389099,0,learn,,,,,,,
,html-keyboard-response,233,595315,0.0-125.0-1.0,null,,,<p></p>,null,,,,,,,,,,,,,,,,,,
,do_trial,234,598095,0.0-126.0-0.0,274.60000000009313,,,,,,50,0,1,0,2,highway,71,0.1484842427081344,1,0.3990048218690118,1,learn,,,,,,,
,html-keyboard-response,235,599099,0.0-126.0-1.0,null,,,<p></p>,null,,,,,,,,,,,,,,,,,,
,do_trial,236,601879,0.0-127.0-0.0,274.0999999998603,,,,,,50,0,1,0,2,highway,72,0.226552027642486,0.8763364958573588,0.40328593759657094,1,learn,,,,,,,
,html-keyboard-response,237,602882,0.0-127.0-1.0,null,,,<p></p>,null,,,,,,,,,,,,,,,,,,
,do_trial,238,605651,0.0-128.0-0.0,261.10000000009313,,,,,,50,0,1,0,2,highway,73,0.3364763618468116,0.8042542115901116,0.37517104833577364,1,learn,,,,,,,
,html-keyboard-response,239,606653,0.0-128.0-1.0,null,,,<p></p>,null,,,,,,,,,,,,,,,,,,
,do_trial,240,609386,0.0-129.0-0.0,227.5999999998603,,,,,,50,0,0,1,2,highway,74,0.24218227004871154,0.5914111422022278,0.34032227329554515,0,learn,,,,,,,
,html-keyboard-response,241,610389,0.0-129.0-1.0,null,,,<p></p>,null,,,,,,,,,,,,,,,,,,
,do_trial,242,613000,0.0-130.0-0.0,105.60000000009313,,,,,,50,0,1,0,2,highway,75,0.16228917306977045,0.4964714955084408,0.33355693825006816,1,learn,,,,,,,
,html-keyboard-response,243,614003,0.0-130.0-1.0,null,,,<p></p>,null,,,,,,,,,,,,,,,,,,
,do_trial,244,616769,0.0-131.0-0.0,258.0999999998603,,,,,,50,0,0,1,2,highway,76,0.10150195342480672,0.42661110360988524,0.2316238647768854,0,learn,,,,,,,
,html-keyboard-response,245,617772,0.0-131.0-1.0,null,,,<p></p>,null,,,,,,,,,,,,,,,,,,
,do_trial,246,620484,0.0-132.0-0.0,204.70000000018626,,,,,,50,1,1,0,2,highway,77,0.2661890390898885,0.5705671852778503,0.21959845749431822,1,learn,,,,,,,
,html-keyboard-response,247,621487,0.0-132.0-1.0,null,,,<p></p>,null,,,,,,,,,,,,,,,,,,
,do_trial,248,624209,0.0-133.0-0.0,215.5,,,,,,50,0,1,0,2,highway,78,0.21767895426182654,0.5806838543398205,0.3341378287086335,1,learn,,,,,,,
,html-keyboard-response,249,625212,0.0-133.0-1.0,null,,,<p></p>,null,,,,,,,,,,,,,,,,,,
,do_trial,250,627902,0.0-134.0-0.0,182,,,,,,50,0,0,0,2,highway,79,0.08456309067930731,0.6042484393656429,0.24199126603736137,0,learn,,,,,,,
,html-keyboard-response,251,628904,0.0-134.0-1.0,null,,,<p></p>,null,,,,,,,,,,,,,,,,,,
,do_trial,252,631661,0.0-135.0-0.0,250.0999999998603,,,,,,50,0,1,0,2,highway,80,0.2302076484594472,0.5685407593927938,0.3323260025152871,1,learn,,,,,,,
,html-keyboard-response,253,632663,0.0-135.0-1.0,null,,,<p></p>,null,,,,,,,,,,,,,,,,,,
,do_trial,254,635375,0.0-136.0-0.0,205.80000000004657,,,,,,50,1,0,0,2,highway,81,0.29421718530146307,0.500690759815147,0.2558736347834515,0,learn,,,,,,,
,html-keyboard-response,255,636378,0.0-136.0-1.0,null,,,<p></p>,null,,,,,,,,,,,,,,,,,,
,do_trial,256,639006,0.0-137.0-0.0,121.5999999998603,,,,,,50,0,0,0,2,highway,82,0.2908202787847929,0.3024603488156808,0.5140499758230562,0,learn,,,,,,,
,html-keyboard-response,257,640009,0.0-137.0-1.0,null,,,<p></p>,null,,,,,,,,,,,,,,,,,,
,do_trial,258,642752,0.0-138.0-0.0,236.30000000004657,,,,,,50,0,0,0,2,highway,83,0.2513365095674422,0.2838173209027486,0.5161876415751524,0,learn,,,,,,,
,html-keyboard-response,259,643755,0.0-138.0-1.0,null,,,<p></p>,null,,,,,,,,,,,,,,,,,,
,do_trial,260,646499,0.0-139.0-0.0,238.0999999998603,,,,,,51,0,0,1,2,highway,84,0.35647760184811544,0.28488996794243954,0.595193104002299,1,learn,,,,,,,
,html-keyboard-response,261,647503,0.0-139.0-1.0,null,,,<p></p>,null,,,,,,,,,,,,,,,,,,
,do_trial,262,650246,0.0-140.0-0.0,236.89999999990687,,,,,,51,0,0,1,2,highway,85,0.3296082534123835,0.2430589168273073,0.5666781349312409,1,learn,,,,,,,
,html-keyboard-response,263,651249,0.0-140.0-1.0,null,,,<p></p>,null,,,,,,,,,,,,,,,,,,
,do_trial,264,653984,0.0-141.0-0.0,228.5,,,,,,51,0,0,0,2,highway,86,0.3431358553472768,0.18645384501290693,0.6361762664337173,0,learn,,,,,,,
,html-keyboard-response,265,654987,0.0-141.0-1.0,null,,,<p></p>,null,,,,,,,,,,,,,,,,,,
,do_trial,266,657511,0.0-142.0-0.0,18.5,,,,,,51,0,0,0,2,highway,87,0.43108907307893335,0.23578602434072232,0.5357909138360778,0,learn,,,,,,,
,html-keyboard-response,267,658514,0.0-142.0-1.0,null,,,<p></p>,null,,,,,,,,,,,,,,,,,,
,do_trial,268,661335,0.0-143.0-0.0,312.39999999990687,,,,,,50,0,0,0,2,highway,88,0.3822437731165711,0.07873548391643816,0.5480227858282694,0,learn,,,,,,,
,html-keyboard-response,269,662338,0.0-143.0-1.0,null,,,<p></p>,null,,,,,,,,,,,,,,,,,,
,do_trial,270,665064,0.0-144.0-0.0,218.79999999981374,,,,,,49,0,0,1,2,highway,89,0.2704478156766513,0.08159463850586443,0.6007103292966649,0,learn,,,,,,,
,html-keyboard-response,271,666067,0.0-144.0-1.0,null,,,<p></p>,null,,,,,,,,,,,,,,,,,,
,do_trial,272,668633,0.0-145.0-0.0,59.800000000046566,,,,,,51,1,0,1,2,highway,90,0.2302224206573955,0.13363204854054428,0.5147953134113328,1,learn,,,,,,,
,html-keyboard-response,273,669636,0.0-145.0-1.0,null,,,<p></p>,null,,,,,,,,,,,,,,,,,,
,do_trial,274,672398,0.0-146.0-0.0,255.60000000009313,,,,,,51,0,0,1,2,highway,91,0.27297462571476777,0.11605292719559168,0.6020563986507306,1,learn,,,,,,,
,html-keyboard-response,275,673401,0.0-146.0-1.0,null,,,<p></p>,null,,,,,,,,,,,,,,,,,,
,do_trial,276,676205,0.0-147.0-0.0,297.10000000009313,,,,,,51,0,0,1,2,highway,92,0.35807744381358175,0.1439066924206956,0.6497595771615722,1,learn,,,,,,,
,html-keyboard-response,277,677209,0.0-147.0-1.0,null,,,<p></p>,null,,,,,,,,,,,,,,,,,,
,do_trial,278,679927,0.0-148.0-0.0,212.39999999990687,,,,,,51,1,1,0,2,highway,93,0.47835705729336064,0.08182091671169019,0.6786345559103681,0,learn,,,,,,,
,html-keyboard-response,279,680931,0.0-148.0-1.0,null,,,<p></p>,null,,,,,,,,,,,,,,,,,,
,do_trial,280,683758,0.0-149.0-0.0,321.19999999995343,,,,,,51,0,0,1,2,highway,94,0.4149280914940377,0.20906988463461523,0.716890210278019,1,learn,,,,,,,
,html-keyboard-response,281,684761,0.0-149.0-1.0,null,,,<p></p>,null,,,,,,,,,,,,,,,,,,
,do_trial,282,687600,0.0-150.0-0.0,331.5,,,,,,51,0,0,1,2,highway,95,0.4305511242447652,0.246544265792011,0.664657468388391,1,learn,,,,,,,
,html-keyboard-response,283,688602,0.0-150.0-1.0,null,,,<p></p>,null,,,,,,,,,,,,,,,,,,
,do_trial,284,691402,0.0-151.0-0.0,293.60000000009313,,,,,,51,0,1,0,2,highway,96,0.3391861565077258,0.29196576641855126,0.5522241144841444,0,learn,,,,,,,
,html-keyboard-response,285,692405,0.0-151.0-1.0,null,,,<p></p>,null,,,,,,,,,,,,,,,,,,
,do_trial,286,695282,0.0-152.0-0.0,369,,,,,,51,0,1,0,2,highway,97,0.2866860324973857,0.29651942966718275,0.5862119173003907,0,learn,,,,,,,
,html-keyboard-response,287,696285,0.0-152.0-1.0,null,,,<p></p>,null,,,,,,,,,,,,,,,,,,
,do_trial,288,699137,0.0-153.0-0.0,345.30000000004657,,,,,,51,1,1,0,2,highway,98,0.27253750882102956,0.2303331117838361,0.6943795788841257,0,learn,,,,,,,
,html-keyboard-response,289,700139,0.0-153.0-1.0,null,,,<p></p>,null,,,,,,,,,,,,,,,,,,
,do_trial,290,702972,0.0-154.0-0.0,326.4000000001397,,,,,,51,0,0,1,2,highway,99,0.3626450551249807,0.16351511748861255,0.5853106332297038,1,learn,,,,,,,
,html-keyboard-response,291,703974,0.0-154.0-1.0,null,,,<p></p>,null,,,,,,,,,,,,,,,,,,
,do_trial,292,706843,0.0-155.0-0.0,362.80000000004657,,,,,,51,0,1,0,2,highway,100,0.4113894931771922,0.2987058762366221,0.5079579039355174,0,learn,,,,,,,
,html-keyboard-response,293,707846,0.0-155.0-1.0,null,,,<p></p>,null,,,,,,,,,,,,,,,,,,
,do_trial,294,710703,0.0-156.0-0.0,351,,,,,,51,0,0,0,2,highway,101,0.2948882428008921,0.16030080208228775,0.5730388920596708,0,learn,,,,,,,
,html-keyboard-response,295,711707,0.0-156.0-1.0,null,,,<p></p>,null,,,,,,,,,,,,,,,,,,
,do_trial,296,714541,0.0-157.0-0.0,327.9000000001397,,,,,,51,0,0,1,2,highway,102,0.24021277650656278,0.17709042491288898,0.5505496512392463,1,learn,,,,,,,
,html-keyboard-response,297,715544,0.0-157.0-1.0,null,,,<p></p>,null,,,,,,,,,,,,,,,,,,
,do_trial,298,718406,0.0-158.0-0.0,356,,,,,,51,0,1,0,2,highway,103,0.3702187825417178,0.22761226619808547,0.5653361679321757,0,learn,,,,,,,
,html-keyboard-response,299,719410,0.0-158.0-1.0,null,,,<p></p>,null,,,,,,,,,,,,,,,,,,
,do_trial,300,722163,0.0-159.0-0.0,247.0999999998603,,,,,,51,0,0,0,2,highway,104,0.32019793496288934,0.19594758441485874,0.6651798309100666,0,learn,,,,,,,
,html-keyboard-response,301,723165,0.0-159.0-1.0,null,,,<p></p>,null,,,,,,,,,,,,,,,,,,
,do_trial,302,725972,0.0-160.0-0.0,301.69999999995343,,,,,,51,0,0,1,2,highway,105,0.1609736961743583,0.15060360139609047,0.5776274992430845,1,learn,,,,,,,
,html-keyboard-response,303,726976,0.0-160.0-1.0,null,,,<p></p>,null,,,,,,,,,,,,,,,,,,
,do_trial,304,729873,0.0-161.0-0.0,392.5,,,,,,51,0,0,0,2,highway,106,0.18707879847634626,0.09824844142110217,0.5658698271057703,0,learn,,,,,,,
,html-keyboard-response,305,730876,0.0-161.0-1.0,null,,,<p></p>,null,,,,,,,,,,,,,,,,,,
,do_trial,306,733616,0.0-162.0-0.0,234.5,,,,,,51,0,0,0,2,highway,107,0.1871884474499752,0.22398281358658917,0.6562467652888471,0,learn,,,,,,,
,html-keyboard-response,307,734619,0.0-162.0-1.0,null,,,<p></p>,null,,,,,,,,,,,,,,,,,,
,do_trial,308,737907,0.0-163.0-0.0,781.2999999998137,,,,,,49,1,0,1,2,highway,108,0.2450982298660407,0.11023288696418018,0.714270609530873,1,learn,,,,,,,
,html-keyboard-response,309,738910,0.0-163.0-1.0,null,,,<p></p>,null,,,,,,,,,,,,,,,,,,
,do_trial,310,741677,0.0-164.0-0.0,259.9000000001397,,,,,,49,1,0,1,2,highway,109,0.13489827671231172,0.13843786200977404,0.6544210601838317,1,learn,,,,,,,
,html-keyboard-response,311,742680,0.0-164.0-1.0,null,,,<p></p>,null,,,,,,,,,,,,,,,,,,
,attention_check,312,744461,0.0-165.0-0.0,1780,,,<div style='position:relative; margin-top: 600px;'><p>Before we set sail — press the <b>Z</b> key to continue!</p></div>,90,,,,,,,,,,,,true,,,,,,
,do_bye,313,745970,0.0-165.0-1.0,null,,,,,,null,,,,,,,,,,,,,,,,
,break,314,747343,0.0-165.0-2.0,1370.4000000001397,,,<div class='center'><p>Time to take a quick break! You have 2 minutes to rest, but you can move on sooner if you'd like.</p><p> Press the <b>space bar</b> to continue.</p></div>,32,,,,,,,,,,,,,,,,,,
,do_travel,315,756348,0.0-166.0-0.0,null,,,,,,null,,,,,,,,,,,,,,,,
,do_welcome,316,760364,0.0-166.0-1.0,null,,,,,,null,,,,,,,,,,,,,,,,
,do_trial,317,764252,0.0-167.0-0.0,1380.3999999999069,,,,,,49,0,0,1,3,coast,110,0.3360015568883945,0.268139186583591,1,0,learn,,,,,,,
,html-keyboard-response,318,765255,0.0-167.0-1.0,null,,,<p></p>,null,,,,,,,,,,,,,,,,,,
,do_trial,319,768055,0.0-168.0-0.0,292.70000000018626,,,,,,51,0,1,1,3,coast,111,0.346809693751991,0.19959232130810403,1,1,learn,,,,,,,
,html-keyboard-response,320,769059,0.0-168.0-1.0,null,,,<p></p>,null,,,,,,,,,,,,,,,,,,
,do_trial,321,771890,0.0-169.0-0.0,324.80000000004657,,,,,,51,0,0,1,3,coast,112,0.25529479185943343,0.10856319729925566,0.816553758585349,1,learn,,,,,,,
,html-keyboard-response,322,772893,0.0-169.0-1.0,null,,,<p></p>,null,,,,,,,,,,,,,,,,,,
,do_trial,323,775666,0.0-170.0-0.0,266.39999999990687,,,,,,51,1,0,1,3,coast,113,0.38251430171454365,0.16743495368028394,0.626765168755336,1,learn,,,,,,,
,html-keyboard-response,324,776669,0.0-170.0-1.0,null,,,<p></p>,null,,,,,,,,,,,,,,,,,,
,do_trial,325,779623,0.0-171.0-0.0,447.80000000004657,,,,,,51,1,0,1,3,coast,114,0.39011333103593204,0.05785254256628795,0.7660151028958936,1,learn,,,,,,,
,html-keyboard-response,326,780626,0.0-171.0-1.0,null,,,<p></p>,null,,,,,,,,,,,,,,,,,,
,do_trial,327,783602,0.0-172.0-0.0,469.4000000001397,,,,,,51,0,0,1,3,coast,115,0.4192014882172873,0.07020964361300436,0.7007029318390066,1,learn,,,,,,,
,html-keyboard-response,328,784604,0.0-172.0-1.0,null,,,<p></p>,null,,,,,,,,,,,,,,,,,,
,do_trial,329,787599,0.0-173.0-0.0,487.70000000018626,,,,,,51,0,0,1,3,coast,116,0.4032523563245888,0.11288655363519187,0.5490502943755449,1,learn,,,,,,,
,html-keyboard-response,330,788602,0.0-173.0-1.0,null,,,<p></p>,null,,,,,,,,,,,,,,,,,,
,do_trial,331,791584,0.0-174.0-0.0,474.5,,,,,,51,0,0,1,3,coast,117,0.38192168683005456,0.08537602509843498,0.6330202141005935,1,learn,,,,,,,
,html-keyboard-response,332,792587,0.0-174.0-1.0,null,,,<p></p>,null,,,,,,,,,,,,,,,,,,
,do_trial,333,795681,0.0-175.0-0.0,586.8000000000466,,,,,,51,1,0,0,3,coast,118,0.40731272587516765,0.11742256275432407,0.6268796867843396,0,learn,,,,,,,
,html-keyboard-response,334,796684,0.0-175.0-1.0,null,,,<p></p>,null,,,,,,,,,,,,,,,,,,
,do_trial,335,800210,0.0-176.0-0.0,1018.7999999998137,,,,,,51,0,1,0,3,coast,119,0.5106163346885209,0.09520495675669256,0.5378457843989939,0,learn,,,,,,,
,html-keyboard-response,336,801213,0.0-176.0-1.0,null,,,<p></p>,null,,,,,,,,,,,,,,,,,,
,do_trial,337,804159,0.0-177.0-0.0,440.19999999995343,,,,,,51,0,0,1,3,coast,120,0.5347124876462439,0.059715694433699076,0.5166032141572501,1,learn,,,,,,,
,html-keyboard-response,338,805162,0.0-177.0-1.0,null,,,<p></p>,null,,,,,,,,,,,,,,,,,,
,do_trial,339,808122,0.0-178.0-0.0,453.5999999998603,,,,,,51,1,0,1,3,coast,121,0.5824691980565816,0.07001859231710335,0.5599503756658029,1,learn,,,,,,,
,html-keyboard-response,340,809126,0.0-178.0-1.0,null,,,<p></p>,null,,,,,,,,,,,,,,,,,,
,do_trial,341,812062,0.0-179.0-0.0,429.30000000004657,,,,,,51,1,0,1,3,coast,122,0.6319297398583757,0.1293021534552317,0.4364474457192148,1,learn,,,,,,,
,html-keyboard-response,342,813065,0.0-179.0-1.0,null,,,<p></p>,null,,,,,,,,,,,,,,,,,,
,do_trial,343,816186,0.0-180.0-0.0,615.2999999998137,,,,,,51,0,0,0,3,coast,123,0.5166289953922137,0.08927838384094543,0.2780436187416414,0,learn,,,,,,,
,html-keyboard-response,344,817189,0.0-180.0-1.0,null,,,<p></p>,null,,,,,,,,,,,,,,,,,,
,do_trial,345,820159,0.0-181.0-0.0,464.19999999995343,,,,,,51,1,1,0,3,coast,124,0.5775960870531516,0.32148159095935896,0.1571530976805038,0,learn,,,,,,,
,html-keyboard-response,346,821162,0.0-181.0-1.0,null,,,<p></p>,null,,,,,,,,,,,,,,,,,,
,do_trial,347,824091,0.0-182.0-0.0,421.19999999995343,,,,,,51,1,0,0,3,coast,125,0.5773488526214089,0.37732845560882816,0.2370678978738018,0,learn,,,,,,,
,html-keyboard-response,348,825094,0.0-182.0-1.0,null,,,<p></p>,null,,,,,,,,,,,,,,,,,,
,do_trial,349,827950,0.0-183.0-0.0,348.69999999995343,,,,,,50,0,1,0,3,coast,126,0.5839128429203296,0.37125147672999786,0.13389283406326105,1,learn,,,,,,,
,html-keyboard-response,350,828954,0.0-183.0-1.0,null,,,<p></p>,null,,,,,,,,,,,,,,,,,,
,do_trial,351,831934,0.0-184.0-0.0,474.10000000009313,,,,,,50,1,1,1,3,coast,127,0.44893203268856346,0.41186946188730994,0.18958483308989388,1,learn,,,,,,,
,html-keyboard-response,352,832937,0.0-184.0-1.0,null,,,<p></p>,null,,,,,,,,,,,,,,,,,,
,do_trial,353,836125,0.0-185.0-0.0,680.6000000000931,,,,,,50,1,1,0,3,coast,128,0.36682292867638566,0.30889313856603595,0.206060748954311,1,learn,,,,,,,
,html-keyboard-response,354,837128,0.0-185.0-1.0,null,,,<p></p>,null,,,,,,,,,,,,,,,,,,
,do_trial,355,840449,0.0-186.0-0.0,815,,,,,,50,0,0,1,3,coast,129,0.4115464182476325,0.3036723594778274,0.19548527700587287,0,learn,,,,,,,
,html-keyboard-response,356,841452,0.0-186.0-1.0,null,,,<p></p>,null,,,,,,,,,,,,,,,,,,
,do_trial,357,845252,0.0-187.0-0.0,1294.1999999999534,,,,,,50,1,0,0,3,coast,130,0.5767844521395626,0.3278009937026702,0.08881799727296255,0,learn,,,,,,,
,html-keyboard-response,358,846256,0.0-187.0-1.0,null,,,<p></p>,null,,,,,,,,,,,,,,,,,,
,do_trial,359,849264,0.0-188.0-0.0,502.10000000009313,,,,,,50,1,0,0,3,coast,131,0.5961925539591924,0.23596697222411814,0.12502212604753807,0,learn,,,,,,,
,html-keyboard-response,360,850267,0.0-188.0-1.0,null,,,<p></p>,null,,,,,,,,,,,,,,,,,,
,do_trial,361,853246,0.0-189.0-0.0,472.9000000001397,,,,,,50,0,0,0,3,coast,132,0.5838249069218446,0.2607015482257742,0.11279344539733367,0,learn,,,,,,,
,html-keyboard-response,362,854249,0.0-189.0-1.0,null,,,<p></p>,null,,,,,,,,,,,,,,,,,,
,do_trial,363,857637,0.0-190.0-0.0,880.8000000000466,,,,,,49,1,0,0,3,coast,133,0.6485470485916006,0.2354244685122678,0.0833768623476215,1,learn,,,,,,,
,html-keyboard-response,364,858641,0.0-190.0-1.0,null,,,<p></p>,null,,,,,,,,,,,,,,,,,,
,do_trial,365,861489,0.0-191.0-0.0,340.5999999998603,,,,,,49,1,0,0,3,coast,134,0.6885416140549857,0.32497477544855663,0.12759717834788512,1,learn,,,,,,,
,html-keyboard-response,366,862492,0.0-191.0-1.0,null,,,<p></p>,null,,,,,,,,,,,,,,,,,,
,do_trial,367,865270,0.0-192.0-0.0,271.10000000009313,,,,,,49,1,0,1,3,coast,135,0.6081880875524831,0.42212693913728094,0.10926797769489988,1,learn,,,,,,,
,html-keyboard-response,368,866273,0.0-192.0-1.0,null,,,<p></p>,null,,,,,,,,,,,,,,,,,,
,do_trial,369,869400,0.0-193.0-0.0,619.5,,,,,,49,0,0,0,3,coast,136,0.5949673934156198,0.3774459067345126,0.07742522626834004,0,learn,,,,,,,
,html-keyboard-response,370,870403,0.0-193.0-1.0,null,,,<p></p>,null,,,,,,,,,,,,,,,,,,
,do_trial,371,873440,0.0-194.0-0.0,529.1999999999534,,,,,,49,1,0,1,3,coast,137,0.5366796651918856,0.265675668559959,0.2816492436323904,1,learn,,,,,,,
,html-keyboard-response,372,874443,0.0-194.0-1.0,null,,,<p></p>,null,,,,,,,,,,,,,,,,,,
,do_trial,373,877777,0.0-195.0-0.0,827.5,,,,,,49,1,0,1,3,coast,138,0.5483765472631006,0.2878567332493433,0.19815792374489088,1,learn,,,,,,,
,html-keyboard-response,374,878780,0.0-195.0-1.0,null,,,<p></p>,null,,,,,,,,,,,,,,,,,,
,do_trial,375,881631,0.0-196.0-0.0,344.80000000004657,,,,,,49,1,1,0,3,coast,139,0.49420465851941886,0.405780366348028,0.2540660621063594,1,learn,,,,,,,
,html-keyboard-response,376,882635,0.0-196.0-1.0,null,,,<p></p>,null,,,,,,,,,,,,,,,,,,
,do_trial,377,886193,0.0-197.0-0.0,1050.7999999998137,,,,,,49,0,0,0,3,coast,140,0.4863121667639079,0.35432445804716084,0.16821334083094874,0,learn,,,,,,,
,html-keyboard-response,378,887195,0.0-197.0-1.0,null,,,<p></p>,null,,,,,,,,,,,,,,,,,,
,do_trial,379,890138,0.0-198.0-0.0,436.30000000004657,,,,,,49,1,1,0,3,coast,141,0.576386436880852,0.42632729782639367,0.1629380985264983,1,learn,,,,,,,
,html-keyboard-response,380,891140,0.0-198.0-1.0,null,,,<p></p>,null,,,,,,,,,,,,,,,,,,
,do_trial,381,894153,0.0-199.0-0.0,506.0999999998603,,,,,,49,0,0,0,3,coast,142,0.39669635785577695,0.3291557763237908,0.13466230955300434,0,learn,,,,,,,
,html-keyboard-response,382,895156,0.0-199.0-1.0,null,,,<p></p>,null,,,,,,,,,,,,,,,,,,
,do_trial,383,898761,0.0-200.0-0.0,1097.6999999999534,,,,,,49,0,0,0,3,coast,143,0.5154744508260786,0.3899622906156967,0.11052607842461877,0,learn,,,,,,,
,html-keyboard-response,384,899764,0.0-200.0-1.0,null,,,<p></p>,null,,,,,,,,,,,,,,,,,,
,do_trial,385,902622,0.0-201.0-0.0,351,,,,,,49,1,0,0,3,coast,144,0.5140698176652225,0.26307735448968744,0.12534845854115217,1,learn,,,,,,,
,html-keyboard-response,386,903625,0.0-201.0-1.0,null,,,<p></p>,null,,,,,,,,,,,,,,,,,,
,do_trial,387,906440,0.0-202.0-0.0,307.39999999990687,,,,,,49,1,1,0,3,coast,145,0.4233729455907877,0.29996047078188964,0.07375962770341003,1,learn,,,,,,,
,html-keyboard-response,388,907443,0.0-202.0-1.0,null,,,<p></p>,null,,,,,,,,,,,,,,,,,,
,do_trial,389,910292,0.0-203.0-0.0,342.29999999981374,,,,,,49,0,0,0,3,coast,146,0.5408937454997138,0.2857807560803959,0.07348005516562908,0,learn,,,,,,,
,html-keyboard-response,390,911295,0.0-203.0-1.0,null,,,<p></p>,null,,,,,,,,,,,,,,,,,,
,do_trial,391,914107,0.0-204.0-0.0,305.70000000018626,,,,,,49,1,1,0,3,coast,147,0.4448260947143089,0.3589370054371308,0.11169330918652631,1,learn,,,,,,,
,html-keyboard-response,392,915109,0.0-204.0-1.0,null,,,<p></p>,null,,,,,,,,,,,,,,,,,,
,do_trial,393,917938,0.0-205.0-0.0,322.0999999998603,,,,,,49,0,0,0,3,coast,148,0.47665107854147976,0.30017061966461733,0.17719498075430604,0,learn,,,,,,,
,html-keyboard-response,394,918941,0.0-205.0-1.0,null,,,<p></p>,null,,,,,,,,,,,,,,,,,,
,do_trial,395,922190,0.0-206.0-0.0,743,,,,,,49,0,0,0,3,coast,149,0.4479123049743952,0.10435103559618611,0.1564022337251788,0,learn,,,,,,,
,html-keyboard-response,396,923193,0.0-206.0-1.0,null,,,<p></p>,null,,,,,,,,,,,,,,,,,,
,attention_check,397,924222,0.0-207.0-0.0,1027.1999999999534,,,<div style='position:relative; margin-top: 600px;'><p>Before we set sail — press the <b>Z</b> key to continue!</p></div>,90,,,,,,,,,,,,true,,,,,,
,do_bye,398,925728,0.0-207.0-1.0,null,,,,,,null,,,,,,,,,,,,,,,,
,break,399,943085,0.0-207.0-2.0,17355.699999999953,,,<div class='center'><p>Time to take a quick break! You have 2 minutes to rest, but you can move on sooner if you'd like.</p><p> Press the <b>space bar</b> to continue.</p></div>,32,,,,,,,,,,,,,,,,,,
,do_travel,400,952089,0.0-208.0-0.0,null,,,,,,null,,,,,,,,,,,,,,,,
,do_welcome,401,956104,0.0-208.0-1.0,null,,,,,,null,,,,,,,,,,,,,,,,
,do_trial,402,959800,0.0-209.0-0.0,1190.3000000000466,,,,,,50,1,0,0,4,mountain,150,1,0.269555854990021,0.2604676702749984,0,learn,,,,,,,
,html-keyboard-response,403,960803,0.0-209.0-1.0,null,,,<p></p>,null,,,,,,,,,,,,,,,,,,
,do_trial,404,963593,0.0-210.0-0.0,282.9000000001397,,,,,,51,1,0,0,4,mountain,151,1,0.18028165269889343,0.06797021218904777,0,learn,,,,,,,
,html-keyboard-response,405,964597,0.0-210.0-1.0,null,,,<p></p>,null,,,,,,,,,,,,,,,,,,
,do_trial,406,967371,0.0-211.0-0.0,266.39999999990687,,,,,,49,1,0,0,4,mountain,152,0.8903808254483145,0.2044881240637947,0.12316956494487145,1,learn,,,,,,,
,html-keyboard-response,407,968375,0.0-211.0-1.0,null,,,<p></p>,null,,,,,,,,,,,,,,,,,,
,do_trial,408,971158,0.0-212.0-0.0,275.30000000004657,,,,,,49,1,0,0,4,mountain,153,0.7061610515047909,0.3326467792417848,0.08072768563146653,1,learn,,,,,,,
,html-keyboard-response,409,972161,0.0-212.0-1.0,null,,,<p></p>,null,,,,,,,,,,,,,,,,,,
,do_trial,410,975131,0.0-213.0-0.0,462.89999999990687,,,,,,49,0,0,0,4,mountain,154,0.5775182304317229,0.29637495684577375,0.08136986839339008,0,learn,,,,,,,
,html-keyboard-response,411,976134,0.0-213.0-1.0,null,,,<p></p>,null,,,,,,,,,,,,,,,,,,
,do_trial,412,978894,0.0-214.0-0.0,253.60000000009313,,,,,,49,0,1,0,4,mountain,155,0.48009675313727174,0.2720614662828493,0.06307897503192499,0,learn,,,,,,,
,html-keyboard-response,413,979897,0.0-214.0-1.0,null,,,<p></p>,null,,,,,,,,,,,,,,,,,,
,do_trial,414,982642,0.0-215.0-0.0,238.30000000004657,,,,,,49,1,1,0,4,mountain,156,0.5546992212510241,0.33666318542011,0.2037926758143964,1,learn,,,,,,,
,html-keyboard-response,415,983646,0.0-215.0-1.0,null,,,<p></p>,null,,,,,,,,,,,,,,,,,,
,do_trial,416,986422,0.0-216.0-0.0,269.39999999990687,,,,,,49,0,0,0,4,mountain,157,0.6440381869090864,0.454693129485429,0.0851683410255555,0,learn,,,,,,,
,html-keyboard-response,417,987426,0.0-216.0-1.0,null,,,<p></p>,null,,,,,,,,,,,,,,,,,,
,do_trial,418,990175,0.0-217.0-0.0,242.30000000004657,,,,,,49,1,1,0,4,mountain,158,0.6791488879664127,0.425033177267613,0.07890767018767884,1,learn,,,,,,,
,html-keyboard-response,419,991178,0.0-217.0-1.0,null,,,<p></p>,null,,,,,,,,,,,,,,,,,,
,do_trial,420,994007,0.0-218.0-0.0,322.9000000001397,,,,,,49,0,0,0,4,mountain,159,0.6423562822956158,0.25052927399821895,0.14844225720297965,0,learn,,,,,,,
,html-keyboard-response,421,995010,0.0-218.0-1.0,null,,,<p></p>,null,,,,,,,,,,,,,,,,,,
,do_trial,422,997779,0.0-219.0-0.0,262.9000000001397,,,,,,49,1,0,0,4,mountain,160,0.42143813894503496,0.16139576361428326,0.06294105858298525,1,learn,,,,,,,
,html-keyboard-response,423,998782,0.0-219.0-1.0,null,,,<p></p>,null,,,,,,,,,,,,,,,,,,
,do_trial,424,1001722,0.0-220.0-0.0,434.69999999995343,,,,,,49,1,0,0,4,mountain,161,0.39835215379149896,0.1526205919165835,0.08812168305766001,1,learn,,,,,,,
,html-keyboard-response,425,1002725,0.0-220.0-1.0,null,,,<p></p>,null,,,,,,,,,,,,,,,,,,
,do_trial,426,1005516,0.0-221.0-0.0,284.89999999990687,,,,,,49,0,0,0,4,mountain,162,0.24201027658559635,0.28704238894530826,0.15468900874212024,0,learn,,,,,,,
,html-keyboard-response,427,1006519,0.0-221.0-1.0,null,,,<p></p>,null,,,,,,,,,,,,,,,,,,
,do_trial,428,1009276,0.0-222.0-0.0,249.89999999990687,,,,,,49,0,0,0,4,mountain,163,0.16771093754898253,0.3668543254825754,0.15619118830487386,0,learn,,,,,,,
,html-keyboard-response,429,1010279,0.0-222.0-1.0,null,,,<p></p>,null,,,,,,,,,,,,,,,,,,
,do_trial,430,1013052,0.0-223.0-0.0,265.80000000004657,,,,,,49,0,0,0,4,mountain,164,0.11176976352348567,0.47861645918441703,0.06721243218846301,0,learn,,,,,,,
,html-keyboard-response,431,1014055,0.0-223.0-1.0,null,,,<p></p>,null,,,,,,,,,,,,,,,,,,
,do_trial,432,1016794,0.0-224.0-0.0,234.19999999995343,,,,,,50,0,1,0,4,mountain,165,0.2346626356024335,0.6306347084140217,0.08516770643020075,1,learn,,,,,,,
,html-keyboard-response,433,1017798,0.0-224.0-1.0,null,,,<p></p>,null,,,,,,,,,,,,,,,,,,
,do_trial,434,1020573,0.0-225.0-0.0,269.10000000009313,,,,,,50,0,1,0,4,mountain,166,0.3244379609577142,0.7512295639980481,0.15961763676422805,1,learn,,,,,,,
,html-keyboard-response,435,1021576,0.0-225.0-1.0,null,,,<p></p>,null,,,,,,,,,,,,,,,,,,
,do_trial,436,1024349,0.0-226.0-0.0,265.5999999998603,,,,,,50,0,1,0,4,mountain,167,0.28558267373322144,0.8011425628017194,0.09758455301673863,1,learn,,,,,,,
,html-keyboard-response,437,1025352,0.0-226.0-1.0,null,,,<p></p>,null,,,,,,,,,,,,,,,,,,
,do_trial,438,1028331,0.0-227.0-0.0,471.39999999990687,,,,,,50,1,0,0,4,mountain,168,0.30512129950751765,0.8178198723322998,0.052544972370071275,0,learn,,,,,,,
,html-keyboard-response,439,1029334,0.0-227.0-1.0,null,,,<p></p>,null,,,,,,,,,,,,,,,,,,
,do_trial,440,1032161,0.0-228.0-0.0,321.0999999998603,,,,,,50,1,1,1,4,mountain,169,0.24270448053397065,0.7138296947824143,0.23174916462911008,1,learn,,,,,,,
,html-keyboard-response,441,1033164,0.0-228.0-1.0,null,,,<p></p>,null,,,,,,,,,,,,,,,,,,
,do_trial,442,1036044,0.0-229.0-0.0,372.9000000001397,,,,,,50,0,1,0,4,mountain,170,0.08282006192426071,0.768331779888965,0.06814324950419128,1,learn,,,,,,,
,html-keyboard-response,443,1037047,0.0-229.0-1.0,null,,,<p></p>,null,,,,,,,,,,,,,,,,,,
,do_trial,444,1039889,0.0-230.0-0.0,334.4000000001397,,,,,,50,0,1,1,4,mountain,171,0.15979580187816556,0.6915275540891881,0.10783702125350556,1,learn,,,,,,,
,html-keyboard-response,445,1040892,0.0-230.0-1.0,null,,,<p></p>,null,,,,,,,,,,,,,,,,,,
,do_trial,446,1043714,0.0-231.0-0.0,316.80000000004657,,,,,,50,0,1,0,4,mountain,172,0.31487349278435106,0.5888179524928348,0.07060142250917065,1,learn,,,,,,,
,html-keyboard-response,447,1044718,0.0-231.0-1.0,null,,,<p></p>,null,,,,,,,,,,,,,,,,,,
,do_trial,448,1047463,0.0-232.0-0.0,238.39999999990687,,,,,,50,0,1,0,4,mountain,173,0.1445484270025875,0.7274696994200635,0.19039125035551052,1,learn,,,,,,,
,html-keyboard-response,449,1048467,0.0-232.0-1.0,null,,,<p></p>,null,,,,,,,,,,,,,,,,,,
,do_trial,450,1051304,0.0-233.0-0.0,330.80000000004657,,,,,,50,1,1,0,4,mountain,174,0.17023913050183573,0.7586535974410871,0.352805055491443,1,learn,,,,,,,
,html-keyboard-response,451,1052306,0.0-233.0-1.0,null,,,<p></p>,null,,,,,,,,,,,,,,,,,,
,do_trial,452,1054868,0.0-234.0-0.0,54.9000000001397,,,,,,50,0,1,0,4,mountain,175,0.15244235624988187,0.7235965269385884,0.3109804994087014,1,learn,,,,,,,
,html-keyboard-response,453,1055871,0.0-234.0-1.0,null,,,<p></p>,null,,,,,,,,,,,,,,,,,,
,do_trial,454,1058811,0.0-235.0-0.0,434.39999999990687,,,,,,50,0,1,0,4,mountain,176,0.24564221106888842,0.6293692972964948,0.33004880124137775,1,learn,,,,,,,
,html-keyboard-response,455,1059815,0.0-235.0-1.0,null,,,<p></p>,null,,,,,,,,,,,,,,,,,,
,do_trial,456,1062978,0.0-236.0-0.0,656.7999999998137,,,,,,50,0,0,0,4,mountain,177,0.2828693619103753,0.6510993325155618,0.37459415413069636,0,learn,,,,,,,
,html-keyboard-response,457,1063982,0.0-236.0-1.0,null,,,<p></p>,null,,,,,,,,,,,,,,,,,,
,do_trial,458,1066729,0.0-237.0-0.0,240.0999999998603,,,,,,50,0,1,0,4,mountain,178,0.3869522618427165,0.5787631494588511,0.21178346960603242,1,learn,,,,,,,
,html-keyboard-response,459,1067732,0.0-237.0-1.0,null,,,<p></p>,null,,,,,,,,,,,,,,,,,,
,do_trial,460,1070629,0.0-238.0-0.0,390.4000000001397,,,,,,50,1,1,0,4,mountain,179,0.5605864343427706,0.6567057982382413,0.05357994487342046,1,learn,,,,,,,
,html-keyboard-response,461,1071633,0.0-238.0-1.0,null,,,<p></p>,null,,,,,,,,,,,,,,,,,,
,do_trial,462,1074444,0.0-239.0-0.0,304.60000000009313,,,,,,50,0,0,0,4,mountain,180,0.3187752827720732,0.6611835920433481,0.13203288551536863,0,learn,,,,,,,
,html-keyboard-response,463,1075447,0.0-239.0-1.0,null,,,<p></p>,null,,,,,,,,,,,,,,,,,,
,do_trial,464,1078307,0.0-240.0-0.0,352.39999999990687,,,,,,50,1,1,0,4,mountain,181,0.34811936561845813,0.5374746808105705,0.06107146978596526,1,learn,,,,,,,
,html-keyboard-response,465,1079310,0.0-240.0-1.0,null,,,<p></p>,null,,,,,,,,,,,,,,,,,,
,do_trial,466,1082093,0.0-241.0-0.0,276,,,,,,50,0,0,0,4,mountain,182,0.42264559731875717,0.5497069231085492,0.10560845948176964,0,learn,,,,,,,
,html-keyboard-response,467,1083095,0.0-241.0-1.0,null,,,<p></p>,null,,,,,,,,,,,,,,,,,,
,do_trial,468,1086141,0.0-242.0-0.0,538.6000000000931,,,,,,50,1,1,0,4,mountain,183,0.35671530269711577,0.6404921812438749,0.11294385533582074,1,learn,,,,,,,
,html-keyboard-response,469,1087144,0.0-242.0-1.0,null,,,<p></p>,null,,,,,,,,,,,,,,,,,,
,do_trial,470,1089926,0.0-243.0-0.0,275.80000000004657,,,,,,50,0,1,0,4,mountain,184,0.23929111335521724,0.8475532060232169,0.08538351493784418,1,learn,,,,,,,
,html-keyboard-response,471,1090929,0.0-243.0-1.0,null,,,<p></p>,null,,,,,,,,,,,,,,,,,,
,do_trial,472,1093728,0.0-244.0-0.0,291.29999999981374,,,,,,50,0,1,0,4,mountain,185,0.3074974811181722,0.7783472373012987,0.23781282632333145,1,learn,,,,,,,
,html-keyboard-response,473,1094731,0.0-244.0-1.0,null,,,<p></p>,null,,,,,,,,,,,,,,,,,,
,do_trial,474,1097536,0.0-245.0-0.0,298.30000000004657,,,,,,50,0,1,0,4,mountain,186,0.3164629858905619,0.7494837152703315,0.14351569293727012,1,learn,,,,,,,
,html-keyboard-response,475,1098540,0.0-245.0-1.0,null,,,<p></p>,null,,,,,,,,,,,,,,,,,,
,do_trial,476,1101520,0.0-246.0-0.0,472.20000000018626,,,,,,50,0,1,0,4,mountain,187,0.23309473898212663,0.6628829712801921,0.10530895993046419,1,learn,,,,,,,
,html-keyboard-response,477,1102522,0.0-246.0-1.0,null,,,<p></p>,null,,,,,,,,,,,,,,,,,,
,do_trial,478,1105393,0.0-247.0-0.0,362.89999999990687,,,,,,50,0,1,0,4,mountain,188,0.34541288152605004,0.5882309841033976,0.07444012667624471,1,learn,,,,,,,
,html-keyboard-response,479,1106396,0.0-247.0-1.0,null,,,<p></p>,null,,,,,,,,,,,,,,,,,,
,do_trial,480,1109256,0.0-248.0-0.0,354.69999999995343,,,,,,50,1,0,0,4,mountain,189,0.3597849929243705,0.6232120012133595,0.1687297906156821,0,learn,,,,,,,
,html-keyboard-response,481,1110260,0.0-248.0-1.0,null,,,<p></p>,null,,,,,,,,,,,,,,,,,,
,attention_check,482,1111524,0.0-249.0-0.0,1262.9000000001397,,,<div style='position:relative; margin-top: 600px;'><p>Before we set sail — press the <b>Z</b> key to continue!</p></div>,90,,,,,,,,,,,,true,,,,,,
,do_bye,483,1113031,0.0-249.0-1.0,null,,,,,,null,,,,,,,,,,,,,,,,
,break,484,1114616,0.0-249.0-2.0,1583.0999999998603,,,<div class='center'><p>Time to take a quick break! You have 2 minutes to rest, but you can move on sooner if you'd like.</p><p> Press the <b>space bar</b> to continue.</p></div>,32,,,,,,,,,,,,,,,,,,
,do_travel,485,1123621,0.0-250.0-0.0,null,,,,,,null,,,,,,,,,,,,,,,,
,do_welcome,486,1127637,0.0-250.0-1.0,null,,,,,,null,,,,,,,,,,,,,,,,
,do_trial,487,1131299,0.0-251.0-0.0,1154.0999999998603,,,,,,49,1,1,0,5,city,190,0.3841477821553059,1,0.06088663492081329,1,learn,,,,,,,
,html-keyboard-response,488,1132302,0.0-251.0-1.0,null,,,<p></p>,null,,,,,,,,,,,,,,,,,,
,do_trial,489,1135132,0.0-252.0-0.0,323.60000000009313,,,,,,49,0,1,0,5,city,191,0.2566094151322335,1,0.054663753600346594,0,learn,,,,,,,
,html-keyboard-response,490,1136135,0.0-252.0-1.0,null,,,<p></p>,null,,,,,,,,,,,,,,,,,,
,do_trial,491,1138903,0.0-253.0-0.0,260.80000000004657,,,,,,49,0,1,0,5,city,192,0.1454258936760221,0.8348744427532087,0.10669009020460131,0,learn,,,,,,,
,html-keyboard-response,492,1139906,0.0-253.0-1.0,null,,,<p></p>,null,,,,,,,,,,,,,,,,,,
,do_trial,493,1142634,0.0-254.0-0.0,220.10000000009313,,,,,,50,1,1,0,5,city,193,0.2428998982240456,0.7450976521593387,0.06267143278645397,1,learn,,,,,,,
,html-keyboard-response,494,1143638,0.0-254.0-1.0,null,,,<p></p>,null,,,,,,,,,,,,,,,,,,
,do_trial,495,1146348,0.0-255.0-0.0,202.69999999995343,,,,,,50,0,1,0,5,city,194,0.07935277588572164,0.6481104275059757,0.13156652664771165,1,learn,,,,,,,
,html-keyboard-response,496,1147351,0.0-255.0-1.0,null,,,<p></p>,null,,,,,,,,,,,,,,,,,,
,do_trial,497,1150077,0.0-256.0-0.0,220,,,,,,50,0,0,0,5,city,195,0.15313282862629332,0.6778749209324587,0.062425109518740335,0,learn,,,,,,,
,html-keyboard-response,498,1151080,0.0-256.0-1.0,null,,,<p></p>,null,,,,,,,,,,,,,,,,,,
,do_trial,499,1153821,0.0-257.0-0.0,234.10000000009313,,,,,,50,0,0,1,5,city,196,0.052786348419912324,0.7005033692484399,0.20692662985159976,0,learn,,,,,,,
,html-keyboard-response,500,1154824,0.0-257.0-1.0,null,,,<p></p>,null,,,,,,,,,,,,,,,,,,
,do_trial,501,1157570,0.0-258.0-0.0,239.89999999990687,,,,,,50,0,1,1,5,city,197,0.05184765919806548,0.6835453616099104,0.2740135337321276,1,learn,,,,,,,
,html-keyboard-response,502,1158572,0.0-258.0-1.0,null,,,<p></p>,null,,,,,,,,,,,,,,,,,,
,do_trial,503,1161328,0.0-259.0-0.0,249.20000000018626,,,,,,50,1,1,0,5,city,198,0.06276120435970908,0.5562338516750929,0.23534369432037047,1,learn,,,,,,,
,html-keyboard-response,504,1162332,0.0-259.0-1.0,null,,,<p></p>,null,,,,,,,,,,,,,,,,,,
,do_trial,505,1165111,0.0-260.0-0.0,273,,,,,,50,0,1,0,5,city,199,0.15067681082566808,0.6035916383304185,0.09255141554368042,1,learn,,,,,,,
,html-keyboard-response,506,1166114,0.0-260.0-1.0,null,,,<p></p>,null,,,,,,,,,,,,,,,,,,
,do_trial,507,1168992,0.0-261.0-0.0,369.70000000018626,,,,,,50,0,0,0,5,city,200,0.16643517688681184,0.6222146752596269,0.06156686286750514,0,learn,,,,,,,
,html-keyboard-response,508,1169995,0.0-261.0-1.0,null,,,<p></p>,null,,,,,,,,,,,,,,,,,,
,do_trial,509,1172994,0.0-262.0-0.0,492.89999999990687,,,,,,50,0,1,0,5,city,201,0.25118192406280737,0.6788023624070268,0.07145153036078786,1,learn,,,,,,,
,html-keyboard-response,510,1173997,0.0-262.0-1.0,null,,,<p></p>,null,,,,,,,,,,,,,,,,,,
,do_trial,511,1177133,0.0-263.0-0.0,629,,,,,,50,0,0,1,5,city,202,0.1672225501015662,0.5154736874833867,0.2686403311083989,0,learn,,,,,,,
,html-keyboard-response,512,1178136,0.0-263.0-1.0,null,,,<p></p>,null,,,,,,,,,,,,,,,,,,
,do_trial,513,1181107,0.0-264.0-0.0,464.30000000004657,,,,,,50,0,0,0,5,city,203,0.2025009657247986,0.4942735495102149,0.357677536803896,0,learn,,,,,,,
,html-keyboard-response,514,1182110,0.0-264.0-1.0,null,,,<p></p>,null,,,,,,,,,,,,,,,,,,
,do_trial,515,1184943,0.0-265.0-0.0,326.0999999998603,,,,,,50,0,1,1,5,city,204,0.3053678294691337,0.4069932995476484,0.37077196842677734,1,learn,,,,,,,
,html-keyboard-response,516,1185946,0.0-265.0-1.0,null,,,<p></p>,null,,,,,,,,,,,,,,,,,,
,do_trial,517,1188804,0.0-266.0-0.0,350.20000000018626,,,,,,50,0,1,1,5,city,205,0.3163095227339085,0.4199534008342776,0.48829370794445626,1,learn,,,,,,,
,html-keyboard-response,518,1189807,0.0-266.0-1.0,null,,,<p></p>,null,,,,,,,,,,,,,,,,,,
,do_trial,519,1192832,0.0-267.0-0.0,519.8999999999069,,,,,,50,0,1,1,5,city,206,0.2461101636838385,0.322079390753394,0.4594079742391066,1,learn,,,,,,,
,html-keyboard-response,520,1193835,0.0-267.0-1.0,null,,,<p></p>,null,,,,,,,,,,,,,,,,,,
,do_trial,521,1196837,0.0-268.0-0.0,495.60000000009313,,,,,,50,0,0,1,5,city,207,0.10583885927525566,0.4175018784833372,0.481200667371291,0,learn,,,,,,,
,html-keyboard-response,522,1197840,0.0-268.0-1.0,null,,,<p></p>,null,,,,,,,,,,,,,,,,,,
,do_trial,523,1200765,0.0-269.0-0.0,418.80000000004657,,,,,,50,0,1,0,5,city,208,0.1210029518828677,0.4066077216773649,0.4907480396269457,1,learn,,,,,,,
,html-keyboard-response,524,1201768,0.0-269.0-1.0,null,,,<p></p>,null,,,,,,,,,,,,,,,,,,
,do_trial,525,1204671,0.0-270.0-0.0,395.30000000004657,,,,,,50,0,0,0,5,city,209,0.08762223565186758,0.47069047172234135,0.5547534655516053,0,learn,,,,,,,
,html-keyboard-response,526,1205674,0.0-270.0-1.0,null,,,<p></p>,null,,,,,,,,,,,,,,,,,,
,do_trial,527,1208703,0.0-271.0-0.0,523.5,,,,,,50,0,1,1,5,city,210,0.081084116783633,0.34054608227619787,0.5589731250959201,1,learn,,,,,,,
,html-keyboard-response,528,1209706,0.0-271.0-1.0,null,,,<p></p>,null,,,,,,,,,,,,,,,,,,
,do_trial,529,1212545,0.0-272.0-0.0,332.5999999998603,,,,,,50,0,1,0,5,city,211,0.0899736989990094,0.23744648622122377,0.6322599863392975,1,learn,,,,,,,
,html-keyboard-response,530,1213548,0.0-272.0-1.0,null,,,<p></p>,null,,,,,,,,,,,,,,,,,,
,do_trial,531,1216507,0.0-273.0-0.0,451.70000000018626,,,,,,50,1,0,1,5,city,212,0.24810574428476131,0.3631961303007658,0.6716135398965889,0,learn,,,,,,,
,html-keyboard-response,532,1217510,0.0-273.0-1.0,null,,,<p></p>,null,,,,,,,,,,,,,,,,,,
,do_trial,533,1220335,0.0-274.0-0.0,317.69999999995343,,,,,,50,1,0,0,5,city,213,0.18487852701005164,0.31667254047219473,0.6910593641742527,0,learn,,,,,,,
,html-keyboard-response,534,1221338,0.0-274.0-1.0,null,,,<p></p>,null,,,,,,,,,,,,,,,,,,
,do_trial,535,1224224,0.0-275.0-0.0,379.10000000009313,,,,,,50,0,1,0,5,city,214,0.08408778710564416,0.28485252251593995,0.661713231719737,1,learn,,,,,,,
,html-keyboard-response,536,1225227,0.0-275.0-1.0,null,,,<p></p>,null,,,,,,,,,,,,,,,,,,
,do_trial,537,1229212,0.0-276.0-0.0,1478.3000000000466,,,,,,50,0,1,0,5,city,215,0.11887186157826728,0.20382564334440567,0.38765191241427105,1,learn,,,,,,,
,html-keyboard-response,538,1230215,0.0-276.0-1.0,null,,,<p></p>,null,,,,,,,,,,,,,,,,,,
,do_trial,539,1233246,0.0-277.0-0.0,524.6000000000931,,,,,,50,0,0,0,5,city,216,0.12726060042118553,0.34450069116179244,0.5468239924897196,0,learn,,,,,,,
,html-keyboard-response,540,1234249,0.0-277.0-1.0,null,,,<p></p>,null,,,,,,,,,,,,,,,,,,
,do_trial,541,1237157,0.0-278.0-0.0,400.89999999990687,,,,,,50,0,0,1,5,city,217,0.14777885344393638,0.2226220485095586,0.6181314455512902,0,learn,,,,,,,
,html-keyboard-response,542,1238160,0.0-278.0-1.0,null,,,<p></p>,null,,,,,,,,,,,,,,,,,,
,do_trial,543,1240925,0.0-279.0-0.0,258.19999999995343,,,,,,50,0,1,1,5,city,218,0.0830637170513034,0.2977959050464148,0.696434705974761,1,learn,,,,,,,
,html-keyboard-response,544,1241928,0.0-279.0-1.0,null,,,<p></p>,null,,,,,,,,,,,,,,,,,,
,do_trial,545,1244817,0.0-280.0-0.0,383.60000000009313,,,,,,50,0,1,1,5,city,219,0.19819075564262803,0.3255653960936879,0.6645480832477085,1,learn,,,,,,,
,html-keyboard-response,546,1245821,0.0-280.0-1.0,null,,,<p></p>,null,,,,,,,,,,,,,,,,,,
,do_trial,547,1248645,0.0-281.0-0.0,319,,,,,,50,0,1,0,5,city,220,0.09350440266358016,0.29031686109079297,0.5328571214219734,1,learn,,,,,,,
,html-keyboard-response,548,1249649,0.0-281.0-1.0,null,,,<p></p>,null,,,,,,,,,,,,,,,,,,
,do_trial,549,1252648,0.0-282.0-0.0,492.5,,,,,,50,0,0,0,5,city,221,0.16134776114198293,0.3181053279647569,0.6246917765052155,0,learn,,,,,,,
,html-keyboard-response,550,1253651,0.0-282.0-1.0,null,,,<p></p>,null,,,,,,,,,,,,,,,,,,
,do_trial,551,1256432,0.0-283.0-0.0,274.80000000004657,,,,,,50,0,1,0,5,city,222,0.15571934819641878,0.3165068422357579,0.6189115091819563,1,learn,,,,,,,
,html-keyboard-response,552,1257435,0.0-283.0-1.0,null,,,<p></p>,null,,,,,,,,,,,,,,,,,,
,do_trial,553,1260241,0.0-284.0-0.0,299.19999999995343,,,,,,50,0,0,1,5,city,223,0.1965335601026987,0.31058729992477874,0.6223782314037216,0,learn,,,,,,,
,html-keyboard-response,554,1261244,0.0-284.0-1.0,null,,,<p></p>,null,,,,,,,,,,,,,,,,,,
,do_trial,555,1264028,0.0-285.0-0.0,278.20000000018626,,,,,,50,1,1,0,5,city,224,0.2500991274434211,0.41988685911315105,0.5564152715262909,1,learn,,,,,,,
,html-keyboard-response,556,1265030,0.0-285.0-1.0,null,,,<p></p>,null,,,,,,,,,,,,,,,,,,
,do_trial,557,1268741,0.0-286.0-0.0,1203.6999999999534,,,,,,50,1,0,0,5,city,225,0.2330025885262008,0.2984778198356893,0.5792275973011045,0,learn,,,,,,,
,html-keyboard-response,558,1269744,0.0-286.0-1.0,null,,,<p></p>,null,,,,,,,,,,,,,,,,,,
,do_trial,559,1272675,0.0-287.0-0.0,423.60000000009313,,,,,,51,0,0,1,5,city,226,0.26658527365203427,0.2495877018282802,0.5519789393252653,1,learn,,,,,,,
,html-keyboard-response,560,1273678,0.0-287.0-1.0,null,,,<p></p>,null,,,,,,,,,,,,,,,,,,
,do_trial,561,1276510,0.0-288.0-0.0,326,,,,,,51,0,1,0,5,city,227,0.15698262832469392,0.4277914010998966,0.5321476539102485,0,learn,,,,,,,
,html-keyboard-response,562,1277514,0.0-288.0-1.0,null,,,<p></p>,null,,,,,,,,,,,,,,,,,,
,do_trial,563,1280570,0.0-289.0-0.0,549.3999999999069,,,,,,51,0,0,1,5,city,228,0.10238961807357785,0.25346341443949905,0.6870811408164863,1,learn,,,,,,,
,html-keyboard-response,564,1281573,0.0-289.0-1.0,null,,,<p></p>,null,,,,,,,,,,,,,,,,,,
,do_trial,565,1284521,0.0-290.0-0.0,442.5,,,,,,51,0,0,1,5,city,229,0.1793522619409565,0.277632255166395,0.6188860599401405,1,learn,,,,,,,
,html-keyboard-response,566,1285524,0.0-290.0-1.0,null,,,<p></p>,null,,,,,,,,,,,,,,,,,,
,do_bye,567,1287031,0.0-291.0-0.0,null,,,,,,null,,,,,,,,,,,,,,,,
,html-keyboard-response,568,1289069,0.0-291.0-1.0,2036.5999999998603,,,<div class=center><p>Nice job plundering!</p><p>Press <b>space</b> to head back to pirate HQ.</p></div>,32,,,,,,,,,,,,,,,,,,
,html-keyboard-response,569,1291484,0.0-292.0-0.0,2403.399999999907,,,<div class=center><p>We have to sail past the islands again to get back to pirate HQ.</p><p>Press <b>space</b> to continue.</p></div>,32,,,,,,,,,,,,,,,,,,
,judgement_attention_check,570,1293059,0.0-293.0-0.0,1573.6000000000931,,,<div class='center'><p>Press <b>Z</b> to use the telescope to see what island is coming next!</p></div>,90,,,,,,,,,,,,true,0,,,,,
,do_welcome,571,1298067,0.0-293.0-1.0,null,,,,,,null,,,,,,,,,,,,,,,,
,do_trial,572,1304075,0.0-294.0-0.0,null,,,,,,null,1,1,1,0,countryside,230,,,,,judgement,,,,,,,
,html-keyboard-response,573,1305079,0.0-294.0-1.0,null,,,<p></p>,null,,,,,,,,,,,,,,,,,,
,do_trial,574,1310687,0.0-295.0-0.0,1100.5,,,,,,49,0,0,0,0,countryside,231,,,,0,judgement,,,,,,,
,html-keyboard-response,575,1311691,0.0-295.0-1.0,null,,,<p></p>,null,,,,,,,,,,,,,,,,,,
,do_trial,576,1316940,0.0-296.0-0.0,741.6999999999534,,,,,,50,1,1,1,0,countryside,232,,,,1,judgement,,,,,,,
,html-keyboard-response,577,1317944,0.0-296.0-1.0,null,,,<p></p>,null,,,,,,,,,,,,,,,,,,
,do_trial,578,1322986,0.0-297.0-0.0,535.1999999999534,,,,,,50,0,0,0,0,countryside,233,,,,0,judgement,,,,,,,
,html-keyboard-response,579,1323989,0.0-297.0-1.0,null,,,<p></p>,null,,,,,,,,,,,,,,,,,,
,do_trial,580,1329365,0.0-298.0-0.0,868.6999999999534,,,,,,51,0,0,0,0,countryside,234,,,,0,judgement,,,,,,,
,html-keyboard-response,581,1330369,0.0-298.0-1.0,null,,,<p></p>,null,,,,,,,,,,,,,,,,,,
,do_trial,582,1335167,0.0-299.0-0.0,292.0999999998603,,,,,,50,1,1,0,0,countryside,235,,,,1,judgement,,,,,,,
,html-keyboard-response,583,1336170,0.0-299.0-1.0,null,,,<p></p>,null,,,,,,,,,,,,,,,,,,
,do_trial,584,1341101,0.0-300.0-0.0,423.69999999995343,,,,,,50,1,0,1,0,countryside,236,,,,0,judgement,,,,,,,
,html-keyboard-response,585,1342105,0.0-300.0-1.0,null,,,<p></p>,null,,,,,,,,,,,,,,,,,,
,do_trial,586,1347149,0.0-301.0-0.0,537.4000000001397,,,,,,50,0,1,0,0,countryside,237,,,,1,judgement,,,,,,,
,html-keyboard-response,587,1348153,0.0-301.0-1.0,null,,,<p></p>,null,,,,,,,,,,,,,,,,,,
,do_trial,588,1353333,0.0-302.0-0.0,673.1000000000931,,,,,,50,0,1,0,0,countryside,238,,,,1,judgement,,,,,,,
,html-keyboard-response,589,1354337,0.0-302.0-1.0,null,,,<p></p>,null,,,,,,,,,,,,,,,,,,
,do_trial,590,1359763,0.0-303.0-0.0,919.7999999998137,,,,,,50,0,1,0,0,countryside,239,,,,1,judgement,,,,,,,
,html-keyboard-response,591,1360766,0.0-303.0-1.0,null,,,<p></p>,null,,,,,,,,,,,,,,,,,,
,html-keyboard-response,592,1360768,0.0-304.0-0.0,null,,,,null,,,,,,,,,,,,,,,,,,
,judgement_attention_check,593,1362138,0.0-305.0-0.0,1369.1999999997206,,,<div class='center'><p>Press <b>Z</b> to use the telescope to see what island is coming next!</p></div>,90,,,,,,,,,,,,true,1,,,,,
,do_welcome,594,1367147,0.0-305.0-1.0,null,,,,,,null,,,,,,,,,,,,,,,,
,do_trial,595,1373342,0.0-306.0-0.0,1686.5999999996275,,,,,,51,1,1,0,1,forest,240,,,,0,judgement,,,,,,,
,html-keyboard-response,596,1374346,0.0-306.0-1.0,null,,,<p></p>,null,,,,,,,,,,,,,,,,,,
,do_trial,597,1379513,0.0-307.0-0.0,660.7000000001863,,,,,,49,1,0,1,1,forest,241,,,,1,judgement,,,,,,,
,html-keyboard-response,598,1380517,0.0-307.0-1.0,null,,,<p></p>,null,,,,,,,,,,,,,,,,,,
,do_trial,599,1385430,0.0-308.0-0.0,405.5,,,,,,49,0,0,1,1,forest,242,,,,0,judgement,,,,,,,
,html-keyboard-response,600,1386433,0.0-308.0-1.0,null,,,<p></p>,null,,,,,,,,,,,,,,,,,,
,do_trial,601,1392731,0.0-309.0-0.0,1790.2999999998137,,,,,,50,1,1,0,1,forest,243,,,,1,judgement,,,,,,,
,html-keyboard-response,602,1393735,0.0-309.0-1.0,null,,,<p></p>,null,,,,,,,,,,,,,,,,,,
,do_trial,603,1398579,0.0-310.0-0.0,337.5,,,,,,50,0,0,0,1,forest,244,,,,0,judgement,,,,,,,
,html-keyboard-response,604,1399582,0.0-310.0-1.0,null,,,<p></p>,null,,,,,,,,,,,,,,,,,,
,do_trial,605,1404675,0.0-311.0-0.0,587.6000000000931,,,,,,50,0,1,1,1,forest,245,,,,1,judgement,,,,,,,
,html-keyboard-response,606,1405679,0.0-311.0-1.0,null,,,<p></p>,null,,,,,,,,,,,,,,,,,,
,do_trial,607,1410561,0.0-312.0-0.0,375.39999999990687,,,,,,50,0,1,0,1,forest,246,,,,1,judgement,,,,,,,
,html-keyboard-response,608,1411564,0.0-312.0-1.0,null,,,<p></p>,null,,,,,,,,,,,,,,,,,,
,do_trial,609,1416529,0.0-313.0-0.0,457.79999999981374,,,,,,50,1,0,1,1,forest,247,,,,0,judgement,,,,,,,
,html-keyboard-response,610,1417532,0.0-313.0-1.0,null,,,<p></p>,null,,,,,,,,,,,,,,,,,,
,do_trial,611,1422381,0.0-314.0-0.0,342.3000000002794,,,,,,50,1,1,0,1,forest,248,,,,1,judgement,,,,,,,
,html-keyboard-response,612,1423384,0.0-314.0-1.0,null,,,<p></p>,null,,,,,,,,,,,,,,,,,,
,do_trial,613,1428508,0.0-315.0-0.0,617.1999999997206,,,,,,50,1,0,1,1,forest,249,,,,0,judgement,,,,,,,
,html-keyboard-response,614,1429511,0.0-315.0-1.0,null,,,<p></p>,null,,,,,,,,,,,,,,,,,,
,html-keyboard-response,615,1429512,0.0-316.0-0.0,null,,,,null,,,,,,,,,,,,,,,,,,
,judgement_attention_check,616,1430856,0.0-317.0-0.0,1342.8000000002794,,,<div class='center'><p>Press <b>Z</b> to use the telescope to see what island is coming next!</p></div>,90,,,,,,,,,,,,true,2,,,,,
,do_welcome,617,1435863,0.0-317.0-1.0,null,,,,,,null,,,,,,,,,,,,,,,,
,do_trial,618,1441979,0.0-318.0-0.0,1608.2000000001863,,,,,,51,1,0,1,2,highway,250,,,,1,judgement,,,,,,,
,html-keyboard-response,619,1442982,0.0-318.0-1.0,null,,,<p></p>,null,,,,,,,,,,,,,,,,,,
,do_trial,620,1447895,0.0-319.0-0.0,405.8000000002794,,,,,,51,1,0,0,2,highway,251,,,,0,judgement,,,,,,,
,html-keyboard-response,621,1448898,0.0-319.0-1.0,null,,,<p></p>,null,,,,,,,,,,,,,,,,,,
,do_trial,622,1453791,0.0-320.0-0.0,386.3000000002794,,,,,,51,0,0,0,2,highway,252,,,,0,judgement,,,,,,,
,html-keyboard-response,623,1454794,0.0-320.0-1.0,null,,,<p></p>,null,,,,,,,,,,,,,,,,,,
,do_trial,624,1459637,0.0-321.0-0.0,337.10000000009313,,,,,,50,0,0,0,2,highway,253,,,,0,judgement,,,,,,,
,html-keyboard-response,625,1460640,0.0-321.0-1.0,null,,,<p></p>,null,,,,,,,,,,,,,,,,,,
,do_trial,626,1465484,0.0-322.0-0.0,337.1999999997206,,,,,,49,1,0,0,2,highway,254,,,,1,judgement,,,,,,,
,html-keyboard-response,627,1466487,0.0-322.0-1.0,null,,,<p></p>,null,,,,,,,,,,,,,,,,,,
,do_trial,628,1471472,0.0-323.0-0.0,477.59999999962747,,,,,,49,0,0,1,2,highway,255,,,,0,judgement,,,,,,,
,html-keyboard-response,629,1472475,0.0-323.0-1.0,null,,,<p></p>,null,,,,,,,,,,,,,,,,,,
,do_trial,630,1477315,0.0-324.0-0.0,333.39999999990687,,,,,,49,0,0,0,2,highway,256,,,,0,judgement,,,,,,,
,html-keyboard-response,631,1478319,0.0-324.0-1.0,null,,,<p></p>,null,,,,,,,,,,,,,,,,,,
,do_trial,632,1483163,0.0-325.0-0.0,338,,,,,,50,0,0,0,2,highway,257,,,,0,judgement,,,,,,,
,html-keyboard-response,633,1484166,0.0-325.0-1.0,null,,,<p></p>,null,,,,,,,,,,,,,,,,,,
,do_trial,634,1488927,0.0-326.0-0.0,253.89999999990687,,,,,,51,0,0,0,2,highway,258,,,,0,judgement,,,,,,,
,html-keyboard-response,635,1489931,0.0-326.0-1.0,null,,,<p></p>,null,,,,,,,,,,,,,,,,,,
,do_trial,636,1495383,0.0-327.0-0.0,947.2999999998137,,,,,,49,1,0,1,2,highway,259,,,,1,judgement,,,,,,,
,html-keyboard-response,637,1496386,0.0-327.0-1.0,null,,,<p></p>,null,,,,,,,,,,,,,,,,,,
,html-keyboard-response,638,1496388,0.0-328.0-0.0,null,,,,null,,,,,,,,,,,,,,,,,,
,judgement_attention_check,639,1497796,0.0-329.0-0.0,1407.6999999997206,,,<div class='center'><p>Press <b>Z</b> to use the telescope to see what island is coming next!</p></div>,90,,,,,,,,,,,,true,3,,,,,
,do_welcome,640,1502804,0.0-329.0-1.0,null,,,,,,null,,,,,,,,,,,,,,,,
,do_trial,641,1508859,0.0-330.0-0.0,1548.6999999997206,,,,,,50,0,1,1,3,coast,260,,,,1,judgement,,,,,,,
,html-keyboard-response,642,1509863,0.0-330.0-1.0,null,,,<p></p>,null,,,,,,,,,,,,,,,,,,
,do_trial,643,1514835,0.0-331.0-0.0,464.8000000002794,,,,,,50,1,1,1,3,coast,261,,,,1,judgement,,,,,,,
,html-keyboard-response,644,1515838,0.0-331.0-1.0,null,,,<p></p>,null,,,,,,,,,,,,,,,,,,
,do_trial,645,1520945,0.0-332.0-0.0,600.7999999998137,,,,,,50,0,0,0,3,coast,262,,,,0,judgement,,,,,,,
,html-keyboard-response,646,1521948,0.0-332.0-1.0,null,,,<p></p>,null,,,,,,,,,,,,,,,,,,
,do_trial,647,1527324,0.0-333.0-0.0,868.3999999999069,,,,,,50,0,0,0,3,coast,263,,,,0,judgement,,,,,,,
,html-keyboard-response,648,1528327,0.0-333.0-1.0,null,,,<p></p>,null,,,,,,,,,,,,,,,,,,
,do_trial,649,1533339,0.0-334.0-0.0,505.29999999981374,,,,,,50,1,0,1,3,coast,264,,,,0,judgement,,,,,,,
,html-keyboard-response,650,1534342,0.0-334.0-1.0,null,,,<p></p>,null,,,,,,,,,,,,,,,,,,
,do_trial,651,1539207,0.0-335.0-0.0,357.79999999981374,,,,,,50,0,1,0,3,coast,265,,,,1,judgement,,,,,,,
,html-keyboard-response,652,1540210,0.0-335.0-1.0,null,,,<p></p>,null,,,,,,,,,,,,,,,,,,
,do_trial,653,1545366,0.0-336.0-0.0,648.8999999999069,,,,,,50,1,0,1,3,coast,266,,,,0,judgement,,,,,,,
,html-keyboard-response,654,1546368,0.0-336.0-1.0,null,,,<p></p>,null,,,,,,,,,,,,,,,,,,
,do_trial,655,1551501,0.0-337.0-0.0,625.1999999997206,,,,,,50,0,0,0,3,coast,267,,,,0,judgement,,,,,,,
,html-keyboard-response,656,1552504,0.0-337.0-1.0,null,,,<p></p>,null,,,,,,,,,,,,,,,,,,
,do_trial,657,1557461,0.0-338.0-0.0,449.40000000037253,,,,,,51,1,0,0,3,coast,268,,,,0,judgement,,,,,,,
,html-keyboard-response,658,1558465,0.0-338.0-1.0,null,,,<p></p>,null,,,,,,,,,,,,,,,,,,
,do_trial,659,1563509,0.0-339.0-0.0,538.1999999997206,,,,,,49,0,0,0,3,coast,269,,,,0,judgement,,,,,,,
,html-keyboard-response,660,1564512,0.0-339.0-1.0,null,,,<p></p>,null,,,,,,,,,,,,,,,,,,
,html-keyboard-response,661,1564514,0.0-340.0-0.0,null,,,,null,,,,,,,,,,,,,,,,,,
,judgement_attention_check,662,1565552,0.0-341.0-0.0,1036.1000000000931,,,<div class='center'><p>Press <b>Z</b> to use the telescope to see what island is coming next!</p></div>,90,,,,,,,,,,,,true,4,,,,,
,do_welcome,663,1570559,0.0-341.0-1.0,null,,,,,,null,,,,,,,,,,,,,,,,
,do_trial,664,1576833,0.0-342.0-0.0,1767.7999999998137,,,,,,49,1,0,0,4,mountain,270,,,,1,judgement,,,,,,,
,html-keyboard-response,665,1577837,0.0-342.0-1.0,null,,,<p></p>,null,,,,,,,,,,,,,,,,,,
,do_trial,666,1582888,0.0-343.0-0.0,544.6999999997206,,,,,,49,0,0,0,4,mountain,271,,,,0,judgement,,,,,,,
,html-keyboard-response,667,1583892,0.0-343.0-1.0,null,,,<p></p>,null,,,,,,,,,,,,,,,,,,
,do_trial,668,1589023,0.0-344.0-0.0,625.3999999999069,,,,,,49,0,0,1,4,mountain,272,,,,0,judgement,,,,,,,
,html-keyboard-response,669,1590026,0.0-344.0-1.0,null,,,<p></p>,null,,,,,,,,,,,,,,,,,,
,do_trial,670,1595003,0.0-345.0-0.0,469.89999999990687,,,,,,50,0,0,1,4,mountain,273,,,,0,judgement,,,,,,,
,html-keyboard-response,671,1596006,0.0-345.0-1.0,null,,,<p></p>,null,,,,,,,,,,,,,,,,,,
,do_trial,672,1601132,0.0-346.0-0.0,617.8000000002794,,,,,,51,0,1,1,4,mountain,274,,,,1,judgement,,,,,,,
,html-keyboard-response,673,1602135,0.0-346.0-1.0,null,,,<p></p>,null,,,,,,,,,,,,,,,,,,
,do_trial,674,1607597,0.0-347.0-0.0,954.5,,,,,,51,1,0,1,4,mountain,275,,,,1,judgement,,,,,,,
,html-keyboard-response,675,1608600,0.0-347.0-1.0,null,,,<p></p>,null,,,,,,,,,,,,,,,,,,
,do_trial,676,1614015,0.0-348.0-0.0,908.7999999998137,,,,,,51,0,0,0,4,mountain,276,,,,0,judgement,,,,,,,
,html-keyboard-response,677,1615019,0.0-348.0-1.0,null,,,<p></p>,null,,,,,,,,,,,,,,,,,,
,do_trial,678,1620061,0.0-349.0-0.0,534,,,,,,51,0,1,0,4,mountain,277,,,,0,judgement,,,,,,,
,html-keyboard-response,679,1621064,0.0-349.0-1.0,null,,,<p></p>,null,,,,,,,,,,,,,,,,,,
,do_trial,680,1625903,0.0-350.0-0.0,332.90000000037253,,,,,,51,0,0,0,4,mountain,278,,,,0,judgement,,,,,,,
,html-keyboard-response,681,1626907,0.0-350.0-1.0,null,,,<p></p>,null,,,,,,,,,,,,,,,,,,
,do_trial,682,1632005,0.0-351.0-0.0,592,,,,,,49,1,0,0,4,mountain,279,,,,1,judgement,,,,,,,
,html-keyboard-response,683,1633008,0.0-351.0-1.0,null,,,<p></p>,null,,,,,,,,,,,,,,,,,,
,html-keyboard-response,684,1633010,0.0-352.0-0.0,null,,,,null,,,,,,,,,,,,,,,,,,
,judgement_attention_check,685,1633629,0.0-353.0-0.0,617.5,,,<div class='center'><p>Press <b>Z</b> to use the telescope to see what island is coming next!</p></div>,90,,,,,,,,,,,,true,5,,,,,
,do_welcome,686,1638636,0.0-353.0-1.0,null,,,,,,null,,,,,,,,,,,,,,,,
,do_trial,687,1644083,0.0-354.0-0.0,939.8000000002794,,,,,,50,0,0,1,5,city,280,,,,0,judgement,,,,,,,
,html-keyboard-response,688,1645087,0.0-354.0-1.0,null,,,<p></p>,null,,,,,,,,,,,,,,,,,,
,do_trial,689,1649982,0.0-355.0-0.0,388.79999999981374,,,,,,51,1,0,0,5,city,281,,,,0,judgement,,,,,,,
,html-keyboard-response,690,1650986,0.0-355.0-1.0,null,,,<p></p>,null,,,,,,,,,,,,,,,,,,
,do_trial,691,1655895,0.0-356.0-0.0,402,,,,,,49,1,0,0,5,city,282,,,,1,judgement,,,,,,,
,html-keyboard-response,692,1656898,0.0-356.0-1.0,null,,,<p></p>,null,,,,,,,,,,,,,,,,,,
,do_trial,693,1661921,0.0-357.0-0.0,517,,,,,,49,0,1,1,5,city,283,,,,0,judgement,,,,,,,
,html-keyboard-response,694,1662925,0.0-357.0-1.0,null,,,<p></p>,null,,,,,,,,,,,,,,,,,,
,do_trial,695,1667958,0.0-358.0-0.0,528.2000000001863,,,,,,49,1,1,0,5,city,284,,,,1,judgement,,,,,,,
,html-keyboard-response,696,1668962,0.0-358.0-1.0,null,,,<p></p>,null,,,,,,,,,,,,,,,,,,
,do_trial,697,1673838,0.0-359.0-0.0,369.29999999981374,,,,,,49,1,1,1,5,city,285,,,,1,judgement,,,,,,,
,html-keyboard-response,698,1674841,0.0-359.0-1.0,null,,,<p></p>,null,,,,,,,,,,,,,,,,,,
,do_trial,699,1679668,0.0-360.0-0.0,318.90000000037253,,,,,,49,1,1,0,5,city,286,,,,1,judgement,,,,,,,
,html-keyboard-response,700,1680671,0.0-360.0-1.0,null,,,<p></p>,null,,,,,,,,,,,,,,,,,,
,do_trial,701,1685652,0.0-361.0-0.0,473.5,,,,,,49,0,1,0,5,city,287,,,,0,judgement,,,,,,,
,html-keyboard-response,702,1686655,0.0-361.0-1.0,null,,,<p></p>,null,,,,,,,,,,,,,,,,,,
,do_trial,703,1691621,0.0-362.0-0.0,458.6999999997206,,,,,,49,0,1,0,5,city,288,,,,0,judgement,,,,,,,
,html-keyboard-response,704,1692624,0.0-362.0-1.0,null,,,<p></p>,null,,,,,,,,,,,,,,,,,,
,do_trial,705,1697587,0.0-363.0-0.0,455.6999999997206,,,,,,49,1,1,1,5,city,289,,,,1,judgement,,,,,,,
,html-keyboard-response,706,1698590,0.0-363.0-1.0,null,,,<p></p>,null,,,,,,,,,,,,,,,,,,
,html-keyboard-response,707,1699851,0.0-364.0-0.0,1258.9000000003725,,,<div style='position: fixed; top: 0; left: 0; width: 100%; height: 100%; background-color: white; display: flex; align-items: center; justify-content: center;'><div><h2>We've made it to Pirate HQ!</h2><p>Press <b>space</b> to proceed.</p></div></div>,32,,,,,,,,,,,,,,,,,,
,do_pick_best_pirate,708,1705383,0.0-365.0-0.0,4521.0999999996275,,,,,,50,,0,,,,,,,,,,countryside,,,,
,do_pick_secondBest_pirate,709,1709660,0.0-365.0-1.0,3265.399999999907,,,,,,49,,0,,,,,,,,,,countryside,,,,
,do_pick_best_pirate,710,1715709,0.0-366.0-0.0,5038.700000000186,,,,,,51,,1,,,,,,,,,,forest,,,,
,do_pick_secondBest_pirate,711,1718154,0.0-366.0-1.0,1435.6000000000931,,,,,,49,,1,,,,,,,,,,forest,,,,
,do_pick_best_pirate,712,1720866,0.0-367.0-0.0,1702.5,,,,,,50,,2,,,,,,,,,,highway,,,,
,do_pick_secondBest_pirate,713,1724533,0.0-367.0-1.0,2655.2999999998137,,,,,,49,,2,,,,,,,,,,highway,,,,
,do_pick_best_pirate,714,1726959,0.0-368.0-0.0,1415.1000000000931,,,,,,51,,3,,,,,,,,,,coast,,,,
,do_pick_secondBest_pirate,715,1728696,0.0-368.0-1.0,725.8000000002794,,,,,,49,,3,,,,,,,,,,coast,,,,
,do_pick_best_pirate,716,1730837,0.0-369.0-0.0,1131,,,,,,50,,4,,,,,,,,,,mountain,,,,
,do_pick_secondBest_pirate,717,1732480,0.0-369.0-1.0,631.1999999997206,,,,,,49,,4,,,,,,,,,,mountain,,,,
,do_pick_best_pirate,718,1737715,0.0-370.0-0.0,4224.100000000093,,,,,,50,,5,,,,,,,,,,city,,,,
,do_pick_secondBest_pirate,719,1739510,0.0-370.0-1.0,784.7000000001863,,,,,,49,,5,,,,,,,,,,city,,,,
