success,trial_type,trial_index,time_elapsed,internal_node_id,rt,responses,subject_id,stimulus,key_press,prompt,response,choice_outcomes,context_n,context_img_id,trial_n,pR_red,pR_white,pR_black,outcome,phase,island_num,passed,context_im
true,fullscreen,0,2976,0.0-0.0,,,,,,,,,,,,,,,,,,,
,survey-html-form,1,7377,0.0-1.0,4400.200000047684,{worker_id:698796ccf456c156d91c7409},698796ccf456c156d91c7409,,,,,,,,,,,,,,,,
,instruc1,2,9382,0.0-2.0,null,,698796ccf456c156d91c7409,<div class='center'><p>Welcome! This study will last ~30 minutes. After the instructions there will be a practice game and quiz to make sure you understand the task. Today you will be the head captain of a pirate ship traveling around the world to different islands. Here is an overview of what you will be doing:</p><br><p> 1. Try to find the most successful pirate on 6 different islands</p><p> 2. Recall which pirates did the best on each island</p><br><p>,null,<div class='center'><p>Welcome! This study will last ~30 minutes. After the instructions there will be a practice game and quiz to make sure you understand the task. Today you will be the head captain of a pirate ship traveling around the world to different islands. Here is an overview of what you will be doing:</p><br><p> 1. Try to find the most successful pirate on 6 different islands</p><p> 2. Recall which pirates did the best on each island</p><br><p>,,,,,,,,,,,,,
,html-keyboard-response,3,20132,0.0-3.0,10749.199999809265,,,<div class='center'><p>Welcome! This study will last ~30 minutes. After the instructions there will be a practice game and quiz to make sure you understand the task. Today you will be the head captain of a pirate ship traveling around the world to different islands. Here is an overview of what you will be doing:</p><br><p> 1. Try to find the most successful pirate on 6 different islands</p><p> 2. Recall which pirates did the best on each island</p><br><p><p><b>[Press the space bar to continue]</b></p></div>,32,,,,,,,,,,,,,,
,instruc2,4,22134,0.0-4.0,null,,,<div class='center'><p>You are going to visit these 6 islands on your journey. You'll be able to see these islands from your ship.</p><p><img src='../static/images/contexts/all_contexts.png' height='500'></p></div>,null,<div class='center'><p>You are going to visit these 6 islands on your journey. You'll be able to see these islands from your ship.</p><p><img src='../static/images/contexts/all_contexts.png' height='500'></p></div>,,,,,,,,,,,,,
,html-keyboard-response,5,23082,0.0-5.0,947.7999999523163,,,<div class='center'><p>You are going to visit these 6 islands on your journey. You'll be able to see these islands from your ship.</p><p><img src='../static/images/contexts/all_contexts.png' height='500'></p><p><b>[Press the space bar to continue]</b></p></div>,32,,,,,,,,,,,,,,
,instruc4,6,25084,0.0-6.0,null,,,<div class='center'><p>As the head captain, you do not have to rob any ships yourself. Another pirate will be doing the robbing for you. First, you will choose a pirate to rob the next ship.</p><p><img src='../static/images/tutorial/pirates_all_crop.png' height='200'></p><p>Then, you'll see if the pirate successfully robbed the ship of their gold. If they were successful, then you'll get a stack of gold coins like this:</p><p><img src='../static/images/tutorial/reward.png' height='150'></p><p> If they were <b>not</b> successful, then you'll get no gold coins, and you'll see a big red x like this: </p><p><img src='../static/images/tutorial/reward_no.png' height='150'></p><p> How much bonus money you make is based on how many gold coins you collect.</p><div>,null,<div class='center'><p>As the head captain, you do not have to rob any ships yourself. Another pirate will be doing the robbing for you. First, you will choose a pirate to rob the next ship.</p><p><img src='../static/images/tutorial/pirates_all_crop.png' height='200'></p><p>Then, you'll see if the pirate successfully robbed the ship of their gold. If they were successful, then you'll get a stack of gold coins like this:</p><p><img src='../static/images/tutorial/reward.png' height='150'></p><p> If they were <b>not</b> successful, then you'll get no gold coins, and you'll see a big red x like this: </p><p><img src='../static/images/tutorial/reward_no.png' height='150'></p><p> How much bonus money you make is based on how many gold coins you collect.</p><div>,,,,,,,,,,,,,
,html-keyboard-response,7,35427,0.0-7.0,10342.599999904633,,,<div class='center'><p>As the head captain, you do not have to rob any ships yourself. Another pirate will be doing the robbing for you. First, you will choose a pirate to rob the next ship.</p><p><img src='../static/images/tutorial/pirates_all_crop.png' height='200'></p><p>Then, you'll see if the pirate successfully robbed the ship of their gold. If they were successful, then you'll get a stack of gold coins like this:</p><p><img src='../static/images/tutorial/reward.png' height='150'></p><p> If they were <b>not</b> successful, then you'll get no gold coins, and you'll see a big red x like this: </p><p><img src='../static/images/tutorial/reward_no.png' height='150'></p><p> How much bonus money you make is based on how many gold coins you collect.</p><div><p><b>[Press the space bar to continue]</b></p></div>,32,,,,,,,,,,,,,,
,instruc5,8,48675,0.0-8.0,13247.400000095367,,,<div class='center'><p>Even the most skilled pirate can not rob EVERY ship.</p><p> Some ships will have very strong protections against pirate attacks.</p><p> Blue beard, here, is very, very good at robbing ships, but he won't be successful every time he tries to rob one.</p><p> You can press the <b>'1'</b> key on the keyboard to choose him.</p><p> Try choosing him 10 times to see how often he succeeds at robbing a ship. </p><p><img src='../static/images/tutorial/blue.png' height='500'></p></div>,49,<div class='center'><p>Even the most skilled pirate can not rob EVERY ship.</p><p> Some ships will have very strong protections against pirate attacks.</p><p> Blue beard, here, is very, very good at robbing ships, but he won't be successful every time he tries to rob one.</p><p> You can press the <b>'1'</b> key on the keyboard to choose him.</p><p> Try choosing him 10 times to see how often he succeeds at robbing a ship. </p><p><img src='../static/images/tutorial/blue.png' height='500'></p></div>,,,,,,,,,,,,,
,html-keyboard-response,9,50175,0.0-9.0,null,,,<div class='center'><p><img src='../static/images/tutorial/blue_win.png' height='500'></p></div>,null,,,,,,,,,,,,,,
,html-keyboard-response,10,50643,0.0-10.0,466.7000000476837,,,<div class='center'><img src='../static/images/tutorial/blue.png' height='500'></p></div>,49,,,,,,,,,,,,,,
,html-keyboard-response,11,52144,0.0-11.0,null,,,<div class='center'><p><img src='../static/images/tutorial/blue_win.png' height='500'></p></div>,null,,,,,,,,,,,,,,
,html-keyboard-response,12,52378,0.0-12.0,234,,,<div class='center'><img src='../static/images/tutorial/blue.png' height='500'></p></div>,49,,,,,,,,,,,,,,
,html-keyboard-response,13,53879,0.0-13.0,null,,,<div class='center'><p><img src='../static/images/tutorial/blue_win.png' height='500'></p></div>,null,,,,,,,,,,,,,,
,html-keyboard-response,14,53986,0.0-14.0,107,,,<div class='center'><img src='../static/images/tutorial/blue.png' height='500'></p></div>,49,,,,,,,,,,,,,,
,html-keyboard-response,15,55488,0.0-15.0,null,,,<div class='center'><p><img src='../static/images/tutorial/blue_no_win.png' height='500'></p></div>,null,,,,,,,,,,,,,,
,html-keyboard-response,16,55667,0.0-16.0,178.39999985694885,,,<div class='center'><img src='../static/images/tutorial/blue.png' height='500'></p></div>,49,,,,,,,,,,,,,,
,html-keyboard-response,17,57168,0.0-17.0,null,,,<div class='center'><p><img src='../static/images/tutorial/blue_win.png' height='500'></p></div>,null,,,,,,,,,,,,,,
,html-keyboard-response,18,57170,0.0-18.0,1.7999999523162842,,,<div class='center'><img src='../static/images/tutorial/blue.png' height='500'></p></div>,49,,,,,,,,,,,,,,
,html-keyboard-response,19,58671,0.0-19.0,null,,,<div class='center'><p><img src='../static/images/tutorial/blue_win.png' height='500'></p></div>,null,,,,,,,,,,,,,,
,html-keyboard-response,20,58764,0.0-20.0,91.79999995231628,,,<div class='center'><img src='../static/images/tutorial/blue.png' height='500'></p></div>,49,,,,,,,,,,,,,,
,html-keyboard-response,21,60265,0.0-21.0,null,,,<div class='center'><p><img src='../static/images/tutorial/blue_win.png' height='500'></p></div>,null,,,,,,,,,,,,,,
,html-keyboard-response,22,60403,0.0-22.0,137.20000004768372,,,<div class='center'><img src='../static/images/tutorial/blue.png' height='500'></p></div>,49,,,,,,,,,,,,,,
,html-keyboard-response,23,61904,0.0-23.0,null,,,<div class='center'><p><img src='../static/images/tutorial/blue_no_win.png' height='500'></p></div>,null,,,,,,,,,,,,,,
,html-keyboard-response,24,62115,0.0-24.0,210.20000004768372,,,<div class='center'><img src='../static/images/tutorial/blue.png' height='500'></p></div>,49,,,,,,,,,,,,,,
,html-keyboard-response,25,63617,0.0-25.0,null,,,<div class='center'><p><img src='../static/images/tutorial/blue_win.png' height='500'></p></div>,null,,,,,,,,,,,,,,
,html-keyboard-response,26,63835,0.0-26.0,217.59999990463257,,,<div class='center'><img src='../static/images/tutorial/blue.png' height='500'></p></div>,49,,,,,,,,,,,,,,
,html-keyboard-response,27,65337,0.0-27.0,null,,,<div class='center'><p><img src='../static/images/tutorial/blue_win.png' height='500'></p></div>,null,,,,,,,,,,,,,,
,instruc6,28,67339,0.0-28.0,null,,,<div class='center'><p> See, he succeeded in robbing the ships most of the time but not every time. </p></div>,null,<div class='center'><p> See, he succeeded in robbing the ships most of the time but not every time. </p></div>,,,,,,,,,,,,,
,html-keyboard-response,29,67955,0.0-29.0,615.7000000476837,,,<div class='center'><p> See, he succeeded in robbing the ships most of the time but not every time. </p><p><b>[Press the space bar to continue]</b></p></div>,32,,,,,,,,,,,,,,
,html-keyboard-response,30,76851,0.0-30.0,8895.400000095367,,,<div class='center'><p>From these three pirates, you will get to choose which one you want to rob the next ship. <p>Press the <b>'1'</b> key on your keyboard to pick the pirate with the red beard.</p><p> Press <b>'2'</b> to pick the pirate with the white beard.</p><p> Press <b>'3'</b> to pick the pirate with the black beard.</p><p>Try picking a pirate now!</p><p><img src='../static/images/tutorial/all_pirates.png' height='500'></p></div>,49,,,,,,,,,,,,,,
,html-keyboard-response,31,80403,0.0-31.0-0.0,3551.2999999523163,,,<div class='center'><p>Yay! This pirate succeeded in robbing the ship!</p><p><img src='../static/images/tutorial/red_win.png' height='500'></p><p><b>[Press the space bar to continue]</b></p></div>,32,,,,,,,,,,,,,,
,html-keyboard-response,32,81395,0.0-31.0-1.0,991.5,,,<div class='center'><p>Now try choosing another.</p><p><img src='../static/images/tutorial/all_pirates.png' height='500'></p></div>,50,,,,,,,,,,,,,,
,html-keyboard-response,33,82667,0.0-32.0-0.0,1271.2000000476837,,,<div class='center'><p>Oh no! This pirate did not succeed in robbing the ship.</p><p><img src='../static/images/tutorial/white_no_win.png' height='500'></p><p><b>[Press the space bar to continue]</b></p></div>,32,,,,,,,,,,,,,,
,instruc9,34,84668,0.0-33.0-0.0,null,,,<div class='center'><p>If you don't make your choice fast enough, you'll have to wait a few seconds before you can make another one. </p><p><img src='../static/images/miscellaneous/hurry_up.png' height='500'></p></div>,null,<div class='center'><p>If you don't make your choice fast enough, you'll have to wait a few seconds before you can make another one. </p><p><img src='../static/images/miscellaneous/hurry_up.png' height='500'></p></div>,,,,,,,,,,,,,
,html-keyboard-response,35,84907,0.0-33.0-1.0,238.40000009536743,,,<div class='center'><p>If you don't make your choice fast enough, you'll have to wait a few seconds before you can make another one. </p><p><img src='../static/images/miscellaneous/hurry_up.png' height='500'></p><p><b>[Press the space bar to continue]</b></p></div>,32,,,,,,,,,,,,,,
,instruc11,36,86909,0.0-33.0-2.0,null,,,<div class='center'><p>How successful a pirate is at robbing ships will depend on the island you're on.</p><p> A pirate may have visited this island many times before and gained a lot of practice robbing ships there.</p><p>So, they're more likely to be successful than a pirate who has never visited the island before.</p></div>,null,<div class='center'><p>How successful a pirate is at robbing ships will depend on the island you're on.</p><p> A pirate may have visited this island many times before and gained a lot of practice robbing ships there.</p><p>So, they're more likely to be successful than a pirate who has never visited the island before.</p></div>,,,,,,,,,,,,,
,html-keyboard-response,37,93314,0.0-33.0-3.0,6405.099999904633,,,<div class='center'><p>How successful a pirate is at robbing ships will depend on the island you're on.</p><p> A pirate may have visited this island many times before and gained a lot of practice robbing ships there.</p><p>So, they're more likely to be successful than a pirate who has never visited the island before.</p><p><b>[Press the space bar to continue]</b></p></div>,32,,,,,,,,,,,,,,
,instruc12,38,95316,0.0-33.0-4.0,null,,,<div class='center'><p>How successful a pirate is at robbing ships can also change over the time spent on the island. </p><p> Ships may hear from islanders about the pirates coming and will improve their protections against the attack. This may make it harder to rob them.</p><p> Ships may also become lazy and weaken the strength of their protections. This may make it easier to rob them.</p><br><p>Things are always changing on the high seas! So, try your best to pay attention!</p><p><img src='../static/images/tutorial/contingency.png' height='500'></p></div>,null,<div class='center'><p>How successful a pirate is at robbing ships can also change over the time spent on the island. </p><p> Ships may hear from islanders about the pirates coming and will improve their protections against the attack. This may make it harder to rob them.</p><p> Ships may also become lazy and weaken the strength of their protections. This may make it easier to rob them.</p><br><p>Things are always changing on the high seas! So, try your best to pay attention!</p><p><img src='../static/images/tutorial/contingency.png' height='500'></p></div>,,,,,,,,,,,,,
,html-keyboard-response,39,110122,0.0-33.0-5.0,14805.599999904633,,,<div class='center'><p>How successful a pirate is at robbing ships can also change over the time spent on the island. </p><p> Ships may hear from islanders about the pirates coming and will improve their protections against the attack. This may make it harder to rob them.</p><p> Ships may also become lazy and weaken the strength of their protections. This may make it easier to rob them.</p><br><p>Things are always changing on the high seas! So, try your best to pay attention!</p><p><img src='../static/images/tutorial/contingency.png' height='500'></p><p><b>[Press the space bar to continue]</b></p></div>,32,,,,,,,,,,,,,,
,instruc13,40,112123,0.0-33.0-6.0,null,,,<div class='center'><p>Let's go over the instructions quickly again. You have one thing to do: </p><p><b>Pick the pirate who is the best at robbing ships on the current island.</b></p><p>The amount of bonus money you win depends on it.</p><br><p>Let's try a practice game. The game will start by showing you an island. Pick a pirate using the <b>1, 2, 3</b> keys on your keyboard to get it to try and rob one of the ships leaving the island.</p><p>This is just a practice game, so you're not playing for money.</p><p>Good luck! This game will be very difficult but try your best!</p></div>,null,<div class='center'><p>Let's go over the instructions quickly again. You have one thing to do: </p><p><b>Pick the pirate who is the best at robbing ships on the current island.</b></p><p>The amount of bonus money you win depends on it.</p><br><p>Let's try a practice game. The game will start by showing you an island. Pick a pirate using the <b>1, 2, 3</b> keys on your keyboard to get it to try and rob one of the ships leaving the island.</p><p>This is just a practice game, so you're not playing for money.</p><p>Good luck! This game will be very difficult but try your best!</p></div>,,,,,,,,,,,,,
,html-keyboard-response,41,127651,0.0-33.0-7.0,15526.799999952316,,,<div class='center'><p>Let's go over the instructions quickly again. You have one thing to do: </p><p><b>Pick the pirate who is the best at robbing ships on the current island.</b></p><p>The amount of bonus money you win depends on it.</p><br><p>Let's try a practice game. The game will start by showing you an island. Pick a pirate using the <b>1, 2, 3</b> keys on your keyboard to get it to try and rob one of the ships leaving the island.</p><p>This is just a practice game, so you're not playing for money.</p><p>Good luck! This game will be very difficult but try your best!</p><p><b>[Press the space bar to continue]</b></p></div>,32,,,,,,,,,,,,,,
,do_welcome,42,131655,0.0-33.0-8.0,null,,,,,,null,,,,,,,,,,,,
,do_trial,43,137674,0.0-33.0-9.0,null,,,,,,null,1,0,0,,,,,,,,,,,
,html-keyboard-response,44,138675,0.0-34.0-0.0,null,,,<p></p>,null,,,,,,,,,,,,,,
,do_trial,45,141568,0.0-34.0-1.0,390.19999980926514,,,,,,50,1,0,0,,,,,,,,,,,
,html-keyboard-response,46,142570,0.0-35.0-0.0,null,,,<p></p>,null,,,,,,,,,,,,,,
,do_trial,47,145304,0.0-35.0-1.0,231.70000004768372,,,,,,51,1,1,0,,,,,,,,,,,
,html-keyboard-response,48,146306,0.0-36.0-0.0,null,,,<p></p>,null,,,,,,,,,,,,,,
,do_trial,49,149041,0.0-36.0-1.0,231,,,,,,49,1,0,1,,,,,,,,,,,
,html-keyboard-response,50,150043,0.0-37.0-0.0,null,,,<p></p>,null,,,,,,,,,,,,,,
,do_trial,51,152759,0.0-37.0-1.0,214.40000009536743,,,,,,49,0,1,0,,,,,,,,,,,
,html-keyboard-response,52,153760,0.0-38.0-0.0,null,,,<p></p>,null,,,,,,,,,,,,,,
,do_trial,53,156488,0.0-38.0-1.0,225.10000014305115,,,,,,49,1,0,0,,,,,,,,,,,
,do_bye,54,157992,0.0-39.0-0.0,null,,,,,,null,,,,,,,,,,,,
,do_travel,55,166995,0.0-39.0-1.0,null,,,,,,null,,,,,,,,,,,,
,do_welcome,56,170998,0.0-39.0-2.0,null,,,,,,null,,,,,,,,,,,,
,do_trial,57,174127,0.0-39.0-3.0,627.0999999046326,,,,,,51,1,0,0,,,,,,,,,,,
,html-keyboard-response,58,175129,0.0-40.0-0.0,null,,,<p></p>,null,,,,,,,,,,,,,,
,do_trial,59,177832,0.0-40.0-1.0,200.59999990463257,,,,,,50,1,0,1,,,,,,,,,,,
,html-keyboard-response,60,178837,0.0-41.0-0.0,null,,,<p></p>,null,,,,,,,,,,,,,,
,do_trial,61,181559,0.0-41.0-1.0,220,,,,,,49,1,1,0,,,,,,,,,,,
,html-keyboard-response,62,182560,0.0-42.0-0.0,null,,,<p></p>,null,,,,,,,,,,,,,,
,do_trial,63,185288,0.0-42.0-1.0,225.29999995231628,,,,,,49,0,0,1,,,,,,,,,,,
,html-keyboard-response,64,186290,0.0-43.0-0.0,null,,,<p></p>,null,,,,,,,,,,,,,,
,do_trial,65,189081,0.0-43.0-1.0,287,,,,,,50,1,0,1,,,,,,,,,,,
,html-keyboard-response,66,191955,0.0-44.0-0.0,2874,,,<div class='center'><p><img src='../static/images/tutorial/prac_best_pirate.png' height='500'></p></div>,49,,,,,,,,,,,,,,
,html-keyboard-response,67,193419,0.0-45.0-0.0,1463.1000001430511,,,<div class='center'><p>That's correct! Red beard was the best.</p><p><b>[Press the space bar to continue]</b></p></div>,32,,,,,,,,,,,,,,
,quiz_beginning,68,195420,0.0-45.0-1.0,null,,,<div class='center'><p>Good job on the practice game! Now, you will be asked some true or false questions to make sure you really understand the rules of the game.</p><p> Press <b>'1'</b> on the keyboard for true and press <b>'2'</b> for false.</p></div>,null,<div class='center'><p>Good job on the practice game! Now, you will be asked some true or false questions to make sure you really understand the rules of the game.</p><p> Press <b>'1'</b> on the keyboard for true and press <b>'2'</b> for false.</p></div>,,,,,,,,,,,,,
,html-keyboard-response,69,199347,0.0-45.0-2.0,3926.5,,,<div class='center'><p>You win bonus money by collecting gold coins.</p><p>Press 1 for true and press  2 for false.</p></div>,49,,,,,,,,,,,,,,
,correct,70,201349,0.0-46.0-0.0,null,,,<div class='center'><p>That's correct!</p></div>,null,<div class='center'><p>That's correct!</p></div>,,,,,,,,,,,,,
,html-keyboard-response,71,202411,0.0-46.0-1.0,1061.5,,,<div class='center'><p>That's correct!</p><p><b>[Press the space bar to continue]</b></p></div>,32,,,,,,,,,,,,,,
,html-keyboard-response,72,206555,0.0-46.0-2.0,4143.899999856949,,,<div class='center'><p>The pirate who is the best at robbing ships when you first arrive on the island will definitely still be the best when you leave the island. </p><p>Press 1 for true and press  2 for false.</p></div>,50,,,,,,,,,,,,,,
,correct,73,208557,0.0-47.0-0.0,null,,,<div class='center'><p>That's correct!</p></div>,null,<div class='center'><p>That's correct!</p></div>,,,,,,,,,,,,,
,html-keyboard-response,74,209250,0.0-47.0-1.0,693.1000001430511,,,<div class='center'><p>That's correct!</p><p><b>[Press the space bar to continue]</b></p></div>,32,,,,,,,,,,,,,,
,html-keyboard-response,75,212491,0.0-47.0-2.0,3240.7000000476837,,,<div class='center'><p>The pirate who is the best at robbing ships on the first island will be the best on every other island.</p><p>Press 1 for true and press  2 for false.</p></div>,50,,,,,,,,,,,,,,
,correct,76,214493,0.0-48.0-0.0,null,,,<div class='center'><p>That's correct!</p></div>,null,<div class='center'><p>That's correct!</p></div>,,,,,,,,,,,,,
,html-keyboard-response,77,215115,0.0-48.0-1.0,622.2000000476837,,,<div class='center'><p>That's correct!</p><p><b>[Press the space bar to continue]</b></p></div>,32,,,,,,,,,,,,,,
,html-keyboard-response,78,218267,0.0-48.0-2.0,3151.5,,,<div class='center'><p>You should remember the island where a pirate robbed a ship.</p><p>Press 1 for true and press  2 for false.</p></div>,49,,,,,,,,,,,,,,
,correct,79,220276,0.0-49.0-0.0,null,,,<div class='center'><p>That's correct!</p></div>,null,<div class='center'><p>That's correct!</p></div>,,,,,,,,,,,,,
,html-keyboard-response,80,221116,0.0-49.0-1.0,839.2999999523163,,,<div class='center'><p>That's correct!</p><p><b>[Press the space bar to continue]</b></p></div>,32,,,,,,,,,,,,,,
,q_all_corr,81,223117,0.0-50.0-0.0,null,,,<div class='center'><p>Good job! You’re now ready to move on to the real game! Remember this game will be difficult but don't get discouraged and try your best!</p></div>,null,<div class='center'><p>Good job! You’re now ready to move on to the real game! Remember this game will be difficult but don't get discouraged and try your best!</p></div>,,,,,,,,,,,,,
,html-keyboard-response,82,227243,0.0-50.0-1.0,4126,,,<div class='center'><p>Good job! You’re now ready to move on to the real game! Remember this game will be difficult but don't get discouraged and try your best!</p><p><b>[Press the space bar to continue]</b></p></div>,32,,,,,,,,,,,,,,
,do_welcome,83,231249,0.0-51.0-0.0,null,,,,,,null,,,,,,,,,,,,
,do_trial,84,234921,0.0-52.0-0.0,1160.0999999046326,,,,,,50,1,0,0,0,coast,0,0.6,0.3,0.1,0,learn,,,
,html-keyboard-response,85,235923,0.0-52.0-1.0,null,,,<p></p>,null,,,,,,,,,,,,,,
,do_trial,86,238660,0.0-53.0-0.0,229.5,,,,,,51,0,0,0,0,coast,1,0.4771459659881059,0.358179702045072,0.15323530796386023,0,learn,,,
,html-keyboard-response,87,239662,0.0-53.0-1.0,null,,,<p></p>,null,,,,,,,,,,,,,,
,do_trial,88,242385,0.0-54.0-0.0,219.79999995231628,,,,,,49,0,1,0,0,coast,2,0.4467586474045046,0.3409396237443879,0.08737609781766409,0,learn,,,
,html-keyboard-response,89,243387,0.0-54.0-1.0,null,,,<p></p>,null,,,,,,,,,,,,,,
,do_trial,90,246008,0.0-55.0-0.0,117.79999995231628,,,,,,49,0,0,0,0,coast,3,0.5063784263315013,0.3387200108854014,0.07275433538766127,0,learn,,,
,html-keyboard-response,91,247010,0.0-55.0-1.0,null,,,<p></p>,null,,,,,,,,,,,,,,
,do_trial,92,249705,0.0-56.0-0.0,191.40000009536743,,,,,,50,1,1,0,0,coast,4,0.5830719958777921,0.3722422435154441,0.21432296899393508,1,learn,,,
,html-keyboard-response,93,250706,0.0-56.0-1.0,null,,,<p></p>,null,,,,,,,,,,,,,,
,do_trial,94,253424,0.0-57.0-0.0,215.20000004768372,,,,,,51,1,0,0,0,coast,5,0.6451835448537391,0.31357038144688437,0.2863789015173907,0,learn,,,
,html-keyboard-response,95,254426,0.0-57.0-1.0,null,,,<p></p>,null,,,,,,,,,,,,,,
,do_trial,96,256992,0.0-58.0-0.0,63.5,,,,,,50,1,0,1,0,coast,6,0.669949417150726,0.37281292239826963,0.23960922386975614,0,learn,,,
,html-keyboard-response,97,257996,0.0-58.0-1.0,null,,,<p></p>,null,,,,,,,,,,,,,,
,do_trial,98,260704,0.0-59.0-0.0,205.79999995231628,,,,,,50,1,0,0,0,coast,7,0.7329438557681013,0.3213094274707914,0.19807857783242144,0,learn,,,
,html-keyboard-response,99,261706,0.0-59.0-1.0,null,,,<p></p>,null,,,,,,,,,,,,,,
,do_trial,100,264409,0.0-60.0-0.0,199.29999995231628,,,,,,50,0,1,0,0,coast,8,0.7443612838018925,0.30730639300782786,0.14038014457803932,1,learn,,,
,html-keyboard-response,101,265410,0.0-60.0-1.0,null,,,<p></p>,null,,,,,,,,,,,,,,
,do_trial,102,268192,0.0-61.0-0.0,279.2999999523163,,,,,,51,1,0,0,0,coast,9,0.815716762722627,0.19745032435244753,0.08159034544810483,0,learn,,,
,html-keyboard-response,103,269195,0.0-61.0-1.0,null,,,<p></p>,null,,,,,,,,,,,,,,
,do_trial,104,271937,0.0-62.0-0.0,238.70000004768372,,,,,,49,1,0,0,0,coast,10,0.7104980291211443,0.16903749543545604,0.10590095505343255,1,learn,,,
,html-keyboard-response,105,272939,0.0-62.0-1.0,null,,,<p></p>,null,,,,,,,,,,,,,,
,do_trial,106,275663,0.0-63.0-0.0,222.10000014305115,,,,,,50,0,1,0,0,coast,11,0.7738592295242217,0.3173257526976072,0.08046332742020923,1,learn,,,
,html-keyboard-response,107,276664,0.0-63.0-1.0,null,,,<p></p>,null,,,,,,,,,,,,,,
,do_trial,108,279359,0.0-64.0-0.0,193.20000004768372,,,,,,50,0,0,0,0,coast,12,0.5340879506075931,0.14602301915050675,0.1333267979446749,0,learn,,,
,html-keyboard-response,109,280361,0.0-64.0-1.0,null,,,<p></p>,null,,,,,,,,,,,,,,
,do_trial,110,283312,0.0-65.0-0.0,448.30000019073486,,,,,,50,0,0,0,0,coast,13,0.6350921690081521,0.17695426620490967,0.1453668185308828,0,learn,,,
,html-keyboard-response,111,284313,0.0-65.0-1.0,null,,,<p></p>,null,,,,,,,,,,,,,,
,do_trial,112,287039,0.0-66.0-0.0,223.79999995231628,,,,,,49,1,1,0,0,coast,14,0.6370364563556911,0.18018054995851807,0.06553393447114457,1,learn,,,
,html-keyboard-response,113,288041,0.0-66.0-1.0,null,,,<p></p>,null,,,,,,,,,,,,,,
,do_trial,114,290656,0.0-67.0-0.0,112.79999995231628,,,,,,49,0,1,0,0,coast,15,0.6925885920281035,0.24926872300272568,0.10797048494892102,0,learn,,,
,html-keyboard-response,115,291659,0.0-67.0-1.0,null,,,<p></p>,null,,,,,,,,,,,,,,
,do_trial,116,294376,0.0-68.0-0.0,214.89999985694885,,,,,,51,0,1,0,0,coast,16,0.6351118912642193,0.30560993444447265,0.11254424121172772,0,learn,,,
,html-keyboard-response,117,295377,0.0-68.0-1.0,null,,,<p></p>,null,,,,,,,,,,,,,,
,do_trial,118,298112,0.0-69.0-0.0,231.90000009536743,,,,,,50,0,0,1,0,coast,17,0.5222029737409827,0.3436882025208973,0.08637742976509269,0,learn,,,
,html-keyboard-response,119,299114,0.0-69.0-1.0,null,,,<p></p>,null,,,,,,,,,,,,,,
,do_trial,120,301832,0.0-70.0-0.0,215.29999995231628,,,,,,50,1,1,0,0,coast,18,0.5594810109677452,0.3786040165449335,0.08136118814382251,1,learn,,,
,html-keyboard-response,121,302833,0.0-70.0-1.0,null,,,<p></p>,null,,,,,,,,,,,,,,
,do_trial,122,305649,0.0-71.0-0.0,312.5,,,,,,50,1,0,0,0,coast,19,0.6810643429962336,0.22945375818181282,0.082498231223534,0,learn,,,
,html-keyboard-response,123,306650,0.0-71.0-1.0,null,,,<p></p>,null,,,,,,,,,,,,,,
,do_trial,124,309616,0.0-72.0-0.0,462.80000019073486,,,,,,50,0,0,0,0,coast,20,0.4979918303647197,0.20976760822002408,0.0568352385646107,0,learn,,,
,html-keyboard-response,125,310617,0.0-72.0-1.0,null,,,<p></p>,null,,,,,,,,,,,,,,
,do_trial,126,313336,0.0-73.0-0.0,216,,,,,,49,1,0,0,0,coast,21,0.5208107554325535,0.1903933604508688,0.11312517259213511,1,learn,,,
,html-keyboard-response,127,314339,0.0-73.0-1.0,null,,,<p></p>,null,,,,,,,,,,,,,,
,do_trial,128,317040,0.0-74.0-0.0,198.20000004768372,,,,,,49,1,0,0,0,coast,22,0.6098056432556274,0.21212639459233668,0.1191861348403832,1,learn,,,
,html-keyboard-response,129,318042,0.0-74.0-1.0,null,,,<p></p>,null,,,,,,,,,,,,,,
,do_trial,130,320799,0.0-75.0-0.0,255.20000004768372,,,,,,49,1,1,0,0,coast,23,0.6453829978037766,0.24791846685470237,0.12748093166623425,1,learn,,,
,html-keyboard-response,131,321801,0.0-75.0-1.0,null,,,<p></p>,null,,,,,,,,,,,,,,
,do_trial,132,324328,0.0-76.0-0.0,24.700000047683716,,,,,,49,1,1,0,0,coast,24,0.7046332348348079,0.286503332414573,0.08452234831404082,1,learn,,,
,html-keyboard-response,133,325331,0.0-76.0-1.0,null,,,<p></p>,null,,,,,,,,,,,,,,
,do_trial,134,327911,0.0-77.0-0.0,78.09999990463257,,,,,,49,1,0,0,0,coast,25,0.7140869315461723,0.1311455932978514,0.12119676283053042,1,learn,,,
,html-keyboard-response,135,328913,0.0-77.0-1.0,null,,,<p></p>,null,,,,,,,,,,,,,,
,do_trial,136,331648,0.0-78.0-0.0,231.5,,,,,,49,1,0,0,0,coast,26,0.5925029672724865,0.14585268334387555,0.08192605668899328,1,learn,,,
,html-keyboard-response,137,332649,0.0-78.0-1.0,null,,,<p></p>,null,,,,,,,,,,,,,,
,do_trial,138,335369,0.0-79.0-0.0,216,,,,,,49,0,0,0,0,coast,27,0.6453197681039676,0.24958330415131433,0.05445002335498461,0,learn,,,
,html-keyboard-response,139,336370,0.0-79.0-1.0,null,,,<p></p>,null,,,,,,,,,,,,,,
,do_trial,140,339432,0.0-80.0-0.0,559.0999999046326,,,,,,49,1,0,0,0,coast,28,0.6899058354183103,0.21183762716397211,0.16190637004643388,1,learn,,,
,html-keyboard-response,141,340434,0.0-80.0-1.0,null,,,<p></p>,null,,,,,,,,,,,,,,
,do_trial,142,343143,0.0-81.0-0.0,199.70000004768372,,,,,,49,0,0,1,0,coast,29,0.5580856590795961,0.22776203504829046,0.13366865002403003,0,learn,,,
,html-keyboard-response,143,344145,0.0-81.0-1.0,null,,,<p></p>,null,,,,,,,,,,,,,,
,do_bye,144,345649,0.0-82.0-0.0,null,,,,,,null,,,,,,,,,,,,
,do_travel,145,354651,0.0-83.0-0.0,null,,,,,,null,,,,,,,,,,,,
,do_welcome,146,358658,0.0-83.0-1.0,null,,,,,,null,,,,,,,,,,,,
,do_trial,147,361934,0.0-84.0-0.0,774.5,,,,,,50,1,0,0,1,forest,30,1,0.24345200764343966,0.08793303532686383,0,learn,,,
,html-keyboard-response,148,362936,0.0-84.0-1.0,null,,,<p></p>,null,,,,,,,,,,,,,,
,do_trial,149,365648,0.0-85.0-0.0,208.40000009536743,,,,,,51,1,0,0,1,forest,31,1,0.3935086597111743,0.05869648252415365,0,learn,,,
,html-keyboard-response,150,366650,0.0-85.0-1.0,null,,,<p></p>,null,,,,,,,,,,,,,,
,do_trial,151,369384,0.0-86.0-0.0,230.90000009536743,,,,,,49,1,0,0,1,forest,32,1,0.33897983832714496,0.08668413616848618,1,learn,,,
,html-keyboard-response,152,370385,0.0-86.0-1.0,null,,,<p></p>,null,,,,,,,,,,,,,,
,do_trial,153,373112,0.0-87.0-0.0,223.90000009536743,,,,,,49,0,0,0,1,forest,33,0.7963215929671015,0.24578306823337526,0.16339752157087964,0,learn,,,
,html-keyboard-response,154,374113,0.0-87.0-1.0,null,,,<p></p>,null,,,,,,,,,,,,,,
,do_trial,155,376888,0.0-88.0-0.0,271.59999990463257,,,,,,51,1,0,0,1,forest,34,0.8721312759853559,0.3588145387495685,0.11040993208302563,0,learn,,,
,html-keyboard-response,156,377890,0.0-88.0-1.0,null,,,<p></p>,null,,,,,,,,,,,,,,
,do_trial,157,380600,0.0-89.0-0.0,207.20000004768372,,,,,,50,1,0,0,1,forest,35,0.9347919588531798,0.412922477895925,0.06008821515279111,0,learn,,,
,html-keyboard-response,158,381602,0.0-89.0-1.0,null,,,<p></p>,null,,,,,,,,,,,,,,
,do_trial,159,384672,0.0-90.0-0.0,566.7999999523163,,,,,,49,1,0,1,1,forest,36,0.874746660828332,0.25578460966238437,0.15820849456948607,1,learn,,,
,html-keyboard-response,160,385674,0.0-90.0-1.0,null,,,<p></p>,null,,,,,,,,,,,,,,
,do_trial,161,388392,0.0-91.0-0.0,214.79999995231628,,,,,,49,1,0,0,1,forest,37,0.7062251076683983,0.28763290920610257,0.06106619175432146,1,learn,,,
,html-keyboard-response,162,389394,0.0-91.0-1.0,null,,,<p></p>,null,,,,,,,,,,,,,,
,do_trial,163,392150,0.0-92.0-0.0,239.30000019073486,,,,,,49,1,1,0,1,forest,38,0.6291659386224935,0.23061117562884956,0.07114963308806789,1,learn,,,
,html-keyboard-response,164,393151,0.0-92.0-1.0,null,,,<p></p>,null,,,,,,,,,,,,,,
,do_trial,165,395880,0.0-93.0-0.0,226.70000004768372,,,,,,49,1,0,0,1,forest,39,0.5234675566394987,0.2685552309149258,0.0833736181069754,1,learn,,,
,html-keyboard-response,166,396882,0.0-93.0-1.0,null,,,<p></p>,null,,,,,,,,,,,,,,
,do_trial,167,399601,0.0-94.0-0.0,215.09999990463257,,,,,,49,0,1,0,1,forest,40,0.5178018606845874,0.24963715766380787,0.1331406998314498,0,learn,,,
,html-keyboard-response,168,400603,0.0-94.0-1.0,null,,,<p></p>,null,,,,,,,,,,,,,,
,do_trial,169,403401,0.0-95.0-0.0,293.7999999523163,,,,,,49,0,0,0,1,forest,41,0.5052537495026287,0.14646713124926616,0.13687071762725886,0,learn,,,
,html-keyboard-response,170,404403,0.0-95.0-1.0,null,,,<p></p>,null,,,,,,,,,,,,,,
,do_trial,171,406976,0.0-96.0-0.0,70.79999995231628,,,,,,51,0,0,0,1,forest,42,0.4621269701048331,0.30591372953633433,0.3462477056094981,0,learn,,,
,html-keyboard-response,172,407977,0.0-96.0-1.0,null,,,<p></p>,null,,,,,,,,,,,,,,
,do_trial,173,410672,0.0-97.0-0.0,191.70000004768372,,,,,,50,0,0,0,1,forest,43,0.34909912391184833,0.4285843761911141,0.369305629135265,0,learn,,,
,html-keyboard-response,174,411674,0.0-97.0-1.0,null,,,<p></p>,null,,,,,,,,,,,,,,
,do_trial,175,414360,0.0-98.0-0.0,183.30000019073486,,,,,,49,0,1,0,1,forest,44,0.44610837739603315,0.6853884110428125,0.29333281698066144,0,learn,,,
,html-keyboard-response,176,415361,0.0-98.0-1.0,null,,,<p></p>,null,,,,,,,,,,,,,,
,do_trial,177,418088,0.0-99.0-0.0,223.39999985694885,,,,,,49,0,1,0,1,forest,45,0.27815910973007457,0.6651484004825332,0.30714521602768,0,learn,,,
,html-keyboard-response,178,419090,0.0-99.0-1.0,null,,,<p></p>,null,,,,,,,,,,,,,,
,do_trial,179,421809,0.0-100.0-0.0,214.70000004768372,,,,,,49,0,0,1,1,forest,46,0.22179068909269511,0.7044333982437095,0.31418654819022135,0,learn,,,
,html-keyboard-response,180,422810,0.0-100.0-1.0,null,,,<p></p>,null,,,,,,,,,,,,,,
,do_trial,181,425425,0.0-101.0-0.0,110.79999995231628,,,,,,51,0,0,0,1,forest,47,0.12505297330799012,0.8685683637490692,0.30539224923314456,0,learn,,,
,html-keyboard-response,182,426428,0.0-101.0-1.0,null,,,<p></p>,null,,,,,,,,,,,,,,
,do_trial,183,429159,0.0-102.0-0.0,228.79999995231628,,,,,,50,0,0,1,1,forest,48,0.07984114371617619,0.8296374459773947,0.28809463710425076,0,learn,,,
,html-keyboard-response,184,430161,0.0-102.0-1.0,null,,,<p></p>,null,,,,,,,,,,,,,,
,do_trial,185,432736,0.0-103.0-0.0,72.60000014305115,,,,,,50,1,0,0,1,forest,49,0.08758545482502994,0.6759779341389722,0.40549285951810377,0,learn,,,
,html-keyboard-response,186,433739,0.0-103.0-1.0,null,,,<p></p>,null,,,,,,,,,,,,,,
,do_trial,187,436431,0.0-104.0-0.0,190.59999990463257,,,,,,49,0,0,0,1,forest,50,0.12115405101232682,0.6857006481597466,0.28271664159377385,0,learn,,,
,html-keyboard-response,188,437434,0.0-104.0-1.0,null,,,<p></p>,null,,,,,,,,,,,,,,
,do_trial,189,440025,0.0-105.0-0.0,86.39999985694885,,,,,,49,0,0,0,1,forest,51,0.08345259889516625,0.5704135508022,0.14265164438860975,0,learn,,,
,html-keyboard-response,190,441027,0.0-105.0-1.0,null,,,<p></p>,null,,,,,,,,,,,,,,
,do_trial,191,443616,0.0-106.0-0.0,86.59999990463257,,,,,,49,0,0,0,1,forest,52,0.07815458821856038,0.51708012506067,0.21110680277062333,0,learn,,,
,html-keyboard-response,192,444618,0.0-106.0-1.0,null,,,<p></p>,null,,,,,,,,,,,,,,
,do_trial,193,447288,0.0-107.0-0.0,167.60000014305115,,,,,,51,0,0,0,1,forest,53,0.09623686854795654,0.5285707525557053,0.2709418756221596,0,learn,,,
,html-keyboard-response,194,448290,0.0-107.0-1.0,null,,,<p></p>,null,,,,,,,,,,,,,,
,do_trial,195,450936,0.0-108.0-0.0,142.89999985694885,,,,,,50,0,1,0,1,forest,54,0.1621646415901065,0.31818519056178196,0.10590739138450783,1,learn,,,
,html-keyboard-response,196,451937,0.0-108.0-1.0,null,,,<p></p>,null,,,,,,,,,,,,,,
,do_trial,197,454672,0.0-109.0-0.0,232.40000009536743,,,,,,50,1,1,1,1,forest,55,0.17316398649153356,0.4603951526880697,0.32044981814005236,1,learn,,,
,html-keyboard-response,198,455673,0.0-109.0-1.0,null,,,<p></p>,null,,,,,,,,,,,,,,
,do_trial,199,458231,0.0-110.0-0.0,55.60000014305115,,,,,,50,0,1,0,1,forest,56,0.20462197634534843,0.6280627689730384,0.37702238713775466,1,learn,,,
,html-keyboard-response,200,459233,0.0-110.0-1.0,null,,,<p></p>,null,,,,,,,,,,,,,,
,do_trial,201,461889,0.0-111.0-0.0,151.89999985694885,,,,,,50,1,1,0,1,forest,57,0.3390255848452716,0.5544336475659345,0.30277052884806244,1,learn,,,
,html-keyboard-response,202,462890,0.0-111.0-1.0,null,,,<p></p>,null,,,,,,,,,,,,,,
,do_trial,203,465520,0.0-112.0-0.0,127.10000014305115,,,,,,50,0,1,0,1,forest,58,0.23822847116114737,0.6478236853981484,0.38917186491855804,1,learn,,,
,html-keyboard-response,204,466521,0.0-112.0-1.0,null,,,<p></p>,null,,,,,,,,,,,,,,
,do_trial,205,469271,0.0-113.0-0.0,247.20000004768372,,,,,,50,0,1,1,1,forest,59,0.16076036295935953,0.4466086537735365,0.22347358228623507,1,learn,,,
,html-keyboard-response,206,470278,0.0-113.0-1.0,null,,,<p></p>,null,,,,,,,,,,,,,,
,do_trial,207,472960,0.0-114.0-0.0,180.20000004768372,,,,,,50,0,0,1,1,forest,60,0.17106549655040287,0.45458907249457964,0.2505857194277463,0,learn,,,
,html-keyboard-response,208,473961,0.0-114.0-1.0,null,,,<p></p>,null,,,,,,,,,,,,,,
,do_trial,209,476672,0.0-115.0-0.0,207.40000009536743,,,,,,49,1,0,0,1,forest,61,0.2870878069720918,0.4837940557011727,0.3771146513982524,1,learn,,,
,html-keyboard-response,210,477673,0.0-115.0-1.0,null,,,<p></p>,null,,,,,,,,,,,,,,
,do_trial,211,480176,0.0-116.0-0.0,0.40000009536743164,,,,,,49,0,1,0,1,forest,62,0.19181571619412716,0.5984856759603308,0.43629343128609605,0,learn,,,
,html-keyboard-response,212,481178,0.0-116.0-1.0,null,,,<p></p>,null,,,,,,,,,,,,,,
,do_trial,213,483832,0.0-117.0-0.0,151.40000009536743,,,,,,49,1,1,0,1,forest,63,0.21957040254812638,0.4089830377988448,0.4314516893045127,1,learn,,,
,html-keyboard-response,214,484833,0.0-117.0-1.0,null,,,<p></p>,null,,,,,,,,,,,,,,
,do_trial,215,487464,0.0-118.0-0.0,128.39999985694885,,,,,,49,0,1,1,1,forest,64,0.15646413442247253,0.4406565302363444,0.38008559659152213,0,learn,,,
,html-keyboard-response,216,488466,0.0-118.0-1.0,null,,,<p></p>,null,,,,,,,,,,,,,,
,do_trial,217,490976,0.0-119.0-0.0,6.799999952316284,,,,,,49,0,0,0,1,forest,65,0.06578766671654718,0.3605246105434775,0.20759182697716283,0,learn,,,
,html-keyboard-response,218,491977,0.0-119.0-1.0,null,,,<p></p>,null,,,,,,,,,,,,,,
,do_trial,219,494639,0.0-120.0-0.0,159.59999990463257,,,,,,50,1,0,1,1,forest,66,0.06957104873791352,0.34670424841392916,0.31509588348871087,0,learn,,,
,html-keyboard-response,220,495641,0.0-120.0-1.0,null,,,<p></p>,null,,,,,,,,,,,,,,
,do_trial,221,498232,0.0-121.0-0.0,88.30000019073486,,,,,,50,0,0,1,1,forest,67,0.16991000399297554,0.5185461659327598,0.5018024397403784,0,learn,,,
,html-keyboard-response,222,499234,0.0-121.0-1.0,null,,,<p></p>,null,,,,,,,,,,,,,,
,do_trial,223,502008,0.0-122.0-0.0,271.09999990463257,,,,,,49,0,1,1,1,forest,68,0.1465192703980127,0.624841576357269,0.39395200318328677,0,learn,,,
,html-keyboard-response,224,503010,0.0-122.0-1.0,null,,,<p></p>,null,,,,,,,,,,,,,,
,do_trial,225,505600,0.0-123.0-0.0,86.90000009536743,,,,,,50,0,0,1,1,forest,69,0.24796317167471585,0.5920244343171838,0.28225155765497667,0,learn,,,
,html-keyboard-response,226,506601,0.0-123.0-1.0,null,,,<p></p>,null,,,,,,,,,,,,,,
,do_bye,227,508104,0.0-124.0-0.0,null,,,,,,null,,,,,,,,,,,,
,do_travel,228,517106,0.0-125.0-0.0,null,,,,,,null,,,,,,,,,,,,
,do_welcome,229,521113,0.0-125.0-1.0,null,,,,,,null,,,,,,,,,,,,
,do_trial,230,524249,0.0-126.0-0.0,632.4000000953674,,,,,,49,0,1,0,2,highway,70,0.07792124831347653,1,0.31477192605974497,0,learn,,,
,html-keyboard-response,231,525251,0.0-126.0-1.0,null,,,<p></p>,null,,,,,,,,,,,,,,
,do_trial,232,528088,0.0-127.0-0.0,334.10000014305115,,,,,,50,0,1,1,2,highway,71,0.0525691530988307,1,0.35972592882581156,1,learn,,,
,html-keyboard-response,233,529089,0.0-127.0-1.0,null,,,<p></p>,null,,,,,,,,,,,,,,
,do_trial,234,531755,0.0-128.0-0.0,151.5,,,,,,51,0,1,0,2,highway,72,0.14207997532625247,0.7822984565696947,0.358701129159049,0,learn,,,
,html-keyboard-response,235,532756,0.0-128.0-1.0,null,,,<p></p>,null,,,,,,,,,,,,,,
,do_trial,236,535624,0.0-129.0-0.0,364.90000009536743,,,,,,50,0,1,0,2,highway,73,0.2917842112629444,0.6389519937648606,0.2932661195648296,1,learn,,,
,html-keyboard-response,237,536627,0.0-129.0-1.0,null,,,<p></p>,null,,,,,,,,,,,,,,
,do_trial,238,539216,0.0-130.0-0.0,86.60000014305115,,,,,,50,0,0,0,2,highway,74,0.24875489486462463,0.4332718188600995,0.2729605811019916,0,learn,,,
,html-keyboard-response,239,540217,0.0-130.0-1.0,null,,,<p></p>,null,,,,,,,,,,,,,,
,do_trial,240,542872,0.0-131.0-0.0,151.90000009536743,,,,,,50,0,0,0,2,highway,75,0.2484773650305485,0.37429716761397486,0.3035798334514296,0,learn,,,
,html-keyboard-response,241,543874,0.0-131.0-1.0,null,,,<p></p>,null,,,,,,,,,,,,,,
,do_trial,242,546496,0.0-132.0-0.0,119.80000019073486,,,,,,51,1,0,1,2,highway,76,0.19542340815057863,0.45192589384770954,0.3863144568490961,1,learn,,,
,html-keyboard-response,243,547497,0.0-132.0-1.0,null,,,<p></p>,null,,,,,,,,,,,,,,
,do_trial,244,550119,0.0-133.0-0.0,119.5,,,,,,51,0,1,1,2,highway,77,0.06294719191961477,0.6513025698375607,0.3926294257982139,1,learn,,,
,html-keyboard-response,245,551121,0.0-133.0-1.0,null,,,<p></p>,null,,,,,,,,,,,,,,
,do_trial,246,553864,0.0-134.0-0.0,240.69999980926514,,,,,,51,0,1,0,2,highway,78,0.0795013201741168,0.6156778448492527,0.30387342925150357,0,learn,,,
,html-keyboard-response,247,554865,0.0-134.0-1.0,null,,,<p></p>,null,,,,,,,,,,,,,,
,do_trial,248,557592,0.0-135.0-0.0,223.90000009536743,,,,,,49,0,1,1,2,highway,79,0.1403298395648797,0.6468897496425356,0.3977242260731569,0,learn,,,
,html-keyboard-response,249,558594,0.0-135.0-1.0,null,,,<p></p>,null,,,,,,,,,,,,,,
,do_trial,250,561160,0.0-136.0-0.0,63.40000009536743,,,,,,50,0,0,0,2,highway,80,0.2508352459869003,0.704008935137274,0.4095658838253941,0,learn,,,
,html-keyboard-response,251,562162,0.0-136.0-1.0,null,,,<p></p>,null,,,,,,,,,,,,,,
,do_trial,252,564879,0.0-137.0-0.0,215.39999985694885,,,,,,49,1,1,0,2,highway,81,0.23228357634962435,0.6993581405860019,0.40957811762521035,1,learn,,,
,html-keyboard-response,253,565885,0.0-137.0-1.0,null,,,<p></p>,null,,,,,,,,,,,,,,
,do_trial,254,568464,0.0-138.0-0.0,76.5,,,,,,51,0,0,1,2,highway,82,0.22928471163240516,0.5298181879019983,0.40193197478246395,1,learn,,,
,html-keyboard-response,255,569466,0.0-138.0-1.0,null,,,<p></p>,null,,,,,,,,,,,,,,
,do_trial,256,572056,0.0-139.0-0.0,88.29999995231628,,,,,,49,1,1,0,2,highway,83,0.42202514522748913,0.5175835730078757,0.27892173925901775,1,learn,,,
,html-keyboard-response,257,573058,0.0-139.0-1.0,null,,,<p></p>,null,,,,,,,,,,,,,,
,do_trial,258,575585,0.0-140.0-0.0,23.399999856948853,,,,,,51,1,1,0,2,highway,84,0.45866549697275033,0.26977620150478737,0.2780366479907277,0,learn,,,
,html-keyboard-response,259,576587,0.0-140.0-1.0,null,,,<p></p>,null,,,,,,,,,,,,,,
,do_trial,260,579177,0.0-141.0-0.0,86.60000014305115,,,,,,50,1,1,1,2,highway,85,0.4883455122373168,0.35989826794297053,0.2472948990442043,1,learn,,,
,html-keyboard-response,261,580179,0.0-141.0-1.0,null,,,<p></p>,null,,,,,,,,,,,,,,
,do_trial,262,582872,0.0-142.0-0.0,190,,,,,,49,0,1,1,2,highway,86,0.3909074304359642,0.2849166319883391,0.33290365310422515,0,learn,,,
,html-keyboard-response,263,583873,0.0-142.0-1.0,null,,,<p></p>,null,,,,,,,,,,,,,,
,do_trial,264,586425,0.0-143.0-0.0,47.90000009536743,,,,,,50,1,1,1,2,highway,87,0.5099539790271079,0.33416472094279753,0.32725873434862685,1,learn,,,
,html-keyboard-response,265,587426,0.0-143.0-1.0,null,,,<p></p>,null,,,,,,,,,,,,,,
,do_trial,266,590088,0.0-144.0-0.0,159.5,,,,,,49,0,0,1,2,highway,88,0.510468615428694,0.3289056662623472,0.3094689280607844,0,learn,,,
,html-keyboard-response,267,591090,0.0-144.0-1.0,null,,,<p></p>,null,,,,,,,,,,,,,,
,do_trial,268,593593,0.0-145.0-0.0,0.3000001907348633,,,,,,50,1,0,0,2,highway,89,0.63253371461806,0.2796324269218119,0.2588097601593164,0,learn,,,
,html-keyboard-response,269,594594,0.0-145.0-1.0,null,,,<p></p>,null,,,,,,,,,,,,,,
,do_trial,270,597224,0.0-146.0-0.0,127,,,,,,51,1,0,0,2,highway,90,0.6863983517358071,0.14592127169755825,0.35960010176797624,0,learn,,,
,html-keyboard-response,271,598226,0.0-146.0-1.0,null,,,<p></p>,null,,,,,,,,,,,,,,
,do_trial,272,600921,0.0-147.0-0.0,192,,,,,,51,0,0,0,2,highway,91,0.5479959992820094,0.17685082235362484,0.29055677020839127,0,learn,,,
,html-keyboard-response,273,601922,0.0-147.0-1.0,null,,,<p></p>,null,,,,,,,,,,,,,,
,do_trial,274,604544,0.0-148.0-0.0,119.09999990463257,,,,,,49,1,0,1,2,highway,92,0.6482327187888522,0.1904947276744287,0.2423689239721612,1,learn,,,
,html-keyboard-response,275,605546,0.0-148.0-1.0,null,,,<p></p>,null,,,,,,,,,,,,,,
,do_trial,276,608152,0.0-149.0-0.0,103.5,,,,,,49,1,0,0,2,highway,93,0.6482677131537075,0.1900111937330739,0.0847933247474792,1,learn,,,
,html-keyboard-response,277,609154,0.0-149.0-1.0,null,,,<p></p>,null,,,,,,,,,,,,,,
,do_trial,278,611677,0.0-150.0-0.0,14.699999809265137,,,,,,49,1,0,0,2,highway,94,0.5972705711485213,0.24242595396284464,0.2319490614512538,1,learn,,,
,html-keyboard-response,279,612679,0.0-150.0-1.0,null,,,<p></p>,null,,,,,,,,,,,,,,
,do_trial,280,615232,0.0-151.0-0.0,50,,,,,,49,1,0,0,2,highway,95,0.48082448339912004,0.24997148285094453,0.10465217321620199,1,learn,,,
,html-keyboard-response,281,616233,0.0-151.0-1.0,null,,,<p></p>,null,,,,,,,,,,,,,,
,do_trial,282,618856,0.0-152.0-0.0,120.40000009536743,,,,,,49,1,0,1,2,highway,96,0.5790429161301944,0.08888477247713716,0.16704998564277523,1,learn,,,
,html-keyboard-response,283,619856,0.0-152.0-1.0,null,,,<p></p>,null,,,,,,,,,,,,,,
,do_trial,284,622384,0.0-153.0-0.0,24.899999856948853,,,,,,49,1,0,0,2,highway,97,0.5001349184508009,0.18092511115581977,0.1989481418411936,1,learn,,,
,html-keyboard-response,285,623386,0.0-153.0-1.0,null,,,<p></p>,null,,,,,,,,,,,,,,
,do_trial,286,625984,0.0-154.0-0.0,95.5,,,,,,49,1,0,0,2,highway,98,0.5484810812103083,0.19727596792709118,0.05217996286430294,1,learn,,,
,html-keyboard-response,287,626985,0.0-154.0-1.0,null,,,<p></p>,null,,,,,,,,,,,,,,
,do_trial,288,629623,0.0-155.0-0.0,135.5,,,,,,49,1,1,0,2,highway,99,0.7145433408762776,0.25094213341543903,0.1256305573690456,1,learn,,,
,html-keyboard-response,289,630626,0.0-155.0-1.0,null,,,<p></p>,null,,,,,,,,,,,,,,
,do_trial,290,633224,0.0-156.0-0.0,95.60000014305115,,,,,,49,0,1,0,2,highway,100,0.6670141896838966,0.2972780511506242,0.2045185098507198,0,learn,,,
,html-keyboard-response,291,634225,0.0-156.0-1.0,null,,,<p></p>,null,,,,,,,,,,,,,,
,do_trial,292,636800,0.0-157.0-0.0,71.79999995231628,,,,,,49,1,0,0,2,highway,101,0.7016398139527477,0.2558307745118066,0.23326093946924173,1,learn,,,
,html-keyboard-response,293,637802,0.0-157.0-1.0,null,,,<p></p>,null,,,,,,,,,,,,,,
,do_trial,294,640426,0.0-158.0-0.0,119.5,,,,,,49,1,0,0,2,highway,102,0.6931475737529924,0.3405576536189085,0.3005819013015084,1,learn,,,
,html-keyboard-response,295,641436,0.0-158.0-1.0,null,,,<p></p>,null,,,,,,,,,,,,,,
,do_trial,296,643968,0.0-159.0-0.0,28.90000009536743,,,,,,49,1,1,0,2,highway,103,0.6394766650322329,0.3373665673550675,0.2819368558000174,1,learn,,,
,html-keyboard-response,297,644969,0.0-159.0-1.0,null,,,<p></p>,null,,,,,,,,,,,,,,
,do_trial,298,647512,0.0-160.0-0.0,40.09999990463257,,,,,,49,0,1,1,2,highway,104,0.6903471612835762,0.32787986253590423,0.2216717026459748,0,learn,,,
,html-keyboard-response,299,648513,0.0-160.0-1.0,null,,,<p></p>,null,,,,,,,,,,,,,,
,do_trial,300,651162,0.0-161.0-0.0,144,,,,,,49,1,1,1,2,highway,105,0.668834330160114,0.3880037878272017,0.24843637193800683,1,learn,,,
,html-keyboard-response,301,652163,0.0-161.0-1.0,null,,,<p></p>,null,,,,,,,,,,,,,,
,do_trial,302,654840,0.0-162.0-0.0,173.59999990463257,,,,,,49,0,0,0,2,highway,106,0.6983126005845113,0.4190010653269025,0.23071337215558965,0,learn,,,
,html-keyboard-response,303,655841,0.0-162.0-1.0,null,,,<p></p>,null,,,,,,,,,,,,,,
,do_trial,304,658416,0.0-163.0-0.0,71.90000009536743,,,,,,49,0,0,1,2,highway,107,0.654454294511761,0.37576820445522835,0.10797102159423862,0,learn,,,
,html-keyboard-response,305,659418,0.0-163.0-1.0,null,,,<p></p>,null,,,,,,,,,,,,,,
,do_trial,306,662009,0.0-164.0-0.0,87.70000004768372,,,,,,49,1,0,0,2,highway,108,0.49865183637953464,0.18407374185561115,0.14655420827208113,1,learn,,,
,html-keyboard-response,307,663010,0.0-164.0-1.0,null,,,<p></p>,null,,,,,,,,,,,,,,
,do_trial,308,665535,0.0-165.0-0.0,22.5,,,,,,49,1,0,1,2,highway,109,0.550066700906217,0.3756948802678979,0.13342992888923766,1,learn,,,
,html-keyboard-response,309,666537,0.0-165.0-1.0,null,,,<p></p>,null,,,,,,,,,,,,,,
,do_bye,310,668043,0.0-166.0-0.0,null,,,,,,null,,,,,,,,,,,,
,do_travel,311,677046,0.0-167.0-0.0,null,,,,,,null,,,,,,,,,,,,
,do_welcome,312,681055,0.0-167.0-1.0,null,,,,,,null,,,,,,,,,,,,
,do_trial,313,684967,0.0-168.0-0.0,1409.7000000476837,,,,,,51,1,0,1,3,mountain,110,1,0.3631855581206379,0.0979132287052232,1,learn,,,
,html-keyboard-response,314,685968,0.0-168.0-1.0,null,,,<p></p>,null,,,,,,,,,,,,,,
,do_trial,315,688584,0.0-169.0-0.0,112.90000009536743,,,,,,50,1,0,0,3,mountain,111,1,0.32855156291870247,0.16696551853785646,0,learn,,,
,html-keyboard-response,316,689586,0.0-169.0-1.0,null,,,<p></p>,null,,,,,,,,,,,,,,
,do_trial,317,692111,0.0-170.0-0.0,23.200000047683716,,,,,,49,1,1,0,3,mountain,112,0.8764573507256994,0.345229827262831,0.23799997145025195,1,learn,,,
,html-keyboard-response,318,693113,0.0-170.0-1.0,null,,,<p></p>,null,,,,,,,,,,,,,,
,do_trial,319,695736,0.0-171.0-0.0,120.40000009536743,,,,,,51,1,0,0,3,mountain,113,0.7923108610786552,0.21260313118126412,0.16726313823434347,0,learn,,,
,html-keyboard-response,320,696737,0.0-171.0-1.0,null,,,<p></p>,null,,,,,,,,,,,,,,
,do_trial,321,699376,0.0-172.0-0.0,136.5,,,,,,50,1,0,1,3,mountain,114,0.5956072061338037,0.32947802664353043,0.1827129981617057,0,learn,,,
,html-keyboard-response,322,700378,0.0-172.0-1.0,null,,,<p></p>,null,,,,,,,,,,,,,,
,do_trial,323,703031,0.0-173.0-0.0,150.5,,,,,,49,0,1,0,3,mountain,115,0.6585247730649517,0.26813462151411316,0.14562508878084807,0,learn,,,
,html-keyboard-response,324,704033,0.0-173.0-1.0,null,,,<p></p>,null,,,,,,,,,,,,,,
,do_trial,325,706688,0.0-174.0-0.0,151.90000009536743,,,,,,49,0,0,0,3,mountain,116,0.5760017885832758,0.2184512432371016,0.10211083104887829,0,learn,,,
,html-keyboard-response,326,707691,0.0-174.0-1.0,null,,,<p></p>,null,,,,,,,,,,,,,,
,do_trial,327,710272,0.0-175.0-0.0,78.59999990463257,,,,,,50,1,0,0,3,mountain,117,0.6032903579633634,0.24632560546377164,0.1467252461282694,0,learn,,,
,html-keyboard-response,328,711275,0.0-175.0-1.0,null,,,<p></p>,null,,,,,,,,,,,,,,
,do_trial,329,713777,0.0-176.0-0.0,0.10000014305114746,,,,,,51,1,1,0,3,mountain,118,0.6552567895952252,0.30707616985068037,0.06177009191327124,0,learn,,,
,html-keyboard-response,330,714778,0.0-176.0-1.0,null,,,<p></p>,null,,,,,,,,,,,,,,
,do_trial,331,717379,0.0-177.0-0.0,94.09999990463257,,,,,,51,1,0,1,3,mountain,119,0.5871373599507973,0.3392330679160904,0.16196486886999345,1,learn,,,
,html-keyboard-response,332,718381,0.0-177.0-1.0,null,,,<p></p>,null,,,,,,,,,,,,,,
,do_trial,333,720927,0.0-178.0-0.0,44.200000047683716,,,,,,51,1,0,0,3,mountain,120,0.6042991962588206,0.3845995169881817,0.24194141702196525,0,learn,,,
,html-keyboard-response,334,721928,0.0-178.0-1.0,null,,,<p></p>,null,,,,,,,,,,,,,,
,do_trial,335,724431,0.0-179.0-0.0,0.40000009536743164,,,,,,51,0,1,1,3,mountain,121,0.4118694984709451,0.444341173786972,0.266140486818679,1,learn,,,
,html-keyboard-response,336,725432,0.0-179.0-1.0,null,,,<p></p>,null,,,,,,,,,,,,,,
,do_trial,337,728056,0.0-180.0-0.0,121.5,,,,,,51,0,0,0,3,mountain,122,0.27803038204656766,0.5333300664884144,0.34288527578360817,0,learn,,,
,html-keyboard-response,338,729057,0.0-180.0-1.0,null,,,<p></p>,null,,,,,,,,,,,,,,
,do_trial,339,731648,0.0-181.0-0.0,87.39999985694885,,,,,,51,0,0,1,3,mountain,123,0.2246295421563543,0.6450485108019247,0.31699493076266727,1,learn,,,
,html-keyboard-response,340,732650,0.0-181.0-1.0,null,,,<p></p>,null,,,,,,,,,,,,,,
,do_trial,341,735159,0.0-182.0-0.0,6.799999952316284,,,,,,51,0,0,0,3,mountain,124,0.2338542087760292,0.5902980487859814,0.25233316088432906,0,learn,,,
,html-keyboard-response,342,736161,0.0-182.0-1.0,null,,,<p></p>,null,,,,,,,,,,,,,,
,do_trial,343,738713,0.0-183.0-0.0,48.09999990463257,,,,,,51,0,1,1,3,mountain,125,0.35187989782829904,0.6424624153495316,0.23954927770346365,1,learn,,,
,html-keyboard-response,344,739715,0.0-183.0-1.0,null,,,<p></p>,null,,,,,,,,,,,,,,
,do_trial,345,742248,0.0-184.0-0.0,30,,,,,,51,0,0,0,3,mountain,126,0.3969987793964592,0.5883832951489005,0.23019760867175848,0,learn,,,
,html-keyboard-response,346,743249,0.0-184.0-1.0,null,,,<p></p>,null,,,,,,,,,,,,,,
,do_trial,347,745824,0.0-185.0-0.0,72.29999995231628,,,,,,51,1,0,1,3,mountain,127,0.2958013779432052,0.5574823035081492,0.10879945985319835,1,learn,,,
,html-keyboard-response,348,746825,0.0-185.0-1.0,null,,,<p></p>,null,,,,,,,,,,,,,,
,do_trial,349,749465,0.0-186.0-0.0,136.20000004768372,,,,,,51,1,1,0,3,mountain,128,0.3818706682490806,0.6073293400148615,0.15087198661646783,0,learn,,,
,html-keyboard-response,350,750467,0.0-186.0-1.0,null,,,<p></p>,null,,,,,,,,,,,,,,
,do_trial,351,753160,0.0-187.0-0.0,189.79999995231628,,,,,,51,1,0,1,3,mountain,129,0.37428513733115965,0.5835617185930865,0.10875653220718187,1,learn,,,
,html-keyboard-response,352,754162,0.0-187.0-1.0,null,,,<p></p>,null,,,,,,,,,,,,,,
,do_trial,353,756672,0.0-188.0-0.0,7.400000095367432,,,,,,51,1,0,0,3,mountain,130,0.29849996018317604,0.5438541145880329,0.06590802355370562,0,learn,,,
,html-keyboard-response,354,757673,0.0-188.0-1.0,null,,,<p></p>,null,,,,,,,,,,,,,,
,do_trial,355,760231,0.0-189.0-0.0,55.40000009536743,,,,,,49,1,1,0,3,mountain,131,0.25165638247864347,0.5729416961196317,0.08875172123121042,1,learn,,,
,html-keyboard-response,356,761233,0.0-189.0-1.0,null,,,<p></p>,null,,,,,,,,,,,,,,
,do_trial,357,763792,0.0-190.0-0.0,56.200000047683716,,,,,,49,1,1,0,3,mountain,132,0.3127967963883127,0.6275489063354547,0.10684454242702794,1,learn,,,
,html-keyboard-response,358,764793,0.0-190.0-1.0,null,,,<p></p>,null,,,,,,,,,,,,,,
,do_trial,359,767368,0.0-191.0-0.0,71.20000004768372,,,,,,49,1,1,0,3,mountain,133,0.4289395196667218,0.622018282600879,0.1534661544345648,1,learn,,,
,html-keyboard-response,360,768369,0.0-191.0-1.0,null,,,<p></p>,null,,,,,,,,,,,,,,
,do_trial,361,770929,0.0-192.0-0.0,56.5,,,,,,49,0,1,0,3,mountain,134,0.3765882224262384,0.6801911643488575,0.19269828510787781,0,learn,,,
,html-keyboard-response,362,771931,0.0-192.0-1.0,null,,,<p></p>,null,,,,,,,,,,,,,,
,do_trial,363,774480,0.0-193.0-0.0,46,,,,,,49,0,1,0,3,mountain,135,0.3086820243573684,0.7325967554857445,0.1274020232271343,0,learn,,,
,html-keyboard-response,364,775481,0.0-193.0-1.0,null,,,<p></p>,null,,,,,,,,,,,,,,
,do_trial,365,778008,0.0-194.0-0.0,24,,,,,,50,0,1,0,3,mountain,136,0.33116011279454965,0.6935890098276737,0.1283218809498362,1,learn,,,
,html-keyboard-response,366,779009,0.0-194.0-1.0,null,,,<p></p>,null,,,,,,,,,,,,,,
,do_trial,367,781661,0.0-195.0-0.0,136.5,,,,,,50,0,0,1,3,mountain,137,0.3758596933010758,0.7339280383808352,0.17351614765022455,0,learn,,,
,html-keyboard-response,368,782663,0.0-195.0-1.0,null,,,<p></p>,null,,,,,,,,,,,,,,
,do_trial,369,785279,0.0-196.0-0.0,113.39999985694885,,,,,,51,0,0,0,3,mountain,138,0.38597056212781544,0.6564432993714477,0.19072442903529546,0,learn,,,
,html-keyboard-response,370,786281,0.0-196.0-1.0,null,,,<p></p>,null,,,,,,,,,,,,,,
,do_trial,371,788816,0.0-197.0-0.0,32.59999990463257,,,,,,49,0,1,1,3,mountain,139,0.23435652947872376,0.6505249932431741,0.31502959312222306,0,learn,,,
,html-keyboard-response,372,789818,0.0-197.0-1.0,null,,,<p></p>,null,,,,,,,,,,,,,,
,do_trial,373,792328,0.0-198.0-0.0,7.299999952316284,,,,,,50,1,1,0,3,mountain,140,0.26154278986946045,0.698524557061238,0.23884663066662348,1,learn,,,
,html-keyboard-response,374,793330,0.0-198.0-1.0,null,,,<p></p>,null,,,,,,,,,,,,,,
,do_trial,375,795919,0.0-199.0-0.0,86.59999990463257,,,,,,50,0,0,0,3,mountain,141,0.2786679096911124,0.7548240967174124,0.056289060971130435,0,learn,,,
,html-keyboard-response,376,796921,0.0-199.0-1.0,null,,,<p></p>,null,,,,,,,,,,,,,,
,do_trial,377,799551,0.0-200.0-0.0,127.79999995231628,,,,,,51,1,0,0,3,mountain,142,0.25651998737542836,0.6207819648484971,0.20194915621983694,0,learn,,,
,html-keyboard-response,378,800565,0.0-200.0-1.0,null,,,<p></p>,null,,,,,,,,,,,,,,
,do_trial,379,804007,0.0-201.0-0.0,939.7000000476837,,,,,,51,0,1,1,3,mountain,143,0.3282586222381498,0.6098565515166781,0.2517495728635343,1,learn,,,
,html-keyboard-response,380,805009,0.0-201.0-1.0,null,,,<p></p>,null,,,,,,,,,,,,,,
,do_trial,381,807727,0.0-202.0-0.0,216,,,,,,51,1,0,0,3,mountain,144,0.39745588908249163,0.7515240253324242,0.10139849521615883,0,learn,,,
,html-keyboard-response,382,808729,0.0-202.0-1.0,null,,,<p></p>,null,,,,,,,,,,,,,,
,do_trial,383,814733,0.0-203.0-0.0,null,,,,,,null,0,1,0,3,mountain,145,0.33430868188998775,0.7275043874050973,0.15238323547891575,,learn,,,
,html-keyboard-response,384,815735,0.0-203.0-1.0,null,,,<p></p>,null,,,,,,,,,,,,,,
,do_trial,385,821739,0.0-204.0-0.0,null,,,,,,null,1,0,0,3,mountain,146,0.29899211057457703,0.7656678077999893,0.14260439242147463,,learn,,,
,html-keyboard-response,386,822741,0.0-204.0-1.0,null,,,<p></p>,null,,,,,,,,,,,,,,
,do_trial,387,828744,0.0-205.0-0.0,null,,,,,,null,1,1,0,3,mountain,147,0.30694179220272744,0.6142232822494148,0.26670483076853535,,learn,,,
,html-keyboard-response,388,829746,0.0-205.0-1.0,null,,,<p></p>,null,,,,,,,,,,,,,,
,do_trial,389,835750,0.0-206.0-0.0,null,,,,,,null,0,0,0,3,mountain,148,0.2124730029798721,0.7472120323633646,0.2484631973143812,,learn,,,
,html-keyboard-response,390,836753,0.0-206.0-1.0,null,,,<p></p>,null,,,,,,,,,,,,,,
,do_trial,391,842756,0.0-207.0-0.0,null,,,,,,null,0,1,0,3,mountain,149,0.3260594523417229,0.6368445362792974,0.11230686470278733,,learn,,,
,html-keyboard-response,392,843758,0.0-207.0-1.0,null,,,<p></p>,null,,,,,,,,,,,,,,
,do_bye,393,845262,0.0-208.0-0.0,null,,,,,,null,,,,,,,,,,,,
,do_travel,394,854265,0.0-209.0-0.0,null,,,,,,null,,,,,,,,,,,,
,do_welcome,395,858274,0.0-209.0-1.0,null,,,,,,null,,,,,,,,,,,,
,do_trial,396,864277,0.0-210.0-0.0,null,,,,,,null,0,1,0,4,countryside,150,0.2950612930359525,1,0.06336857603597305,,learn,,,
,html-keyboard-response,397,865279,0.0-210.0-1.0,null,,,<p></p>,null,,,,,,,,,,,,,,
,do_trial,398,871282,0.0-211.0-0.0,null,,,,,,null,0,1,0,4,countryside,151,0.15412595257420938,1,0.06381655719771559,,learn,,,
,html-keyboard-response,399,872284,0.0-211.0-1.0,null,,,<p></p>,null,,,,,,,,,,,,,,
,do_trial,400,878288,0.0-212.0-0.0,null,,,,,,null,1,1,0,4,countryside,152,0.2531076707941996,0.9114422643597686,0.10433800612305952,,learn,,,
,html-keyboard-response,401,879289,0.0-212.0-1.0,null,,,<p></p>,null,,,,,,,,,,,,,,
,do_trial,402,885293,0.0-213.0-0.0,null,,,,,,null,0,1,0,4,countryside,153,0.29347630634108707,0.7832050008956071,0.12116397736309505,,learn,,,
,html-keyboard-response,403,886296,0.0-213.0-1.0,null,,,<p></p>,null,,,,,,,,,,,,,,
,do_trial,404,892299,0.0-214.0-0.0,null,,,,,,null,0,0,0,4,countryside,154,0.3343604324180559,0.630926710274903,0.10416240149327825,,learn,,,
,html-keyboard-response,405,893302,0.0-214.0-1.0,null,,,<p></p>,null,,,,,,,,,,,,,,
,do_trial,406,899305,0.0-215.0-0.0,null,,,,,,null,0,1,0,4,countryside,155,0.42814209748434623,0.5968977575621445,0.08454767586549596,,learn,,,
,html-keyboard-response,407,900307,0.0-215.0-1.0,null,,,<p></p>,null,,,,,,,,,,,,,,
,do_trial,408,906311,0.0-216.0-0.0,null,,,,,,null,1,1,1,4,countryside,156,0.39160137627862524,0.8059588207401329,0.1380249496429057,,learn,,,
,html-keyboard-response,409,907312,0.0-216.0-1.0,null,,,<p></p>,null,,,,,,,,,,,,,,
,do_trial,410,913316,0.0-217.0-0.0,null,,,,,,null,0,1,0,4,countryside,157,0.3322659936641575,0.6472012985369906,0.07103464570154455,,learn,,,
,html-keyboard-response,411,914318,0.0-217.0-1.0,null,,,<p></p>,null,,,,,,,,,,,,,,
,do_trial,412,920321,0.0-218.0-0.0,null,,,,,,null,0,1,0,4,countryside,158,0.17450837489792753,0.5772152922023998,0.053900840145256,,learn,,,
,html-keyboard-response,413,921324,0.0-218.0-1.0,null,,,<p></p>,null,,,,,,,,,,,,,,
,do_trial,414,927328,0.0-219.0-0.0,null,,,,,,null,0,1,1,4,countryside,159,0.2741941743193596,0.5776815375784814,0.10803074915441312,,learn,,,
,html-keyboard-response,415,928329,0.0-219.0-1.0,null,,,<p></p>,null,,,,,,,,,,,,,,
,do_trial,416,934333,0.0-220.0-0.0,null,,,,,,null,0,0,0,4,countryside,160,0.2571523788594895,0.5767352119985584,0.09727940084181118,,learn,,,
,html-keyboard-response,417,935335,0.0-220.0-1.0,null,,,<p></p>,null,,,,,,,,,,,,,,
,do_trial,418,941339,0.0-221.0-0.0,null,,,,,,null,0,0,0,4,countryside,161,0.1526810801853664,0.5403601778031769,0.05812228328139543,,learn,,,
,html-keyboard-response,419,942339,0.0-221.0-1.0,null,,,<p></p>,null,,,,,,,,,,,,,,
,do_trial,420,948343,0.0-222.0-0.0,null,,,,,,null,1,0,0,4,countryside,162,0.3631542712708044,0.4314710573915802,0.10971751644563424,,learn,,,
,html-keyboard-response,421,949345,0.0-222.0-1.0,null,,,<p></p>,null,,,,,,,,,,,,,,
,do_trial,422,955349,0.0-223.0-0.0,null,,,,,,null,0,0,0,4,countryside,163,0.43309920487375075,0.3491541435563268,0.053811557544381924,,learn,,,
,html-keyboard-response,423,956351,0.0-223.0-1.0,null,,,<p></p>,null,,,,,,,,,,,,,,
,do_trial,424,962355,0.0-224.0-0.0,null,,,,,,null,0,1,0,4,countryside,164,0.5105267850562983,0.35331473582904116,0.1287526761545946,,learn,,,
,html-keyboard-response,425,963357,0.0-224.0-1.0,null,,,<p></p>,null,,,,,,,,,,,,,,
,do_trial,426,966064,0.0-225.0-0.0,204.70000004768372,,,,,,50,1,0,0,4,countryside,165,0.6311968530210922,0.36886429916592706,0.17592360434668664,0,learn,,,
,html-keyboard-response,427,967065,0.0-225.0-1.0,null,,,<p></p>,null,,,,,,,,,,,,,,
,do_trial,428,969575,0.0-226.0-0.0,7.599999904632568,,,,,,49,1,0,0,4,countryside,166,0.6506261431581328,0.4905411692588044,0.10504045102492846,1,learn,,,
,html-keyboard-response,429,970576,0.0-226.0-1.0,null,,,<p></p>,null,,,,,,,,,,,,,,
,do_trial,430,973079,0.0-227.0-0.0,0.39999985694885254,,,,,,49,1,0,0,4,countryside,167,0.5321353052266014,0.3800216796002352,0.07423239753917647,1,learn,,,
,html-keyboard-response,431,974081,0.0-227.0-1.0,null,,,<p></p>,null,,,,,,,,,,,,,,
,do_trial,432,976736,0.0-228.0-0.0,152.30000019073486,,,,,,49,1,1,1,4,countryside,168,0.6263666973024181,0.29052996830744793,0.14710936460411153,1,learn,,,
,html-keyboard-response,433,977738,0.0-228.0-1.0,null,,,<p></p>,null,,,,,,,,,,,,,,
,do_trial,434,980399,0.0-229.0-0.0,158.59999990463257,,,,,,49,1,0,0,4,countryside,169,0.6368442903588258,0.317852086196145,0.053575161160195006,1,learn,,,
,html-keyboard-response,435,981401,0.0-229.0-1.0,null,,,<p></p>,null,,,,,,,,,,,,,,
,do_trial,436,983904,0.0-230.0-0.0,0.40000009536743164,,,,,,49,0,0,0,4,countryside,170,0.8279800616497065,0.29421733703622793,0.06569186607775675,0,learn,,,
,html-keyboard-response,437,984905,0.0-230.0-1.0,null,,,<p></p>,null,,,,,,,,,,,,,,
,do_trial,438,987568,0.0-231.0-0.0,159.5,,,,,,49,1,0,1,4,countryside,171,0.7662333407397695,0.39334222838402744,0.11546317180606107,1,learn,,,
,html-keyboard-response,439,988571,0.0-231.0-1.0,null,,,<p></p>,null,,,,,,,,,,,,,,
,do_trial,440,991095,0.0-232.0-0.0,21.5,,,,,,49,0,0,1,4,countryside,172,0.761734159494127,0.3924288566820007,0.15194820138904253,0,learn,,,
,html-keyboard-response,441,992096,0.0-232.0-1.0,null,,,<p></p>,null,,,,,,,,,,,,,,
,do_trial,442,994680,0.0-233.0-0.0,80.30000019073486,,,,,,50,1,1,0,4,countryside,173,0.6423826316663402,0.3725020557786158,0.0715177388981446,1,learn,,,
,html-keyboard-response,443,995682,0.0-233.0-1.0,null,,,<p></p>,null,,,,,,,,,,,,,,
,do_trial,444,998280,0.0-234.0-0.0,95.29999995231628,,,,,,50,1,1,0,4,countryside,174,0.5138004272033782,0.45436042922199527,0.05406147278508229,1,learn,,,
,html-keyboard-response,445,999281,0.0-234.0-1.0,null,,,<p></p>,null,,,,,,,,,,,,,,
,do_trial,446,1001911,0.0-235.0-0.0,127.09999990463257,,,,,,50,0,0,0,4,countryside,175,0.5007572302319573,0.4405267147743418,0.11169299786813788,0,learn,,,
,html-keyboard-response,447,1002912,0.0-235.0-1.0,null,,,<p></p>,null,,,,,,,,,,,,,,
,do_trial,448,1005888,0.0-236.0-0.0,473.2000000476837,,,,,,51,0,0,0,4,countryside,176,0.4630847380217502,0.48805076654172463,0.08995320928906317,0,learn,,,
,html-keyboard-response,449,1006890,0.0-236.0-1.0,null,,,<p></p>,null,,,,,,,,,,,,,,
,do_trial,450,1009713,0.0-237.0-0.0,319.09999990463257,,,,,,49,0,0,0,4,countryside,177,0.5188214345219477,0.49665639491722374,0.10458431640665268,0,learn,,,
,html-keyboard-response,451,1010716,0.0-237.0-1.0,null,,,<p></p>,null,,,,,,,,,,,,,,
,do_trial,452,1013871,0.0-238.0-0.0,653.3999998569489,,,,,,50,1,1,0,4,countryside,178,0.5050425893978674,0.46827489614112006,0.12109329459685836,1,learn,,,
,html-keyboard-response,453,1014874,0.0-238.0-1.0,null,,,<p></p>,null,,,,,,,,,,,,,,
,do_trial,454,1017464,0.0-239.0-0.0,87.70000004768372,,,,,,50,1,0,0,4,countryside,179,0.4346334374838736,0.40272309668000694,0.1273832292011245,0,learn,,,
,html-keyboard-response,455,1018465,0.0-239.0-1.0,null,,,<p></p>,null,,,,,,,,,,,,,,
,do_trial,456,1021159,0.0-240.0-0.0,192.59999990463257,,,,,,50,1,1,1,4,countryside,180,0.36002197166313915,0.39746190242288437,0.13899545111300682,1,learn,,,
,html-keyboard-response,457,1022161,0.0-240.0-1.0,null,,,<p></p>,null,,,,,,,,,,,,,,
,do_trial,458,1024671,0.0-241.0-0.0,7.400000095367432,,,,,,50,0,0,0,4,countryside,181,0.4492839526988452,0.36983007957250047,0.13814559245855226,0,learn,,,
,html-keyboard-response,459,1025673,0.0-241.0-1.0,null,,,<p></p>,null,,,,,,,,,,,,,,
,do_trial,460,1028872,0.0-242.0-0.0,696.2999999523163,,,,,,50,1,0,0,4,countryside,182,0.6475460853853754,0.24706347502545215,0.14033879252141096,0,learn,,,
,html-keyboard-response,461,1029873,0.0-242.0-1.0,null,,,<p></p>,null,,,,,,,,,,,,,,
,do_trial,462,1032537,0.0-243.0-0.0,160.10000014305115,,,,,,49,1,0,0,4,countryside,183,0.6771515976171169,0.36240903199941216,0.08251930303683018,1,learn,,,
,html-keyboard-response,463,1033538,0.0-243.0-1.0,null,,,<p></p>,null,,,,,,,,,,,,,,
,do_trial,464,1036337,0.0-244.0-0.0,295.30000019073486,,,,,,49,1,1,0,4,countryside,184,0.6272799171235962,0.4204359264187631,0.07636724954986832,1,learn,,,
,html-keyboard-response,465,1037339,0.0-244.0-1.0,null,,,<p></p>,null,,,,,,,,,,,,,,
,do_trial,466,1039977,0.0-245.0-0.0,134.5,,,,,,49,1,0,0,4,countryside,185,0.5118362860896136,0.30836601809565584,0.11150433314339947,1,learn,,,
,html-keyboard-response,467,1040979,0.0-245.0-1.0,null,,,<p></p>,null,,,,,,,,,,,,,,
,do_trial,468,1043511,0.0-246.0-0.0,30.100000143051147,,,,,,49,0,1,1,4,countryside,186,0.5665236356117744,0.22136151889969605,0.08734330198695736,0,learn,,,
,html-keyboard-response,469,1044514,0.0-246.0-1.0,null,,,<p></p>,null,,,,,,,,,,,,,,
,do_trial,470,1047192,0.0-247.0-0.0,174.70000004768372,,,,,,49,0,0,0,4,countryside,187,0.459666118211397,0.1321373910127332,0.10428701338619245,0,learn,,,
,html-keyboard-response,471,1048194,0.0-247.0-1.0,null,,,<p></p>,null,,,,,,,,,,,,,,
,do_trial,472,1050752,0.0-248.0-0.0,55.5,,,,,,49,1,0,0,4,countryside,188,0.5680585353351838,0.11331842180294055,0.14420110141066253,1,learn,,,
,html-keyboard-response,473,1051753,0.0-248.0-1.0,null,,,<p></p>,null,,,,,,,,,,,,,,
,do_trial,474,1054497,0.0-249.0-0.0,240.79999995231628,,,,,,49,1,1,0,4,countryside,189,0.5405207943014891,0.2867982484021303,0.23594283989808276,1,learn,,,
,html-keyboard-response,475,1055500,0.0-249.0-1.0,null,,,<p></p>,null,,,,,,,,,,,,,,
,do_bye,476,1057002,0.0-250.0-0.0,null,,,,,,null,,,,,,,,,,,,
,do_travel,477,1066004,0.0-251.0-0.0,null,,,,,,null,,,,,,,,,,,,
,do_welcome,478,1070013,0.0-251.0-1.0,null,,,,,,null,,,,,,,,,,,,
,do_trial,479,1072975,0.0-252.0-0.0,459.7000000476837,,,,,,51,1,1,0,5,city,190,1,0.2829952456978932,0.10756394941075809,0,learn,,,
,html-keyboard-response,480,1073976,0.0-252.0-1.0,null,,,<p></p>,null,,,,,,,,,,,,,,
,do_trial,481,1076575,0.0-253.0-0.0,96.29999995231628,,,,,,50,1,0,0,5,city,191,1,0.24384773218582492,0.26127562540473526,0,learn,,,
,html-keyboard-response,482,1077577,0.0-253.0-1.0,null,,,<p></p>,null,,,,,,,,,,,,,,
,do_trial,483,1080256,0.0-254.0-0.0,175.40000009536743,,,,,,49,1,1,0,5,city,192,0.8119830779691369,0.2177362549870805,0.1617980079361808,1,learn,,,
,html-keyboard-response,484,1081258,0.0-254.0-1.0,null,,,<p></p>,null,,,,,,,,,,,,,,
,do_trial,485,1083800,0.0-255.0-0.0,39.5,,,,,,49,1,0,0,5,city,193,0.777385808974405,0.25166575849362544,0.154108439514331,1,learn,,,
,html-keyboard-response,486,1084802,0.0-255.0-1.0,null,,,<p></p>,null,,,,,,,,,,,,,,
,do_trial,487,1087599,0.0-256.0-0.0,294.90000009536743,,,,,,50,0,1,1,5,city,194,0.7656089702149343,0.32313450341242694,0.08108613397895663,1,learn,,,
,html-keyboard-response,488,1088601,0.0-256.0-1.0,null,,,<p></p>,null,,,,,,,,,,,,,,
,do_trial,489,1091504,0.0-257.0-0.0,400.2999999523163,,,,,,51,1,0,0,5,city,195,0.7403510862392877,0.31313463579891865,0.2207609782331297,0,learn,,,
,html-keyboard-response,490,1092506,0.0-257.0-1.0,null,,,<p></p>,null,,,,,,,,,,,,,,
,do_trial,491,1095120,0.0-258.0-0.0,111.69999980926514,,,,,,50,1,0,0,5,city,196,0.6823651709502384,0.4062716156653159,0.08705552499554708,0,learn,,,
,html-keyboard-response,492,1096122,0.0-258.0-1.0,null,,,<p></p>,null,,,,,,,,,,,,,,
,do_trial,493,1098687,0.0-259.0-0.0,62.700000047683716,,,,,,51,1,0,0,5,city,197,0.6687848029849782,0.2988381387263094,0.07393551549898396,0,learn,,,
,html-keyboard-response,494,1099689,0.0-259.0-1.0,null,,,<p></p>,null,,,,,,,,,,,,,,
,do_trial,495,1102944,0.0-260.0-0.0,752.0999999046326,,,,,,49,1,0,0,5,city,198,0.6007214920412475,0.31420606811923374,0.05167574396261267,1,learn,,,
,html-keyboard-response,496,1103946,0.0-260.0-1.0,null,,,<p></p>,null,,,,,,,,,,,,,,
,do_trial,497,1106624,0.0-261.0-0.0,175.20000004768372,,,,,,49,1,0,0,5,city,199,0.5542787337592118,0.12956128515052895,0.17742392212628474,1,learn,,,
,html-keyboard-response,498,1107625,0.0-261.0-1.0,null,,,<p></p>,null,,,,,,,,,,,,,,
,do_trial,499,1110336,0.0-262.0-0.0,207.60000014305115,,,,,,49,1,1,0,5,city,200,0.5490940365769649,0.1336866725202389,0.20248042382530299,1,learn,,,
,html-keyboard-response,500,1111337,0.0-262.0-1.0,null,,,<p></p>,null,,,,,,,,,,,,,,
,do_trial,501,1113944,0.0-263.0-0.0,104,,,,,,49,0,0,0,5,city,201,0.43973285176889354,0.18684610735435983,0.3007834179145328,0,learn,,,
,html-keyboard-response,502,1114945,0.0-263.0-1.0,null,,,<p></p>,null,,,,,,,,,,,,,,
,do_trial,503,1117616,0.0-264.0-0.0,167.5,,,,,,49,1,0,1,5,city,202,0.458105633529044,0.20756339891237433,0.5260785738288538,1,learn,,,
,html-keyboard-response,504,1118632,0.0-264.0-1.0,null,,,<p></p>,null,,,,,,,,,,,,,,
,do_trial,505,1121208,0.0-265.0-0.0,73.09999990463257,,,,,,49,1,0,1,5,city,203,0.43655489217009014,0.22863892800924585,0.5789850645916091,1,learn,,,
,html-keyboard-response,506,1122209,0.0-265.0-1.0,null,,,<p></p>,null,,,,,,,,,,,,,,
,do_trial,507,1124896,0.0-266.0-0.0,183.59999990463257,,,,,,49,1,0,0,5,city,204,0.2625706104230065,0.15759366293685248,0.5407483457971679,1,learn,,,
,html-keyboard-response,508,1125897,0.0-266.0-1.0,null,,,<p></p>,null,,,,,,,,,,,,,,
,do_trial,509,1128616,0.0-267.0-0.0,216.60000014305115,,,,,,49,1,0,1,5,city,205,0.2844917604766342,0.1707076199353999,0.6705691293106177,1,learn,,,
,html-keyboard-response,510,1129618,0.0-267.0-1.0,null,,,<p></p>,null,,,,,,,,,,,,,,
,do_trial,511,1132393,0.0-268.0-0.0,270.90000009536743,,,,,,49,1,0,1,5,city,206,0.3474050623402659,0.050244802943106334,0.681388770308713,1,learn,,,
,html-keyboard-response,512,1133395,0.0-268.0-1.0,null,,,<p></p>,null,,,,,,,,,,,,,,
,do_trial,513,1135909,0.0-269.0-0.0,0.20000004768371582,,,,,,49,1,1,1,5,city,207,0.28187619524799074,0.14580646682119075,0.6345202382863535,1,learn,,,
,html-keyboard-response,514,1136910,0.0-269.0-1.0,null,,,<p></p>,null,,,,,,,,,,,,,,
,do_trial,515,1139457,0.0-270.0-0.0,43.09999990463257,,,,,,49,0,0,1,5,city,208,0.21952571391483755,0.07117952776276258,0.496565332091766,0,learn,,,
,html-keyboard-response,516,1140459,0.0-270.0-1.0,null,,,<p></p>,null,,,,,,,,,,,,,,
,do_trial,517,1143009,0.0-271.0-0.0,45.90000009536743,,,,,,50,0,0,1,5,city,209,0.22855545827140994,0.10126807141436293,0.5675245850275166,0,learn,,,
,html-keyboard-response,518,1144011,0.0-271.0-1.0,null,,,<p></p>,null,,,,,,,,,,,,,,
,do_trial,519,1146679,0.0-272.0-0.0,165.59999990463257,,,,,,51,0,0,1,5,city,210,0.1200968889450381,0.24364092402724935,0.5193129457939851,1,learn,,,
,html-keyboard-response,520,1147681,0.0-272.0-1.0,null,,,<p></p>,null,,,,,,,,,,,,,,
,do_trial,521,1150232,0.0-273.0-0.0,48.40000009536743,,,,,,51,0,0,1,5,city,211,0.20714305454547433,0.1292841107568318,0.44457664147360193,1,learn,,,
,html-keyboard-response,522,1151234,0.0-273.0-1.0,null,,,<p></p>,null,,,,,,,,,,,,,,
,do_trial,523,1153983,0.0-274.0-0.0,246.59999990463257,,,,,,51,0,0,1,5,city,212,0.21193647278465272,0.13679301145739792,0.5142595386860764,1,learn,,,
,html-keyboard-response,524,1154985,0.0-274.0-1.0,null,,,<p></p>,null,,,,,,,,,,,,,,
,do_trial,525,1157512,0.0-275.0-0.0,23.5,,,,,,51,0,0,1,5,city,213,0.21583078335113828,0.14557596945241197,0.5279543773963618,1,learn,,,
,html-keyboard-response,526,1158515,0.0-275.0-1.0,null,,,<p></p>,null,,,,,,,,,,,,,,
,do_trial,527,1161169,0.0-276.0-0.0,150.90000009536743,,,,,,51,0,0,1,5,city,214,0.28005777003908205,0.266886660537842,0.6150457138489664,1,learn,,,
,html-keyboard-response,528,1162171,0.0-276.0-1.0,null,,,<p></p>,null,,,,,,,,,,,,,,
,do_trial,529,1164849,0.0-277.0-0.0,173.89999985694885,,,,,,51,1,0,1,5,city,215,0.3552994389800809,0.1771676177028063,0.63879715837577,1,learn,,,
,html-keyboard-response,530,1165850,0.0-277.0-1.0,null,,,<p></p>,null,,,,,,,,,,,,,,
,do_trial,531,1168552,0.0-278.0-0.0,199.20000004768372,,,,,,51,0,0,1,5,city,216,0.2945947302094441,0.09532699779353074,0.5963018698785374,1,learn,,,
,html-keyboard-response,532,1169554,0.0-278.0-1.0,null,,,<p></p>,null,,,,,,,,,,,,,,
,do_trial,533,1172097,0.0-279.0-0.0,39.10000014305115,,,,,,51,1,0,0,5,city,217,0.23671270317901866,0.1547223259130033,0.596985722314002,0,learn,,,
,html-keyboard-response,534,1173099,0.0-279.0-1.0,null,,,<p></p>,null,,,,,,,,,,,,,,
,do_trial,535,1175800,0.0-280.0-0.0,197.59999990463257,,,,,,50,0,0,1,5,city,218,0.3237598038719521,0.12169454599571866,0.7013952596296568,0,learn,,,
,html-keyboard-response,536,1176801,0.0-280.0-1.0,null,,,<p></p>,null,,,,,,,,,,,,,,
,do_trial,537,1179312,0.0-281.0-0.0,8,,,,,,49,0,1,1,5,city,219,0.16644673215523795,0.11805021802863913,0.6926814109902597,0,learn,,,
,html-keyboard-response,538,1180314,0.0-281.0-1.0,null,,,<p></p>,null,,,,,,,,,,,,,,
,do_trial,539,1182919,0.0-282.0-0.0,103.09999990463257,,,,,,51,0,0,1,5,city,220,0.18873685382446836,0.08702952677575702,0.6748818627562342,1,learn,,,
,html-keyboard-response,540,1183921,0.0-282.0-1.0,null,,,<p></p>,null,,,,,,,,,,,,,,
,do_trial,541,1186456,0.0-283.0-0.0,32.09999990463257,,,,,,51,0,0,0,5,city,221,0.42589163366045674,0.1379159828086099,0.6011855382176797,0,learn,,,
,html-keyboard-response,542,1187458,0.0-283.0-1.0,null,,,<p></p>,null,,,,,,,,,,,,,,
,do_trial,543,1190023,0.0-284.0-0.0,63.09999990463257,,,,,,51,1,0,1,5,city,222,0.5382103571601249,0.21991507529193363,0.6882598792679747,1,learn,,,
,html-keyboard-response,544,1191025,0.0-284.0-1.0,null,,,<p></p>,null,,,,,,,,,,,,,,
,do_trial,545,1193591,0.0-285.0-0.0,63,,,,,,51,1,0,1,5,city,223,0.2981734586204891,0.2883832329485053,0.7249020024403073,1,learn,,,
,html-keyboard-response,546,1194593,0.0-285.0-1.0,null,,,<p></p>,null,,,,,,,,,,,,,,
,do_trial,547,1197112,0.0-286.0-0.0,16.399999856948853,,,,,,51,1,0,1,5,city,224,0.23868910578388453,0.3566379618833126,0.6353249884296649,1,learn,,,
,html-keyboard-response,548,1198113,0.0-286.0-1.0,null,,,<p></p>,null,,,,,,,,,,,,,,
,do_trial,549,1200632,0.0-287.0-0.0,15.899999856948853,,,,,,51,0,0,1,5,city,225,0.2735843446096389,0.16198797348864857,0.6274218725794395,1,learn,,,
,html-keyboard-response,550,1201633,0.0-287.0-1.0,null,,,<p></p>,null,,,,,,,,,,,,,,
,do_trial,551,1204289,0.0-288.0-0.0,152.59999990463257,,,,,,51,0,1,1,5,city,226,0.3224867187742641,0.07598051699574193,0.5149632412816947,1,learn,,,
,html-keyboard-response,552,1205290,0.0-288.0-1.0,null,,,<p></p>,null,,,,,,,,,,,,,,
,do_trial,553,1207904,0.0-289.0-0.0,110.29999995231628,,,,,,51,0,0,0,5,city,227,0.37228442531985223,0.06419271346055896,0.5802258595744517,0,learn,,,
,html-keyboard-response,554,1208905,0.0-289.0-1.0,null,,,<p></p>,null,,,,,,,,,,,,,,
,do_trial,555,1211416,0.0-290.0-0.0,7.3999998569488525,,,,,,51,0,0,0,5,city,228,0.32923240049593155,0.09634564202206257,0.5873349060654752,0,learn,,,
,html-keyboard-response,556,1212417,0.0-290.0-1.0,null,,,<p></p>,null,,,,,,,,,,,,,,
,do_trial,557,1214952,0.0-291.0-0.0,31.899999856948853,,,,,,49,0,0,1,5,city,229,0.1719663994152233,0.12514301959833507,0.6910657121177429,0,learn,,,
,html-keyboard-response,558,1215953,0.0-291.0-1.0,null,,,<p></p>,null,,,,,,,,,,,,,,
,do_bye,559,1217456,0.0-292.0-0.0,null,,,,,,null,,,,,,,,,,,,
,html-keyboard-response,560,1218883,0.0-292.0-1.0,1426.6000001430511,,,<div class=center><p>Nice job plundering!</p><p>Press <b>space</b> to head back to pirate HQ.</p></div>,32,,,,,,,,,,,,,,
,html-keyboard-response,561,1230531,0.0-293.0-0.0,11645,,,<div class=center><p>We have to sail past the islands again to get back to pirate HQ. We've just got wind that there is a huge storm approaching, so while we are going to stop at each island, we won't have time to see if our plunders are successful or not.</p><p>Press <b>space</b> to continue.</p></div>,32,,,,,,,,,,,,,,
,judgement_attention_check,562,1233643,0.0-294.0-0.0,3110.7999999523163,,,<div class='center'><p>Press <b>Z</b> to use the telescope to see what island is coming next!</p></div>,90,,,,,,,,,,,,0,true,
,do_welcome,563,1238646,0.0-294.0-1.0,null,,,,,,null,,,,,,,,,,,,
,do_trial,564,1243729,0.0-295.0-0.0,579.1999998092651,,,,,,49,0,1,0,0,coast,230,,,,0,judgement,,,
,html-keyboard-response,565,1244730,0.0-295.0-1.0,null,,,<p></p>,null,,,,,,,,,,,,,,
,do_trial,566,1249320,0.0-296.0-0.0,87.80000019073486,,,,,,49,0,1,0,0,coast,231,,,,0,judgement,,,
,html-keyboard-response,567,1250322,0.0-296.0-1.0,null,,,<p></p>,null,,,,,,,,,,,,,,
,do_trial,568,1254912,0.0-297.0-0.0,87,,,,,,49,0,1,1,0,coast,232,,,,0,judgement,,,
,html-keyboard-response,569,1255913,0.0-297.0-1.0,null,,,<p></p>,null,,,,,,,,,,,,,,
,do_trial,570,1260608,0.0-298.0-0.0,192.5,,,,,,49,1,1,0,0,coast,233,,,,1,judgement,,,
,html-keyboard-response,571,1261609,0.0-298.0-1.0,null,,,<p></p>,null,,,,,,,,,,,,,,
,do_trial,572,1266287,0.0-299.0-0.0,174.60000014305115,,,,,,49,1,0,1,0,coast,234,,,,1,judgement,,,
,html-keyboard-response,573,1267300,0.0-299.0-1.0,null,,,<p></p>,null,,,,,,,,,,,,,,
,html-keyboard-response,574,1267302,0.0-300.0-0.0,null,,,,null,,,,,,,,,,,,,,
,judgement_attention_check,575,1269163,0.0-301.0-0.0,1860,,,<div class='center'><p>Press <b>Z</b> to use the telescope to see what island is coming next!</p></div>,90,,,,,,,,,,,,1,true,
,do_welcome,576,1274166,0.0-301.0-1.0,null,,,,,,null,,,,,,,,,,,,
,do_trial,577,1279072,0.0-302.0-0.0,402.2000000476837,,,,,,49,0,1,1,1,forest,235,,,,0,judgement,,,
,html-keyboard-response,578,1280074,0.0-302.0-1.0,null,,,<p></p>,null,,,,,,,,,,,,,,
,do_trial,579,1284623,0.0-303.0-0.0,46.90000009536743,,,,,,49,0,0,1,1,forest,236,,,,0,judgement,,,
,html-keyboard-response,580,1285625,0.0-303.0-1.0,null,,,<p></p>,null,,,,,,,,,,,,,,
,do_trial,581,1290176,0.0-304.0-0.0,48,,,,,,49,0,0,1,1,forest,237,,,,0,judgement,,,
,html-keyboard-response,582,1291177,0.0-304.0-1.0,null,,,<p></p>,null,,,,,,,,,,,,,,
,do_trial,583,1295769,0.0-305.0-0.0,88.39999985694885,,,,,,49,0,1,0,1,forest,238,,,,0,judgement,,,
,html-keyboard-response,584,1296770,0.0-305.0-1.0,null,,,<p></p>,null,,,,,,,,,,,,,,
,do_trial,585,1301465,0.0-306.0-0.0,191.5,,,,,,49,0,0,0,1,forest,239,,,,0,judgement,,,
,html-keyboard-response,586,1302465,0.0-306.0-1.0,null,,,<p></p>,null,,,,,,,,,,,,,,
,html-keyboard-response,587,1302466,0.0-307.0-0.0,null,,,,null,,,,,,,,,,,,,,
,judgement_attention_check,588,1303547,0.0-308.0-0.0,1079.8999998569489,,,<div class='center'><p>Press <b>Z</b> to use the telescope to see what island is coming next!</p></div>,90,,,,,,,,,,,,2,true,
,do_welcome,589,1308550,0.0-308.0-1.0,null,,,,,,null,,,,,,,,,,,,
,do_trial,590,1313056,0.0-309.0-0.0,2.3000001907348633,,,,,,50,0,0,1,2,highway,240,,,,0,judgement,,,
,html-keyboard-response,591,1314058,0.0-309.0-1.0,null,,,<p></p>,null,,,,,,,,,,,,,,
,do_trial,592,1318640,0.0-310.0-0.0,80.19999980926514,,,,,,50,0,0,0,2,highway,241,,,,0,judgement,,,
,html-keyboard-response,593,1319642,0.0-310.0-1.0,null,,,<p></p>,null,,,,,,,,,,,,,,
,do_trial,594,1324216,0.0-311.0-0.0,72.09999990463257,,,,,,50,0,0,1,2,highway,242,,,,0,judgement,,,
,html-keyboard-response,595,1325217,0.0-311.0-1.0,null,,,<p></p>,null,,,,,,,,,,,,,,
,do_trial,596,1329736,0.0-312.0-0.0,15.5,,,,,,50,0,0,0,2,highway,243,,,,0,judgement,,,
,html-keyboard-response,597,1330737,0.0-312.0-1.0,null,,,<p></p>,null,,,,,,,,,,,,,,
,do_trial,598,1335327,0.0-313.0-0.0,87.70000004768372,,,,,,50,1,0,0,2,highway,244,,,,0,judgement,,,
,html-keyboard-response,599,1336338,0.0-313.0-1.0,null,,,<p></p>,null,,,,,,,,,,,,,,
,html-keyboard-response,600,1336339,0.0-314.0-0.0,null,,,,null,,,,,,,,,,,,,,
,judgement_attention_check,601,1337482,0.0-315.0-0.0,1143.4000000953674,,,<div class='center'><p>Press <b>Z</b> to use the telescope to see what island is coming next!</p></div>,90,,,,,,,,,,,,3,true,
,do_welcome,602,1342486,0.0-315.0-1.0,null,,,,,,null,,,,,,,,,,,,
,do_trial,603,1347176,0.0-316.0-0.0,186.69999980926514,,,,,,50,0,0,0,3,mountain,245,,,,0,judgement,,,
,html-keyboard-response,604,1348178,0.0-316.0-1.0,null,,,<p></p>,null,,,,,,,,,,,,,,
,do_trial,605,1352841,0.0-317.0-0.0,158.90000009536743,,,,,,50,0,0,0,3,mountain,246,,,,0,judgement,,,
,html-keyboard-response,606,1353842,0.0-317.0-1.0,null,,,<p></p>,null,,,,,,,,,,,,,,
,do_trial,607,1358639,0.0-318.0-0.0,294.59999990463257,,,,,,50,1,0,0,3,mountain,247,,,,0,judgement,,,
,html-keyboard-response,608,1359641,0.0-318.0-1.0,null,,,<p></p>,null,,,,,,,,,,,,,,
,do_trial,609,1364225,0.0-319.0-0.0,80.60000014305115,,,,,,50,1,0,0,3,mountain,248,,,,0,judgement,,,
,html-keyboard-response,610,1365226,0.0-319.0-1.0,null,,,<p></p>,null,,,,,,,,,,,,,,
,do_trial,611,1369920,0.0-320.0-0.0,191.30000019073486,,,,,,50,0,0,1,3,mountain,249,,,,0,judgement,,,
,html-keyboard-response,612,1370921,0.0-320.0-1.0,null,,,<p></p>,null,,,,,,,,,,,,,,
,html-keyboard-response,613,1370923,0.0-321.0-0.0,null,,,,null,,,,,,,,,,,,,,
,judgement_attention_check,614,1372131,0.0-322.0-0.0,1207.1999998092651,,,<div class='center'><p>Press <b>Z</b> to use the telescope to see what island is coming next!</p></div>,90,,,,,,,,,,,,4,true,
,do_welcome,615,1377133,0.0-322.0-1.0,null,,,,,,null,,,,,,,,,,,,
,do_trial,616,1381920,0.0-323.0-0.0,283.59999990463257,,,,,,51,0,1,0,4,countryside,250,,,,0,judgement,,,
,html-keyboard-response,617,1382922,0.0-323.0-1.0,null,,,<p></p>,null,,,,,,,,,,,,,,
,do_trial,618,1387559,0.0-324.0-0.0,134.59999990463257,,,,,,50,0,0,0,4,countryside,251,,,,0,judgement,,,
,html-keyboard-response,619,1388561,0.0-324.0-1.0,null,,,<p></p>,null,,,,,,,,,,,,,,
,do_trial,620,1393144,0.0-325.0-0.0,79.79999995231628,,,,,,49,0,0,1,4,countryside,252,,,,0,judgement,,,
,html-keyboard-response,621,1394146,0.0-325.0-1.0,null,,,<p></p>,null,,,,,,,,,,,,,,
,do_trial,622,1398688,0.0-326.0-0.0,39.5,,,,,,49,1,0,1,4,countryside,253,,,,1,judgement,,,
,html-keyboard-response,623,1399691,0.0-326.0-1.0,null,,,<p></p>,null,,,,,,,,,,,,,,
,do_trial,624,1404280,0.0-327.0-0.0,86.40000009536743,,,,,,50,1,0,1,4,countryside,254,,,,0,judgement,,,
,html-keyboard-response,625,1405281,0.0-327.0-1.0,null,,,<p></p>,null,,,,,,,,,,,,,,
,html-keyboard-response,626,1405282,0.0-328.0-0.0,null,,,,null,,,,,,,,,,,,,,
,judgement_attention_check,627,1406683,0.0-329.0-0.0,1400.4000000953674,,,<div class='center'><p>Press <b>Z</b> to use the telescope to see what island is coming next!</p></div>,90,,,,,,,,,,,,5,true,
,do_welcome,628,1411697,0.0-329.0-1.0,null,,,,,,null,,,,,,,,,,,,
,do_trial,629,1416206,0.0-330.0-0.0,0.2999999523162842,,,,,,51,0,0,0,5,city,255,,,,0,judgement,,,
,html-keyboard-response,630,1417207,0.0-330.0-1.0,null,,,<p></p>,null,,,,,,,,,,,,,,
,do_trial,631,1421767,0.0-331.0-0.0,56.60000014305115,,,,,,51,0,0,0,5,city,256,,,,0,judgement,,,
,html-keyboard-response,632,1422768,0.0-331.0-1.0,null,,,<p></p>,null,,,,,,,,,,,,,,
,do_trial,633,1427271,0.0-332.0-0.0,0.2999999523162842,,,,,,51,0,1,0,5,city,257,,,,0,judgement,,,
,html-keyboard-response,634,1428273,0.0-332.0-1.0,null,,,<p></p>,null,,,,,,,,,,,,,,
,do_trial,635,1432848,0.0-333.0-0.0,72.20000004768372,,,,,,51,0,0,0,5,city,258,,,,0,judgement,,,
,html-keyboard-response,636,1433850,0.0-333.0-1.0,null,,,<p></p>,null,,,,,,,,,,,,,,
,do_trial,637,1438512,0.0-334.0-0.0,159.19999980926514,,,,,,51,1,1,0,5,city,259,,,,0,judgement,,,
,html-keyboard-response,638,1439514,0.0-334.0-1.0,null,,,<p></p>,null,,,,,,,,,,,,,,
,html-keyboard-response,639,1440747,0.0-335.0-0.0,1232.2000000476837,,,<div style='position: fixed; top: 0; left: 0; width: 100%; height: 100%; background-color: white; display: flex; align-items: center; justify-content: center;'><div><h2>We've made it to Pirate HQ!</h2><p>Press <b>space</b> to proceed.</p></div></div>,32,,,,,,,,,,,,,,
,do_pick_best_pirate,640,1444738,0.0-336.0-0.0,2972.5,,,,,,49,,0,,,,,,,,,,coast
,do_pick_secondBest_pirate,641,1447229,0.0-336.0-1.0,1485.5999999046326,,,,,,50,,0,,,,,,,,,,coast
,do_pick_best_pirate,642,1449269,0.0-337.0-0.0,1034.3000001907349,,,,,,49,,1,,,,,,,,,,forest
,do_pick_secondBest_pirate,643,1450684,0.0-337.0-1.0,410.39999985694885,,,,,,50,,1,,,,,,,,,,forest
,do_pick_best_pirate,644,1453596,0.0-338.0-0.0,1907.3999998569489,,,,,,50,,2,,,,,,,,,,highway
,do_pick_secondBest_pirate,645,1454908,0.0-338.0-1.0,307.2999999523163,,,,,,49,,2,,,,,,,,,,highway
,do_pick_best_pirate,646,1456645,0.0-339.0-0.0,732.0999999046326,,,,,,50,,3,,,,,,,,,,mountain
,do_pick_secondBest_pirate,647,1457989,0.0-339.0-1.0,338.5,,,,,,49,,3,,,,,,,,,,mountain
,do_pick_best_pirate,648,1460859,0.0-340.0-0.0,1866.1000001430511,,,,,,49,,4,,,,,,,,,,countryside
,do_pick_secondBest_pirate,649,1462131,0.0-340.0-1.0,266.60000014305115,,,,,,51,,4,,,,,,,,,,countryside
,do_pick_best_pirate,650,1463508,0.0-341.0-0.0,372.90000009536743,,,,,,51,,5,,,,,,,,,,city
,do_pick_secondBest_pirate,651,1464748,0.0-341.0-1.0,235,,,,,,49,,5,,,,,,,,,,city
