success,trial_type,trial_index,time_elapsed,internal_node_id,rt,responses,subject_id,stimulus,key_press,prompt,response,choice_outcomes,context_n,context_img_id,trial_n,pR_red,pR_white,pR_black,outcome,phase
true,fullscreen,0,9971,0.0-0.0,,,,,,,,,,,,,,,,
,survey-html-form,1,15192,0.0-1.0,5218.0999999940395,{worker_id:69cf2cd9f3697c337059c5c1},69cf2cd9f3697c337059c5c1,,,,,,,,,,,,,
,instruc1,2,17195,0.0-2.0,null,,69cf2cd9f3697c337059c5c1,<div class='center'><p>Welcome! This study will last ~30 minutes. After the instructions there will be a practice game and quiz to make sure you understand the task. Today you will be the head captain of a pirate ship traveling around the world to different islands. Here is an overview of what you will be doing:</p><br><p> 1. Try to find the most successful pirate on 6 different islands</p><p> 2. Recall which pirates did the best on each island</p><br><p>,null,<div class='center'><p>Welcome! This study will last ~30 minutes. After the instructions there will be a practice game and quiz to make sure you understand the task. Today you will be the head captain of a pirate ship traveling around the world to different islands. Here is an overview of what you will be doing:</p><br><p> 1. Try to find the most successful pirate on 6 different islands</p><p> 2. Recall which pirates did the best on each island</p><br><p>,,,,,,,,,,
,html-keyboard-response,3,33200,0.0-3.0,16002,,,<div class='center'><p>Welcome! This study will last ~30 minutes. After the instructions there will be a practice game and quiz to make sure you understand the task. Today you will be the head captain of a pirate ship traveling around the world to different islands. Here is an overview of what you will be doing:</p><br><p> 1. Try to find the most successful pirate on 6 different islands</p><p> 2. Recall which pirates did the best on each island</p><br><p><p><b>[Press the space bar to continue]</b></p></div>,32,,,,,,,,,,,
,instruc2,4,35201,0.0-4.0,null,,,<div class='center'><p>You are going to visit these 6 islands on your journey. You'll be able to see these islands from your ship.</p><p><img src='../static/images/contexts/all_contexts.png' height='500'></p></div>,null,<div class='center'><p>You are going to visit these 6 islands on your journey. You'll be able to see these islands from your ship.</p><p><img src='../static/images/contexts/all_contexts.png' height='500'></p></div>,,,,,,,,,,
,html-keyboard-response,5,47996,0.0-5.0,12793.699999988079,,,<div class='center'><p>You are going to visit these 6 islands on your journey. You'll be able to see these islands from your ship.</p><p><img src='../static/images/contexts/all_contexts.png' height='500'></p><p><b>[Press the space bar to continue]</b></p></div>,32,,,,,,,,,,,
,instruc4,6,50001,0.0-6.0,null,,,<div class='center'><p>As the head captain, you do not have to rob any ships yourself. Another pirate will be doing the robbing for you. First, you will choose a pirate to rob the next ship.</p><p><img src='../static/images/tutorial/pirates_all_crop.png' height='200'></p><p>Then, you'll see if the pirate successfully robbed the ship of their gold. If they were successful, then you'll get a stack of gold coins like this:</p><p><img src='../static/images/tutorial/reward.png' height='150'></p><p> If they were <b>not</b> successful, then you'll get no gold coins, and you'll see a big red x like this: </p><p><img src='../static/images/tutorial/reward_no.png' height='150'></p><p> How much bonus money you make is based on how many gold coins you collect.</p><div>,null,<div class='center'><p>As the head captain, you do not have to rob any ships yourself. Another pirate will be doing the robbing for you. First, you will choose a pirate to rob the next ship.</p><p><img src='../static/images/tutorial/pirates_all_crop.png' height='200'></p><p>Then, you'll see if the pirate successfully robbed the ship of their gold. If they were successful, then you'll get a stack of gold coins like this:</p><p><img src='../static/images/tutorial/reward.png' height='150'></p><p> If they were <b>not</b> successful, then you'll get no gold coins, and you'll see a big red x like this: </p><p><img src='../static/images/tutorial/reward_no.png' height='150'></p><p> How much bonus money you make is based on how many gold coins you collect.</p><div>,,,,,,,,,,
,html-keyboard-response,7,57215,0.0-7.0,7213.100000008941,,,<div class='center'><p>As the head captain, you do not have to rob any ships yourself. Another pirate will be doing the robbing for you. First, you will choose a pirate to rob the next ship.</p><p><img src='../static/images/tutorial/pirates_all_crop.png' height='200'></p><p>Then, you'll see if the pirate successfully robbed the ship of their gold. If they were successful, then you'll get a stack of gold coins like this:</p><p><img src='../static/images/tutorial/reward.png' height='150'></p><p> If they were <b>not</b> successful, then you'll get no gold coins, and you'll see a big red x like this: </p><p><img src='../static/images/tutorial/reward_no.png' height='150'></p><p> How much bonus money you make is based on how many gold coins you collect.</p><div><p><b>[Press the space bar to continue]</b></p></div>,32,,,,,,,,,,,
,instruc5,8,77404,0.0-8.0,20185.70000000298,,,<div class='center'><p>Even the most skilled pirate can not rob EVERY ship.</p><p> Some ships will have very strong protections against pirate attacks.</p><p> Blue beard, here, is very, very good at robbing ships, but he won't be successful every time he tries to rob one.</p><p> You can press the <b>'1'</b> key on the keyboard to choose him.</p><p> Try choosing him 10 times to see how often he succeeds at robbing a ship. </p><p><img src='../static/images/tutorial/blue.png' height='500'></p></div>,49,<div class='center'><p>Even the most skilled pirate can not rob EVERY ship.</p><p> Some ships will have very strong protections against pirate attacks.</p><p> Blue beard, here, is very, very good at robbing ships, but he won't be successful every time he tries to rob one.</p><p> You can press the <b>'1'</b> key on the keyboard to choose him.</p><p> Try choosing him 10 times to see how often he succeeds at robbing a ship. </p><p><img src='../static/images/tutorial/blue.png' height='500'></p></div>,,,,,,,,,,
,html-keyboard-response,9,78907,0.0-9.0,null,,,<div class='center'><p><img src='../static/images/tutorial/blue_win.png' height='500'></p></div>,null,,,,,,,,,,,
,html-keyboard-response,10,78935,0.0-10.0,26,,,<div class='center'><img src='../static/images/tutorial/blue.png' height='500'></p></div>,49,,,,,,,,,,,
,html-keyboard-response,11,80437,0.0-11.0,null,,,<div class='center'><p><img src='../static/images/tutorial/blue_win.png' height='500'></p></div>,null,,,,,,,,,,,
,html-keyboard-response,12,80440,0.0-12.0,2.0999999940395355,,,<div class='center'><img src='../static/images/tutorial/blue.png' height='500'></p></div>,49,,,,,,,,,,,
,html-keyboard-response,13,81941,0.0-13.0,null,,,<div class='center'><p><img src='../static/images/tutorial/blue_win.png' height='500'></p></div>,null,,,,,,,,,,,
,html-keyboard-response,14,82014,0.0-14.0,70.40000000596046,,,<div class='center'><img src='../static/images/tutorial/blue.png' height='500'></p></div>,49,,,,,,,,,,,
,html-keyboard-response,15,83516,0.0-15.0,null,,,<div class='center'><p><img src='../static/images/tutorial/blue_no_win.png' height='500'></p></div>,null,,,,,,,,,,,
,html-keyboard-response,16,88190,0.0-16.0,4672.5999999940395,,,<div class='center'><img src='../static/images/tutorial/blue.png' height='500'></p></div>,49,,,,,,,,,,,
,html-keyboard-response,17,89692,0.0-17.0,null,,,<div class='center'><p><img src='../static/images/tutorial/blue_win.png' height='500'></p></div>,null,,,,,,,,,,,
,html-keyboard-response,18,92254,0.0-18.0,2561.0999999940395,,,<div class='center'><img src='../static/images/tutorial/blue.png' height='500'></p></div>,49,,,,,,,,,,,
,html-keyboard-response,19,93756,0.0-19.0,null,,,<div class='center'><p><img src='../static/images/tutorial/blue_win.png' height='500'></p></div>,null,,,,,,,,,,,
,html-keyboard-response,20,94639,0.0-20.0,880.9000000059605,,,<div class='center'><img src='../static/images/tutorial/blue.png' height='500'></p></div>,49,,,,,,,,,,,
,html-keyboard-response,21,96141,0.0-21.0,null,,,<div class='center'><p><img src='../static/images/tutorial/blue_win.png' height='500'></p></div>,null,,,,,,,,,,,
,html-keyboard-response,22,96548,0.0-22.0,405.70000000298023,,,<div class='center'><img src='../static/images/tutorial/blue.png' height='500'></p></div>,49,,,,,,,,,,,
,html-keyboard-response,23,98050,0.0-23.0,null,,,<div class='center'><p><img src='../static/images/tutorial/blue_no_win.png' height='500'></p></div>,null,,,,,,,,,,,
,html-keyboard-response,24,99236,0.0-24.0,1185.2999999970198,,,<div class='center'><img src='../static/images/tutorial/blue.png' height='500'></p></div>,49,,,,,,,,,,,
,html-keyboard-response,25,100737,0.0-25.0,null,,,<div class='center'><p><img src='../static/images/tutorial/blue_win.png' height='500'></p></div>,null,,,,,,,,,,,
,html-keyboard-response,26,101661,0.0-26.0,922.2000000029802,,,<div class='center'><img src='../static/images/tutorial/blue.png' height='500'></p></div>,49,,,,,,,,,,,
,html-keyboard-response,27,103163,0.0-27.0,null,,,<div class='center'><p><img src='../static/images/tutorial/blue_win.png' height='500'></p></div>,null,,,,,,,,,,,
,instruc6,28,105165,0.0-28.0,null,,,<div class='center'><p> See, he succeeded in robbing the ships most of the time but not every time. </p></div>,null,<div class='center'><p> See, he succeeded in robbing the ships most of the time but not every time. </p></div>,,,,,,,,,,
,html-keyboard-response,29,108774,0.0-29.0,3607.1000000089407,,,<div class='center'><p> See, he succeeded in robbing the ships most of the time but not every time. </p><p><b>[Press the space bar to continue]</b></p></div>,32,,,,,,,,,,,
,html-keyboard-response,30,115171,0.0-30.0,6395.79999999702,,,<div class='center'><p>From these three pirates, you will get to choose which one you want to rob the next ship. <p>Press the <b>'1'</b> key on your keyboard to pick the pirate with the red beard.</p><p> Press <b>'2'</b> to pick the pirate with the white beard.</p><p> Press <b>'3'</b> to pick the pirate with the black beard.</p><p>Try picking a pirate now!</p><p><img src='../static/images/tutorial/all_pirates.png' height='500'></p></div>,51,,,,,,,,,,,
,html-keyboard-response,31,116648,0.0-31.0-0.0,1474.1000000089407,,,<div class='center'><p>Yay! This pirate succeeded in robbing the ship!</p><p><img src='../static/images/tutorial/black_win.png' height='500'></p><p><b>[Press the space bar to continue]</b></p></div>,32,,,,,,,,,,,
,html-keyboard-response,32,118438,0.0-31.0-1.0,1788.1000000089407,,,<div class='center'><p>Now try choosing another.</p><p><img src='../static/images/tutorial/all_pirates.png' height='500'></p></div>,51,,,,,,,,,,,
,html-keyboard-response,33,119383,0.0-32.0-0.0,942.7000000029802,,,<div class='center'><p>Oh no! This pirate did not succeed in robbing the ship.</p><p><img src='../static/images/tutorial/black_no_win.png' height='500'></p><p><b>[Press the space bar to continue]</b></p></div>,32,,,,,,,,,,,
,instruc9,34,121385,0.0-33.0-0.0,null,,,<div class='center'><p>If you don't make your choice fast enough, you'll have to wait a few seconds before you can make another one. </p><p><img src='../static/images/miscellaneous/hurry_up.png' height='500'></p></div>,null,<div class='center'><p>If you don't make your choice fast enough, you'll have to wait a few seconds before you can make another one. </p><p><img src='../static/images/miscellaneous/hurry_up.png' height='500'></p></div>,,,,,,,,,,
,html-keyboard-response,35,121626,0.0-33.0-1.0,238.80000001192093,,,<div class='center'><p>If you don't make your choice fast enough, you'll have to wait a few seconds before you can make another one. </p><p><img src='../static/images/miscellaneous/hurry_up.png' height='500'></p><p><b>[Press the space bar to continue]</b></p></div>,32,,,,,,,,,,,
,instruc11,36,123628,0.0-33.0-2.0,null,,,<div class='center'><p>How successful a pirate is at robbing ships will depend on the island you're on.</p><p> A pirate may have visited this island many times before and gained a lot of practice robbing ships there.</p><p>So, they're more likely to be successful than a pirate who has never visited the island before.</p></div>,null,<div class='center'><p>How successful a pirate is at robbing ships will depend on the island you're on.</p><p> A pirate may have visited this island many times before and gained a lot of practice robbing ships there.</p><p>So, they're more likely to be successful than a pirate who has never visited the island before.</p></div>,,,,,,,,,,
,html-keyboard-response,37,139502,0.0-33.0-3.0,15872.09999999404,,,<div class='center'><p>How successful a pirate is at robbing ships will depend on the island you're on.</p><p> A pirate may have visited this island many times before and gained a lot of practice robbing ships there.</p><p>So, they're more likely to be successful than a pirate who has never visited the island before.</p><p><b>[Press the space bar to continue]</b></p></div>,32,,,,,,,,,,,
,instruc12,38,141504,0.0-33.0-4.0,null,,,<div class='center'><p>How successful a pirate is at robbing ships can also change over the time spent on the island. </p><p> Ships may hear from islanders about the pirates coming and will improve their protections against the attack. This may make it harder to rob them.</p><p> Ships may also become lazy and weaken the strength of their protections. This may make it easier to rob them.</p><br><p>Things are always changing on the high seas! So, try your best to pay attention!</p><p><img src='../static/images/tutorial/contingency.png' height='500'></p></div>,null,<div class='center'><p>How successful a pirate is at robbing ships can also change over the time spent on the island. </p><p> Ships may hear from islanders about the pirates coming and will improve their protections against the attack. This may make it harder to rob them.</p><p> Ships may also become lazy and weaken the strength of their protections. This may make it easier to rob them.</p><br><p>Things are always changing on the high seas! So, try your best to pay attention!</p><p><img src='../static/images/tutorial/contingency.png' height='500'></p></div>,,,,,,,,,,
,html-keyboard-response,39,152435,0.0-33.0-5.0,10929.60000000894,,,<div class='center'><p>How successful a pirate is at robbing ships can also change over the time spent on the island. </p><p> Ships may hear from islanders about the pirates coming and will improve their protections against the attack. This may make it harder to rob them.</p><p> Ships may also become lazy and weaken the strength of their protections. This may make it easier to rob them.</p><br><p>Things are always changing on the high seas! So, try your best to pay attention!</p><p><img src='../static/images/tutorial/contingency.png' height='500'></p><p><b>[Press the space bar to continue]</b></p></div>,32,,,,,,,,,,,
,instruc13,40,154437,0.0-33.0-6.0,null,,,<div class='center'><p>Let's go over the instructions quickly again. You have one thing to do: </p><p><b>Pick the pirate who is the best at robbing ships on the current island.</b></p><p>The amount of bonus money you win depends on it.</p><br><p>Let's try a practice game. The game will start by showing you an island. Pick a pirate using the <b>1, 2, 3</b> keys on your keyboard to get it to try and rob one of the ships leaving the island.</p><p>This is just a practice game, so you're not playing for money.</p><p>Good luck! This game will be very difficult but try your best!</p></div>,null,<div class='center'><p>Let's go over the instructions quickly again. You have one thing to do: </p><p><b>Pick the pirate who is the best at robbing ships on the current island.</b></p><p>The amount of bonus money you win depends on it.</p><br><p>Let's try a practice game. The game will start by showing you an island. Pick a pirate using the <b>1, 2, 3</b> keys on your keyboard to get it to try and rob one of the ships leaving the island.</p><p>This is just a practice game, so you're not playing for money.</p><p>Good luck! This game will be very difficult but try your best!</p></div>,,,,,,,,,,
,html-keyboard-response,41,179422,0.0-33.0-7.0,24983.70000000298,,,<div class='center'><p>Let's go over the instructions quickly again. You have one thing to do: </p><p><b>Pick the pirate who is the best at robbing ships on the current island.</b></p><p>The amount of bonus money you win depends on it.</p><br><p>Let's try a practice game. The game will start by showing you an island. Pick a pirate using the <b>1, 2, 3</b> keys on your keyboard to get it to try and rob one of the ships leaving the island.</p><p>This is just a practice game, so you're not playing for money.</p><p>Good luck! This game will be very difficult but try your best!</p><p><b>[Press the space bar to continue]</b></p></div>,32,,,,,,,,,,,
,do_welcome,42,183436,0.0-33.0-8.0,null,,,,,,null,,,,,,,,,
,do_trial,43,189441,0.0-33.0-9.0,null,,,,,,null,1,0,0,,,,,,,,
,html-keyboard-response,44,190443,0.0-34.0-0.0,null,,,<p></p>,null,,,,,,,,,,,
,do_trial,45,193505,0.0-34.0-1.0,557.6999999880791,,,,,,50,1,0,0,,,,,,,,
,html-keyboard-response,46,194506,0.0-35.0-0.0,null,,,<p></p>,null,,,,,,,,,,,
,do_trial,47,197123,0.0-35.0-1.0,108.5,,,,,,49,1,1,0,,,,,,,,
,html-keyboard-response,48,198125,0.0-36.0-0.0,null,,,<p></p>,null,,,,,,,,,,,
,do_trial,49,201122,0.0-36.0-1.0,487.79999999701977,,,,,,51,1,0,1,,,,,,,,
,html-keyboard-response,50,202124,0.0-37.0-0.0,null,,,<p></p>,null,,,,,,,,,,,
,do_trial,51,205565,0.0-37.0-1.0,937.3000000119209,,,,,,49,0,1,0,,,,,,,,
,html-keyboard-response,52,206568,0.0-38.0-0.0,null,,,<p></p>,null,,,,,,,,,,,
,do_trial,53,209444,0.0-38.0-1.0,367.40000000596046,,,,,,49,1,0,0,,,,,,,,
,do_bye,54,210956,0.0-39.0-0.0,null,,,,,,null,,,,,,,,,
,do_travel,55,219960,0.0-39.0-1.0,null,,,,,,null,,,,,,,,,
,do_welcome,56,223965,0.0-39.0-2.0,null,,,,,,null,,,,,,,,,
,do_trial,57,227462,0.0-39.0-3.0,993.7999999970198,,,,,,51,1,0,0,,,,,,,,
,html-keyboard-response,58,228464,0.0-40.0-0.0,null,,,<p></p>,null,,,,,,,,,,,
,do_trial,59,231202,0.0-40.0-1.0,229.5,,,,,,49,1,0,1,,,,,,,,
,html-keyboard-response,60,232204,0.0-41.0-0.0,null,,,<p></p>,null,,,,,,,,,,,
,do_trial,61,234903,0.0-41.0-1.0,194.09999999403954,,,,,,50,1,1,0,,,,,,,,
,html-keyboard-response,62,235905,0.0-42.0-0.0,null,,,<p></p>,null,,,,,,,,,,,
,do_trial,63,238603,0.0-42.0-1.0,188.70000000298023,,,,,,49,0,0,1,,,,,,,,
,html-keyboard-response,64,239605,0.0-43.0-0.0,null,,,<p></p>,null,,,,,,,,,,,
,do_trial,65,242360,0.0-43.0-1.0,245.70000000298023,,,,,,51,1,0,1,,,,,,,,
,html-keyboard-response,66,246965,0.0-44.0-0.0,4603.600000008941,,,<div class='center'><p><img src='../static/images/tutorial/prac_best_pirate.png' height='500'></p></div>,49,,,,,,,,,,,
,html-keyboard-response,67,248890,0.0-45.0-0.0,1923,,,<div class='center'><p>That's correct! Red beard was the best.</p><p><b>[Press the space bar to continue]</b></p></div>,32,,,,,,,,,,,
,quiz_beginning,68,250892,0.0-45.0-1.0,null,,,<div class='center'><p>Good job on the practice game! Now, you will be asked some true or false questions to make sure you really understand the rules of the game.</p><p> Press <b>'1'</b> on the keyboard for true and press <b>'2'</b> for false.</p></div>,null,<div class='center'><p>Good job on the practice game! Now, you will be asked some true or false questions to make sure you really understand the rules of the game.</p><p> Press <b>'1'</b> on the keyboard for true and press <b>'2'</b> for false.</p></div>,,,,,,,,,,
,html-keyboard-response,69,259230,0.0-45.0-2.0,8336.29999999702,,,<div class='center'><p>You win bonus money by collecting gold coins.</p><p>Press 1 for true and press  2 for false.</p></div>,49,,,,,,,,,,,
,correct,70,261233,0.0-46.0-0.0,null,,,<div class='center'><p>That's correct!</p></div>,null,<div class='center'><p>That's correct!</p></div>,,,,,,,,,,
,html-keyboard-response,71,262872,0.0-46.0-1.0,1637.5,,,<div class='center'><p>That's correct!</p><p><b>[Press the space bar to continue]</b></p></div>,32,,,,,,,,,,,
,html-keyboard-response,72,269495,0.0-46.0-2.0,6622.399999991059,,,<div class='center'><p>The pirate who is the best at robbing ships when you first arrive on the island will definitely still be the best when you leave the island. </p><p>Press 1 for true and press  2 for false.</p></div>,49,,,,,,,,,,,
,q2_err,73,271496,0.0-47.0-0.0,null,,,<div class='center'><p>That’s incorrect. Which pirate is the best may change during your time on the island.</p></div>,null,<div class='center'><p>That’s incorrect. Which pirate is the best may change during your time on the island.</p></div>,,,,,,,,,,
,html-keyboard-response,74,275006,0.0-47.0-1.0,3508.2000000029802,,,<div class='center'><p>That’s incorrect. Which pirate is the best may change during your time on the island.</p><p><b>[Press the space bar to continue]</b></p></div>,32,,,,,,,,,,,
,html-keyboard-response,75,283966,0.0-47.0-2.0,8959.5,,,<div class='center'><p>The pirate who is the best at robbing ships on the first island will be the best on every other island.</p><p>Press 1 for true and press  2 for false.</p></div>,49,,,,,,,,,,,
,q3_err,76,285969,0.0-48.0-0.0,null,,,<div class='center'><p>That’s incorrect. How good a pirate is at robbing ships will change from island to island!</p></div>,null,<div class='center'><p>That’s incorrect. How good a pirate is at robbing ships will change from island to island!</p></div>,,,,,,,,,,
,html-keyboard-response,77,287596,0.0-48.0-1.0,1625.800000011921,,,<div class='center'><p>That’s incorrect. How good a pirate is at robbing ships will change from island to island!</p><p><b>[Press the space bar to continue]</b></p></div>,32,,,,,,,,,,,
,html-keyboard-response,78,291564,0.0-48.0-2.0,3967.300000011921,,,<div class='center'><p>You should remember the island where a pirate robbed a ship.</p><p>Press 1 for true and press  2 for false.</p></div>,49,,,,,,,,,,,
,correct,79,293566,0.0-49.0-0.0,null,,,<div class='center'><p>That's correct!</p></div>,null,<div class='center'><p>That's correct!</p></div>,,,,,,,,,,
,html-keyboard-response,80,294809,0.0-49.0-1.0,1241.7000000029802,,,<div class='center'><p>That's correct!</p><p><b>[Press the space bar to continue]</b></p></div>,32,,,,,,,,,,,
,q_all_err,81,296811,0.0-50.0-0.0,null,,,<div class='center'><p>Oops, you missed some questions. Now that you’ve heard the correct answers. Try the quiz again! </p></div>,null,<div class='center'><p>Oops, you missed some questions. Now that you’ve heard the correct answers. Try the quiz again! </p></div>,,,,,,,,,,
,html-keyboard-response,82,299089,0.0-50.0-1.0,2276.5,,,<div class='center'><p>Oops, you missed some questions. Now that you’ve heard the correct answers. Try the quiz again! </p><p><b>[Press the space bar to continue]</b></p></div>,32,,,,,,,,,,,
,html-keyboard-response,83,300761,0.0-50.0-2.0,1670.2999999970198,,,<div class='center'><p>You win bonus money by collecting gold coins.</p><p>Press 1 for true and press  2 for false.</p></div>,49,,,,,,,,,,,
,correct,84,302763,0.0-51.0-0.0,null,,,<div class='center'><p>That's correct!</p></div>,null,<div class='center'><p>That's correct!</p></div>,,,,,,,,,,
,html-keyboard-response,85,303725,0.0-51.0-1.0,960.7000000029802,,,<div class='center'><p>That's correct!</p><p><b>[Press the space bar to continue]</b></p></div>,32,,,,,,,,,,,
,html-keyboard-response,86,305635,0.0-51.0-2.0,1908.6000000089407,,,<div class='center'><p>The pirate who is the best at robbing ships when you first arrive on the island will definitely still be the best when you leave the island. </p><p>Press 1 for true and press  2 for false.</p></div>,50,,,,,,,,,,,
,correct,87,307637,0.0-52.0-0.0,null,,,<div class='center'><p>That's correct!</p></div>,null,<div class='center'><p>That's correct!</p></div>,,,,,,,,,,
,html-keyboard-response,88,308703,0.0-52.0-1.0,1064.8999999910593,,,<div class='center'><p>That's correct!</p><p><b>[Press the space bar to continue]</b></p></div>,32,,,,,,,,,,,
,html-keyboard-response,89,310800,0.0-52.0-2.0,2095.7999999970198,,,<div class='center'><p>The pirate who is the best at robbing ships on the first island will be the best on every other island.</p><p>Press 1 for true and press  2 for false.</p></div>,50,,,,,,,,,,,
,correct,90,312803,0.0-53.0-0.0,null,,,<div class='center'><p>That's correct!</p></div>,null,<div class='center'><p>That's correct!</p></div>,,,,,,,,,,
,html-keyboard-response,91,313446,0.0-53.0-1.0,642.2999999970198,,,<div class='center'><p>That's correct!</p><p><b>[Press the space bar to continue]</b></p></div>,32,,,,,,,,,,,
,html-keyboard-response,92,314814,0.0-53.0-2.0,1366.2000000029802,,,<div class='center'><p>You should remember the island where a pirate robbed a ship.</p><p>Press 1 for true and press  2 for false.</p></div>,49,,,,,,,,,,,
,correct,93,316837,0.0-54.0-0.0,null,,,<div class='center'><p>That's correct!</p></div>,null,<div class='center'><p>That's correct!</p></div>,,,,,,,,,,
,html-keyboard-response,94,317402,0.0-54.0-1.0,563.2000000029802,,,<div class='center'><p>That's correct!</p><p><b>[Press the space bar to continue]</b></p></div>,32,,,,,,,,,,,
,q_all_corr,95,319404,0.0-55.0-0.0,null,,,<div class='center'><p>Good job! You’re now ready to move on to the real game! Remember this game will be difficult but don't get discouraged and try your best!</p></div>,null,<div class='center'><p>Good job! You’re now ready to move on to the real game! Remember this game will be difficult but don't get discouraged and try your best!</p></div>,,,,,,,,,,
,html-keyboard-response,96,322937,0.0-55.0-1.0,3530.7999999970198,,,<div class='center'><p>Good job! You’re now ready to move on to the real game! Remember this game will be difficult but don't get discouraged and try your best!</p><p><b>[Press the space bar to continue]</b></p></div>,32,,,,,,,,,,,
,do_welcome,97,326971,0.0-56.0-0.0,null,,,,,,null,,,,,,,,,
,do_trial,98,330301,0.0-57.0-0.0,825.3999999910593,,,,,,49,0,0,0,0,coast,0,0.6,0.3,0.1,0,learn
,html-keyboard-response,99,331303,0.0-57.0-1.0,null,,,<p></p>,null,,,,,,,,,,,
,do_trial,100,334049,0.0-58.0-0.0,243.09999999403954,,,,,,51,1,0,0,0,coast,1,0.6583677850307121,0.4474209998810048,0.22414158117252825,0,learn
,html-keyboard-response,101,335051,0.0-58.0-1.0,null,,,<p></p>,null,,,,,,,,,,,
,do_trial,102,338098,0.0-59.0-0.0,537.7000000029802,,,,,,49,1,1,0,0,coast,2,0.6745912093760752,0.39573463140062176,0.29407768543758367,1,learn
,html-keyboard-response,103,339100,0.0-59.0-1.0,null,,,<p></p>,null,,,,,,,,,,,
,do_trial,104,341897,0.0-60.0-0.0,288.5,,,,,,50,1,0,0,0,coast,3,0.6063796903056013,0.31532345058440425,0.1999673970785306,0,learn
,html-keyboard-response,105,342900,0.0-60.0-1.0,null,,,<p></p>,null,,,,,,,,,,,
,do_trial,106,345739,0.0-61.0-0.0,329.69999998807907,,,,,,49,0,0,0,0,coast,4,0.524227569866964,0.17956633120794416,0.16620464666139487,0,learn
,html-keyboard-response,107,346741,0.0-61.0-1.0,null,,,<p></p>,null,,,,,,,,,,,
,do_trial,108,349459,0.0-62.0-0.0,209.5,,,,,,51,1,1,0,0,coast,5,0.5690399686295663,0.236597000690918,0.0953487258759986,0,learn
,html-keyboard-response,109,350461,0.0-62.0-1.0,null,,,<p></p>,null,,,,,,,,,,,
,do_trial,110,353291,0.0-63.0-0.0,325.30000001192093,,,,,,49,1,0,0,0,coast,6,0.6814897577278651,0.18366945800653445,0.07102658044603624,1,learn
,html-keyboard-response,111,354293,0.0-63.0-1.0,null,,,<p></p>,null,,,,,,,,,,,
,do_trial,112,357070,0.0-64.0-0.0,267.5,,,,,,50,0,1,1,0,coast,7,0.7743453402821194,0.28793998283987315,0.20769843755973352,1,learn
,html-keyboard-response,113,358072,0.0-64.0-1.0,null,,,<p></p>,null,,,,,,,,,,,
,do_trial,114,360821,0.0-65.0-0.0,240,,,,,,51,0,0,0,0,coast,8,0.578760870534259,0.24378730743968877,0.09267338226044053,0,learn
,html-keyboard-response,115,361824,0.0-65.0-1.0,null,,,<p></p>,null,,,,,,,,,,,
,do_trial,116,364672,0.0-66.0-0.0,338.59999999403954,,,,,,49,1,0,0,0,coast,9,0.5674252553516685,0.3338913301277939,0.11964678527641115,1,learn
,html-keyboard-response,117,365674,0.0-66.0-1.0,null,,,<p></p>,null,,,,,,,,,,,
,do_trial,118,368468,0.0-67.0-0.0,284.5,,,,,,49,0,0,0,0,coast,10,0.4566447323444233,0.42105918321680136,0.10182876579892124,0,learn
,html-keyboard-response,119,369470,0.0-67.0-1.0,null,,,<p></p>,null,,,,,,,,,,,
,do_trial,120,372155,0.0-68.0-0.0,176.90000000596046,,,,,,50,1,0,0,0,coast,11,0.5301775634107323,0.4841868027105637,0.13585616176967716,0,learn
,html-keyboard-response,121,373158,0.0-68.0-1.0,null,,,<p></p>,null,,,,,,,,,,,
,do_trial,122,375910,0.0-69.0-0.0,243.1000000089407,,,,,,49,0,1,0,0,coast,12,0.5325917688534961,0.3449171206706621,0.07350745042989731,0,learn
,html-keyboard-response,123,376912,0.0-69.0-1.0,null,,,<p></p>,null,,,,,,,,,,,
,do_trial,124,379646,0.0-70.0-0.0,229.5,,,,,,49,1,0,0,0,coast,13,0.5955323830639931,0.3216933958626998,0.11594488507898497,1,learn
,html-keyboard-response,125,380648,0.0-70.0-1.0,null,,,<p></p>,null,,,,,,,,,,,
,do_trial,126,383196,0.0-71.0-0.0,43.20000000298023,,,,,,51,0,1,0,0,coast,14,0.5106075732187143,0.3340421015034452,0.1064190785557304,0,learn
,html-keyboard-response,127,384198,0.0-71.0-1.0,null,,,<p></p>,null,,,,,,,,,,,
,do_trial,128,386922,0.0-72.0-0.0,215,,,,,,51,1,0,0,0,coast,15,0.5300623336817022,0.2953037627876489,0.07207586820290698,0,learn
,html-keyboard-response,129,387925,0.0-72.0-1.0,null,,,<p></p>,null,,,,,,,,,,,
,do_trial,130,390491,0.0-73.0-0.0,57.5,,,,,,50,0,0,0,0,coast,16,0.5301603207052017,0.23197714526512855,0.07776302570850888,0,learn
,html-keyboard-response,131,391494,0.0-73.0-1.0,null,,,<p></p>,null,,,,,,,,,,,
,do_trial,132,394348,0.0-74.0-0.0,345.20000000298023,,,,,,51,0,0,0,0,coast,17,0.5740293355886892,0.21063237040101024,0.10848738526924416,0,learn
,html-keyboard-response,133,395351,0.0-74.0-1.0,null,,,<p></p>,null,,,,,,,,,,,
,do_trial,134,397958,0.0-75.0-0.0,98.80000001192093,,,,,,49,0,0,0,0,coast,18,0.6272454386223884,0.2018931082983726,0.06451088447026168,0,learn
,html-keyboard-response,135,398961,0.0-75.0-1.0,null,,,<p></p>,null,,,,,,,,,,,
,do_trial,136,401769,0.0-76.0-0.0,301,,,,,,51,1,0,0,0,coast,19,0.5933272269400334,0.3296956755435251,0.12711310708955711,0,learn
,html-keyboard-response,137,402772,0.0-76.0-1.0,null,,,<p></p>,null,,,,,,,,,,,
,do_trial,138,405514,0.0-77.0-0.0,233.09999999403954,,,,,,51,1,0,0,0,coast,20,0.6545025089266764,0.40166098429649366,0.08802629654269058,0,learn
,html-keyboard-response,139,406516,0.0-77.0-1.0,null,,,<p></p>,null,,,,,,,,,,,
,do_trial,140,409263,0.0-78.0-0.0,238.20000000298023,,,,,,51,1,1,0,0,coast,21,0.52970719831387,0.34886512929053615,0.20803619121050965,0,learn
,html-keyboard-response,141,410266,0.0-78.0-1.0,null,,,<p></p>,null,,,,,,,,,,,
,do_trial,142,413052,0.0-79.0-0.0,276.59999999403954,,,,,,51,0,0,1,0,coast,22,0.5997943395347165,0.46162246237708304,0.06303969892936005,1,learn
,html-keyboard-response,143,414054,0.0-79.0-1.0,null,,,<p></p>,null,,,,,,,,,,,
,do_trial,144,416892,0.0-80.0-0.0,328.70000000298023,,,,,,49,1,0,0,0,coast,23,0.6016799225737135,0.41497821116976985,0.08752130225360474,1,learn
,html-keyboard-response,145,417894,0.0-80.0-1.0,null,,,<p></p>,null,,,,,,,,,,,
,do_trial,146,420874,0.0-81.0-0.0,471.5,,,,,,49,1,1,0,0,coast,24,0.5956887132080125,0.31795660137371207,0.13194769929571762,1,learn
,html-keyboard-response,147,421876,0.0-81.0-1.0,null,,,<p></p>,null,,,,,,,,,,,
,do_trial,148,424801,0.0-82.0-0.0,421,,,,,,51,1,0,0,0,coast,25,0.509127570296318,0.33519723730134937,0.1760944464540949,0,learn
,html-keyboard-response,149,425803,0.0-82.0-1.0,null,,,<p></p>,null,,,,,,,,,,,
,do_trial,150,428965,0.0-83.0-0.0,653.2999999970198,,,,,,50,0,1,0,0,coast,26,0.6047138718771959,0.19660284368339184,0.19645822058143672,1,learn
,html-keyboard-response,151,429967,0.0-83.0-1.0,null,,,<p></p>,null,,,,,,,,,,,
,do_trial,152,432876,0.0-84.0-0.0,402.79999999701977,,,,,,50,0,0,0,0,coast,27,0.6808363661903163,0.22218670396745674,0.18488285656414666,0,learn
,html-keyboard-response,153,433878,0.0-84.0-1.0,null,,,<p></p>,null,,,,,,,,,,,
,do_trial,154,436613,0.0-85.0-0.0,227,,,,,,51,1,1,0,0,coast,28,0.5518609661631912,0.32978889250087273,0.1235514842687779,0,learn
,html-keyboard-response,155,437615,0.0-85.0-1.0,null,,,<p></p>,null,,,,,,,,,,,
,do_trial,156,440397,0.0-86.0-0.0,273.6000000089407,,,,,,49,0,0,0,0,coast,29,0.43373674579931787,0.3314990230961008,0.22400380092172037,0,learn
,html-keyboard-response,157,441400,0.0-86.0-1.0,null,,,<p></p>,null,,,,,,,,,,,
,do_bye,158,442910,0.0-87.0-0.0,null,,,,,,null,,,,,,,,,
,do_travel,159,451917,0.0-88.0-0.0,null,,,,,,null,,,,,,,,,
