success,trial_type,trial_index,time_elapsed,internal_node_id,rt,responses,subject_id,stimulus,key_press,prompt,response,choice_outcomes,context_n,context_img_id,trial_n,pR_red,pR_white,pR_black,outcome,phase,island_num,passed
true,fullscreen,0,10973,0.0-0.0,,,,,,,,,,,,,,,,,,
,survey-html-form,1,17485,0.0-1.0,6509.5,{worker_id:69a3978e79ce47897123957a},69a3978e79ce47897123957a,,,,,,,,,,,,,,,
,instruc1,2,19486,0.0-2.0,null,,69a3978e79ce47897123957a,<div class='center'><p>Welcome! This study will last ~30 minutes. After the instructions there will be a practice game and quiz to make sure you understand the task. Today you will be the head captain of a pirate ship traveling around the world to different islands. Here is an overview of what you will be doing:</p><br><p> 1. Try to find the most successful pirate on 6 different islands</p><p> 2. Recall which pirates did the best on each island</p><br><p>,null,<div class='center'><p>Welcome! This study will last ~30 minutes. After the instructions there will be a practice game and quiz to make sure you understand the task. Today you will be the head captain of a pirate ship traveling around the world to different islands. Here is an overview of what you will be doing:</p><br><p> 1. Try to find the most successful pirate on 6 different islands</p><p> 2. Recall which pirates did the best on each island</p><br><p>,,,,,,,,,,,,
,html-keyboard-response,3,44941,0.0-3.0,25454,,,<div class='center'><p>Welcome! This study will last ~30 minutes. After the instructions there will be a practice game and quiz to make sure you understand the task. Today you will be the head captain of a pirate ship traveling around the world to different islands. Here is an overview of what you will be doing:</p><br><p> 1. Try to find the most successful pirate on 6 different islands</p><p> 2. Recall which pirates did the best on each island</p><br><p><p><b>[Press the space bar to continue]</b></p></div>,32,,,,,,,,,,,,,
,instruc2,4,46957,0.0-4.0,null,,,<div class='center'><p>You are going to visit these 6 islands on your journey. You'll be able to see these islands from your ship.</p><p><img src='../static/images/contexts/all_contexts.png' height='500'></p></div>,null,<div class='center'><p>You are going to visit these 6 islands on your journey. You'll be able to see these islands from your ship.</p><p><img src='../static/images/contexts/all_contexts.png' height='500'></p></div>,,,,,,,,,,,,
,html-keyboard-response,5,54040,0.0-5.0,7081.900000095367,,,<div class='center'><p>You are going to visit these 6 islands on your journey. You'll be able to see these islands from your ship.</p><p><img src='../static/images/contexts/all_contexts.png' height='500'></p><p><b>[Press the space bar to continue]</b></p></div>,32,,,,,,,,,,,,,
,instruc4,6,56051,0.0-6.0,null,,,<div class='center'><p>As the head captain, you do not have to rob any ships yourself. Another pirate will be doing the robbing for you. First, you will choose a pirate to rob the next ship.</p><p><img src='../static/images/tutorial/pirates_all_crop.png' height='200'></p><p>Then, you'll see if the pirate successfully robbed the ship of their gold. If they were successful, then you'll get a stack of gold coins like this:</p><p><img src='../static/images/tutorial/reward.png' height='150'></p><p> If they were <b>not</b> successful, then you'll get no gold coins, and you'll see a big red x like this: </p><p><img src='../static/images/tutorial/reward_no.png' height='150'></p><p> How much bonus money you make is based on how many gold coins you collect.</p><div>,null,<div class='center'><p>As the head captain, you do not have to rob any ships yourself. Another pirate will be doing the robbing for you. First, you will choose a pirate to rob the next ship.</p><p><img src='../static/images/tutorial/pirates_all_crop.png' height='200'></p><p>Then, you'll see if the pirate successfully robbed the ship of their gold. If they were successful, then you'll get a stack of gold coins like this:</p><p><img src='../static/images/tutorial/reward.png' height='150'></p><p> If they were <b>not</b> successful, then you'll get no gold coins, and you'll see a big red x like this: </p><p><img src='../static/images/tutorial/reward_no.png' height='150'></p><p> How much bonus money you make is based on how many gold coins you collect.</p><div>,,,,,,,,,,,,
,html-keyboard-response,7,71227,0.0-7.0,15174.400000095367,,,<div class='center'><p>As the head captain, you do not have to rob any ships yourself. Another pirate will be doing the robbing for you. First, you will choose a pirate to rob the next ship.</p><p><img src='../static/images/tutorial/pirates_all_crop.png' height='200'></p><p>Then, you'll see if the pirate successfully robbed the ship of their gold. If they were successful, then you'll get a stack of gold coins like this:</p><p><img src='../static/images/tutorial/reward.png' height='150'></p><p> If they were <b>not</b> successful, then you'll get no gold coins, and you'll see a big red x like this: </p><p><img src='../static/images/tutorial/reward_no.png' height='150'></p><p> How much bonus money you make is based on how many gold coins you collect.</p><div><p><b>[Press the space bar to continue]</b></p></div>,32,,,,,,,,,,,,,
,instruc5,8,88228,0.0-8.0,17000.200000047684,,,<div class='center'><p>Even the most skilled pirate can not rob EVERY ship.</p><p> Some ships will have very strong protections against pirate attacks.</p><p> Blue beard, here, is very, very good at robbing ships, but he won't be successful every time he tries to rob one.</p><p> You can press the <b>'1'</b> key on the keyboard to choose him.</p><p> Try choosing him 10 times to see how often he succeeds at robbing a ship. </p><p><img src='../static/images/tutorial/blue.png' height='500'></p></div>,49,<div class='center'><p>Even the most skilled pirate can not rob EVERY ship.</p><p> Some ships will have very strong protections against pirate attacks.</p><p> Blue beard, here, is very, very good at robbing ships, but he won't be successful every time he tries to rob one.</p><p> You can press the <b>'1'</b> key on the keyboard to choose him.</p><p> Try choosing him 10 times to see how often he succeeds at robbing a ship. </p><p><img src='../static/images/tutorial/blue.png' height='500'></p></div>,,,,,,,,,,,,
,html-keyboard-response,9,89729,0.0-9.0,null,,,<div class='center'><p><img src='../static/images/tutorial/blue_win.png' height='500'></p></div>,null,,,,,,,,,,,,,
,html-keyboard-response,10,89740,0.0-10.0,9.600000143051147,,,<div class='center'><img src='../static/images/tutorial/blue.png' height='500'></p></div>,49,,,,,,,,,,,,,
,html-keyboard-response,11,91249,0.0-11.0,null,,,<div class='center'><p><img src='../static/images/tutorial/blue_win.png' height='500'></p></div>,null,,,,,,,,,,,,,
,html-keyboard-response,12,92639,0.0-12.0,1388.8999998569489,,,<div class='center'><img src='../static/images/tutorial/blue.png' height='500'></p></div>,49,,,,,,,,,,,,,
,html-keyboard-response,13,94149,0.0-13.0,null,,,<div class='center'><p><img src='../static/images/tutorial/blue_win.png' height='500'></p></div>,null,,,,,,,,,,,,,
,html-keyboard-response,14,94550,0.0-14.0,400.2999999523163,,,<div class='center'><img src='../static/images/tutorial/blue.png' height='500'></p></div>,49,,,,,,,,,,,,,
,html-keyboard-response,15,96053,0.0-15.0,null,,,<div class='center'><p><img src='../static/images/tutorial/blue_no_win.png' height='500'></p></div>,null,,,,,,,,,,,,,
,html-keyboard-response,16,96447,0.0-16.0,392.40000009536743,,,<div class='center'><img src='../static/images/tutorial/blue.png' height='500'></p></div>,49,,,,,,,,,,,,,
,html-keyboard-response,17,97955,0.0-17.0,null,,,<div class='center'><p><img src='../static/images/tutorial/blue_win.png' height='500'></p></div>,null,,,,,,,,,,,,,
,html-keyboard-response,18,98470,0.0-18.0,513.0999999046326,,,<div class='center'><img src='../static/images/tutorial/blue.png' height='500'></p></div>,49,,,,,,,,,,,,,
,html-keyboard-response,19,99974,0.0-19.0,null,,,<div class='center'><p><img src='../static/images/tutorial/blue_win.png' height='500'></p></div>,null,,,,,,,,,,,,,
,html-keyboard-response,20,100272,0.0-20.0,296.69999980926514,,,<div class='center'><img src='../static/images/tutorial/blue.png' height='500'></p></div>,49,,,,,,,,,,,,,
,html-keyboard-response,21,101775,0.0-21.0,null,,,<div class='center'><p><img src='../static/images/tutorial/blue_win.png' height='500'></p></div>,null,,,,,,,,,,,,,
,html-keyboard-response,22,102108,0.0-22.0,331.59999990463257,,,<div class='center'><img src='../static/images/tutorial/blue.png' height='500'></p></div>,49,,,,,,,,,,,,,
,html-keyboard-response,23,103617,0.0-23.0,null,,,<div class='center'><p><img src='../static/images/tutorial/blue_no_win.png' height='500'></p></div>,null,,,,,,,,,,,,,
,html-keyboard-response,24,103961,0.0-24.0,343.5,,,<div class='center'><img src='../static/images/tutorial/blue.png' height='500'></p></div>,49,,,,,,,,,,,,,
,html-keyboard-response,25,105471,0.0-25.0,null,,,<div class='center'><p><img src='../static/images/tutorial/blue_win.png' height='500'></p></div>,null,,,,,,,,,,,,,
,html-keyboard-response,26,105841,0.0-26.0,368.7000000476837,,,<div class='center'><img src='../static/images/tutorial/blue.png' height='500'></p></div>,49,,,,,,,,,,,,,
,html-keyboard-response,27,107349,0.0-27.0,null,,,<div class='center'><p><img src='../static/images/tutorial/blue_win.png' height='500'></p></div>,null,,,,,,,,,,,,,
,instruc6,28,109353,0.0-28.0,null,,,<div class='center'><p> See, he succeeded in robbing the ships most of the time but not every time. </p></div>,null,<div class='center'><p> See, he succeeded in robbing the ships most of the time but not every time. </p></div>,,,,,,,,,,,,
,html-keyboard-response,29,111085,0.0-29.0,1731.0999999046326,,,<div class='center'><p> See, he succeeded in robbing the ships most of the time but not every time. </p><p><b>[Press the space bar to continue]</b></p></div>,32,,,,,,,,,,,,,
,html-keyboard-response,30,119974,0.0-30.0,8888.799999952316,,,<div class='center'><p>From these three pirates, you will get to choose which one you want to rob the next ship. <p>Press the <b>'1'</b> key on your keyboard to pick the pirate with the red beard.</p><p> Press <b>'2'</b> to pick the pirate with the white beard.</p><p> Press <b>'3'</b> to pick the pirate with the black beard.</p><p>Try picking a pirate now!</p><p><img src='../static/images/tutorial/all_pirates.png' height='500'></p></div>,51,,,,,,,,,,,,,
,html-keyboard-response,31,123512,0.0-31.0-0.0,3536.7999999523163,,,<div class='center'><p>Yay! This pirate succeeded in robbing the ship!</p><p><img src='../static/images/tutorial/black_win.png' height='500'></p><p><b>[Press the space bar to continue]</b></p></div>,32,,,,,,,,,,,,,
,html-keyboard-response,32,125990,0.0-31.0-1.0,2477.100000143051,,,<div class='center'><p>Now try choosing another.</p><p><img src='../static/images/tutorial/all_pirates.png' height='500'></p></div>,51,,,,,,,,,,,,,
,html-keyboard-response,33,127436,0.0-32.0-0.0,1444.6000001430511,,,<div class='center'><p>Oh no! This pirate did not succeed in robbing the ship.</p><p><img src='../static/images/tutorial/black_no_win.png' height='500'></p><p><b>[Press the space bar to continue]</b></p></div>,32,,,,,,,,,,,,,
,instruc9,34,129439,0.0-33.0-0.0,null,,,<div class='center'><p>If you don't make your choice fast enough, you'll have to wait a few seconds before you can make another one. </p><p><img src='../static/images/miscellaneous/hurry_up.png' height='500'></p></div>,null,<div class='center'><p>If you don't make your choice fast enough, you'll have to wait a few seconds before you can make another one. </p><p><img src='../static/images/miscellaneous/hurry_up.png' height='500'></p></div>,,,,,,,,,,,,
,html-keyboard-response,35,131129,0.0-33.0-1.0,1688.3999998569489,,,<div class='center'><p>If you don't make your choice fast enough, you'll have to wait a few seconds before you can make another one. </p><p><img src='../static/images/miscellaneous/hurry_up.png' height='500'></p><p><b>[Press the space bar to continue]</b></p></div>,32,,,,,,,,,,,,,
,instruc11,36,133136,0.0-33.0-2.0,null,,,<div class='center'><p>How successful a pirate is at robbing ships will depend on the island you're on.</p><p> A pirate may have visited this island many times before and gained a lot of practice robbing ships there.</p><p>So, they're more likely to be successful than a pirate who has never visited the island before.</p></div>,null,<div class='center'><p>How successful a pirate is at robbing ships will depend on the island you're on.</p><p> A pirate may have visited this island many times before and gained a lot of practice robbing ships there.</p><p>So, they're more likely to be successful than a pirate who has never visited the island before.</p></div>,,,,,,,,,,,,
,html-keyboard-response,37,145422,0.0-33.0-3.0,12285.400000095367,,,<div class='center'><p>How successful a pirate is at robbing ships will depend on the island you're on.</p><p> A pirate may have visited this island many times before and gained a lot of practice robbing ships there.</p><p>So, they're more likely to be successful than a pirate who has never visited the island before.</p><p><b>[Press the space bar to continue]</b></p></div>,32,,,,,,,,,,,,,
,instruc12,38,147424,0.0-33.0-4.0,null,,,<div class='center'><p>How successful a pirate is at robbing ships can also change over the time spent on the island. </p><p> Ships may hear from islanders about the pirates coming and will improve their protections against the attack. This may make it harder to rob them.</p><p> Ships may also become lazy and weaken the strength of their protections. This may make it easier to rob them.</p><br><p>Things are always changing on the high seas! So, try your best to pay attention!</p><p><img src='../static/images/tutorial/contingency.png' height='500'></p></div>,null,<div class='center'><p>How successful a pirate is at robbing ships can also change over the time spent on the island. </p><p> Ships may hear from islanders about the pirates coming and will improve their protections against the attack. This may make it harder to rob them.</p><p> Ships may also become lazy and weaken the strength of their protections. This may make it easier to rob them.</p><br><p>Things are always changing on the high seas! So, try your best to pay attention!</p><p><img src='../static/images/tutorial/contingency.png' height='500'></p></div>,,,,,,,,,,,,
,html-keyboard-response,39,160910,0.0-33.0-5.0,13484.5,,,<div class='center'><p>How successful a pirate is at robbing ships can also change over the time spent on the island. </p><p> Ships may hear from islanders about the pirates coming and will improve their protections against the attack. This may make it harder to rob them.</p><p> Ships may also become lazy and weaken the strength of their protections. This may make it easier to rob them.</p><br><p>Things are always changing on the high seas! So, try your best to pay attention!</p><p><img src='../static/images/tutorial/contingency.png' height='500'></p><p><b>[Press the space bar to continue]</b></p></div>,32,,,,,,,,,,,,,
,instruc13,40,162917,0.0-33.0-6.0,null,,,<div class='center'><p>Let's go over the instructions quickly again. You have one thing to do: </p><p><b>Pick the pirate who is the best at robbing ships on the current island.</b></p><p>The amount of bonus money you win depends on it.</p><br><p>Let's try a practice game. The game will start by showing you an island. Pick a pirate using the <b>1, 2, 3</b> keys on your keyboard to get it to try and rob one of the ships leaving the island.</p><p>This is just a practice game, so you're not playing for money.</p><p>Good luck! This game will be very difficult but try your best!</p></div>,null,<div class='center'><p>Let's go over the instructions quickly again. You have one thing to do: </p><p><b>Pick the pirate who is the best at robbing ships on the current island.</b></p><p>The amount of bonus money you win depends on it.</p><br><p>Let's try a practice game. The game will start by showing you an island. Pick a pirate using the <b>1, 2, 3</b> keys on your keyboard to get it to try and rob one of the ships leaving the island.</p><p>This is just a practice game, so you're not playing for money.</p><p>Good luck! This game will be very difficult but try your best!</p></div>,,,,,,,,,,,,
,html-keyboard-response,41,175808,0.0-33.0-7.0,12890,,,<div class='center'><p>Let's go over the instructions quickly again. You have one thing to do: </p><p><b>Pick the pirate who is the best at robbing ships on the current island.</b></p><p>The amount of bonus money you win depends on it.</p><br><p>Let's try a practice game. The game will start by showing you an island. Pick a pirate using the <b>1, 2, 3</b> keys on your keyboard to get it to try and rob one of the ships leaving the island.</p><p>This is just a practice game, so you're not playing for money.</p><p>Good luck! This game will be very difficult but try your best!</p><p><b>[Press the space bar to continue]</b></p></div>,32,,,,,,,,,,,,,
,do_welcome,42,179821,0.0-33.0-8.0,null,,,,,,null,,,,,,,,,,,
,do_trial,43,185845,0.0-33.0-9.0,null,,,,,,null,1,0,0,,,,,,,,,,
,html-keyboard-response,44,186848,0.0-34.0-0.0,null,,,<p></p>,null,,,,,,,,,,,,,
,do_trial,45,192856,0.0-34.0-1.0,null,,,,,,null,1,0,0,,,,,,,,,,
,html-keyboard-response,46,193860,0.0-35.0-0.0,null,,,<p></p>,null,,,,,,,,,,,,,
,do_trial,47,196762,0.0-35.0-1.0,388.89999985694885,,,,,,49,1,0,0,,,,,,,,,,
,html-keyboard-response,48,197765,0.0-36.0-0.0,null,,,<p></p>,null,,,,,,,,,,,,,
,do_trial,49,200835,0.0-36.0-1.0,567.2000000476837,,,,,,49,1,1,0,,,,,,,,,,
,html-keyboard-response,50,201844,0.0-37.0-0.0,null,,,<p></p>,null,,,,,,,,,,,,,
,do_trial,51,204681,0.0-37.0-1.0,330.39999985694885,,,,,,49,1,0,1,,,,,,,,,,
,html-keyboard-response,52,205691,0.0-38.0-0.0,null,,,<p></p>,null,,,,,,,,,,,,,
,do_trial,53,208451,0.0-38.0-1.0,252.70000004768372,,,,,,49,0,1,0,,,,,,,,,,
,html-keyboard-response,54,209462,0.0-39.0-0.0,null,,,<p></p>,null,,,,,,,,,,,,,
,do_trial,55,212243,0.0-39.0-1.0,270.2000000476837,,,,,,49,1,0,0,,,,,,,,,,
,do_bye,56,213749,0.0-40.0-0.0,null,,,,,,null,,,,,,,,,,,
,do_travel,57,222757,0.0-40.0-1.0,null,,,,,,null,,,,,,,,,,,
,do_welcome,58,226766,0.0-40.0-2.0,null,,,,,,null,,,,,,,,,,,
,do_trial,59,229671,0.0-40.0-3.0,398.5,,,,,,50,1,0,0,,,,,,,,,,
,html-keyboard-response,60,230675,0.0-41.0-0.0,null,,,<p></p>,null,,,,,,,,,,,,,
,do_trial,61,233570,0.0-41.0-1.0,387,,,,,,50,1,0,1,,,,,,,,,,
,html-keyboard-response,62,234581,0.0-42.0-0.0,null,,,<p></p>,null,,,,,,,,,,,,,
,do_trial,63,237325,0.0-42.0-1.0,236.40000009536743,,,,,,51,1,1,0,,,,,,,,,,
,html-keyboard-response,64,238335,0.0-43.0-0.0,null,,,<p></p>,null,,,,,,,,,,,,,
,do_trial,65,241068,0.0-43.0-1.0,223.40000009536743,,,,,,51,0,0,1,,,,,,,,,,
,html-keyboard-response,66,242073,0.0-44.0-0.0,null,,,<p></p>,null,,,,,,,,,,,,,
,do_trial,67,244834,0.0-44.0-1.0,254.20000004768372,,,,,,51,1,0,1,,,,,,,,,,
,html-keyboard-response,68,247989,0.0-45.0-0.0,3154,,,<div class='center'><p><img src='../static/images/tutorial/prac_best_pirate.png' height='500'></p></div>,49,,,,,,,,,,,,,
,html-keyboard-response,69,250519,0.0-46.0-0.0,2529.100000143051,,,<div class='center'><p>That's correct! Red beard was the best.</p><p><b>[Press the space bar to continue]</b></p></div>,32,,,,,,,,,,,,,
,quiz_beginning,70,252526,0.0-46.0-1.0,null,,,<div class='center'><p>Good job on the practice game! Now, you will be asked some true or false questions to make sure you really understand the rules of the game.</p><p> Press <b>'1'</b> on the keyboard for true and press <b>'2'</b> for false.</p></div>,null,<div class='center'><p>Good job on the practice game! Now, you will be asked some true or false questions to make sure you really understand the rules of the game.</p><p> Press <b>'1'</b> on the keyboard for true and press <b>'2'</b> for false.</p></div>,,,,,,,,,,,,
,html-keyboard-response,71,262552,0.0-46.0-2.0,10025,,,<div class='center'><p>You win bonus money by collecting gold coins.</p><p>Press 1 for true and press  2 for false.</p></div>,49,,,,,,,,,,,,,
,correct,72,264564,0.0-47.0-0.0,null,,,<div class='center'><p>That's correct!</p></div>,null,<div class='center'><p>That's correct!</p></div>,,,,,,,,,,,,
,html-keyboard-response,73,266103,0.0-47.0-1.0,1538.1000001430511,,,<div class='center'><p>That's correct!</p><p><b>[Press the space bar to continue]</b></p></div>,32,,,,,,,,,,,,,
,html-keyboard-response,74,273429,0.0-47.0-2.0,7325.200000047684,,,<div class='center'><p>The pirate who is the best at robbing ships when you first arrive on the island will definitely still be the best when you leave the island. </p><p>Press 1 for true and press  2 for false.</p></div>,50,,,,,,,,,,,,,
,correct,75,275433,0.0-48.0-0.0,null,,,<div class='center'><p>That's correct!</p></div>,null,<div class='center'><p>That's correct!</p></div>,,,,,,,,,,,,
,html-keyboard-response,76,276889,0.0-48.0-1.0,1455.3999998569489,,,<div class='center'><p>That's correct!</p><p><b>[Press the space bar to continue]</b></p></div>,32,,,,,,,,,,,,,
,html-keyboard-response,77,281374,0.0-48.0-2.0,4485.200000047684,,,<div class='center'><p>The pirate who is the best at robbing ships on the first island will be the best on every other island.</p><p>Press 1 for true and press  2 for false.</p></div>,50,,,,,,,,,,,,,
,correct,78,283383,0.0-49.0-0.0,null,,,<div class='center'><p>That's correct!</p></div>,null,<div class='center'><p>That's correct!</p></div>,,,,,,,,,,,,
,html-keyboard-response,79,284073,0.0-49.0-1.0,689.5,,,<div class='center'><p>That's correct!</p><p><b>[Press the space bar to continue]</b></p></div>,32,,,,,,,,,,,,,
,html-keyboard-response,80,288777,0.0-49.0-2.0,4702.700000047684,,,<div class='center'><p>You should remember the island where a pirate robbed a ship.</p><p>Press 1 for true and press  2 for false.</p></div>,49,,,,,,,,,,,,,
,correct,81,290793,0.0-50.0-0.0,null,,,<div class='center'><p>That's correct!</p></div>,null,<div class='center'><p>That's correct!</p></div>,,,,,,,,,,,,
,html-keyboard-response,82,291203,0.0-50.0-1.0,408.2999999523163,,,<div class='center'><p>That's correct!</p><p><b>[Press the space bar to continue]</b></p></div>,32,,,,,,,,,,,,,
,q_all_corr,83,293213,0.0-51.0-0.0,null,,,<div class='center'><p>Good job! You’re now ready to move on to the real game! Remember this game will be difficult but don't get discouraged and try your best!</p></div>,null,<div class='center'><p>Good job! You’re now ready to move on to the real game! Remember this game will be difficult but don't get discouraged and try your best!</p></div>,,,,,,,,,,,,
,html-keyboard-response,84,296685,0.0-51.0-1.0,3469.800000190735,,,<div class='center'><p>Good job! You’re now ready to move on to the real game! Remember this game will be difficult but don't get discouraged and try your best!</p><p><b>[Press the space bar to continue]</b></p></div>,32,,,,,,,,,,,,,
,do_welcome,85,300696,0.0-52.0-0.0,null,,,,,,null,,,,,,,,,,,
,do_trial,86,303766,0.0-53.0-0.0,565.9000000953674,,,,,,49,0,1,0,0,highway,0,0.6,0.3,0.1,0,learn,,
,html-keyboard-response,87,304775,0.0-53.0-1.0,null,,,<p></p>,null,,,,,,,,,,,,,
,do_trial,88,307551,0.0-54.0-0.0,259,,,,,,50,0,0,0,0,highway,1,0.6331504740689932,0.29873505783255017,0.22779558986830994,0,learn,,
,html-keyboard-response,89,308558,0.0-54.0-1.0,null,,,<p></p>,null,,,,,,,,,,,,,
,do_trial,90,311372,0.0-55.0-0.0,309,,,,,,51,1,1,0,0,highway,2,0.6494877280505315,0.30493677055952023,0.20516536901146226,0,learn,,
,html-keyboard-response,91,312389,0.0-55.0-1.0,null,,,<p></p>,null,,,,,,,,,,,,,
,do_trial,92,315144,0.0-56.0-0.0,246.70000004768372,,,,,,49,0,1,0,0,highway,3,0.527150941815281,0.35555554402499995,0.052245804869600614,0,learn,,
,html-keyboard-response,93,316154,0.0-56.0-1.0,null,,,<p></p>,null,,,,,,,,,,,,,
,do_trial,94,318958,0.0-57.0-0.0,292.40000009536743,,,,,,50,0,0,0,0,highway,4,0.45799934602717585,0.30739781009785844,0.2581082326406678,0,learn,,
,html-keyboard-response,95,319966,0.0-57.0-1.0,null,,,<p></p>,null,,,,,,,,,,,,,
,do_trial,96,322779,0.0-58.0-0.0,300.59999990463257,,,,,,51,0,0,0,0,highway,5,0.48059397780203733,0.2685787054291755,0.09161192195646117,0,learn,,
,html-keyboard-response,97,323787,0.0-58.0-1.0,null,,,<p></p>,null,,,,,,,,,,,,,
,do_trial,98,326557,0.0-59.0-0.0,262.10000014305115,,,,,,49,1,0,0,0,highway,6,0.5225049459062088,0.22070498878423309,0.15435881447685287,1,learn,,
,html-keyboard-response,99,327567,0.0-59.0-1.0,null,,,<p></p>,null,,,,,,,,,,,,,
,do_trial,100,330788,0.0-60.0-0.0,714.3999998569489,,,,,,49,0,0,1,0,highway,7,0.4988709070647529,0.18652329978719281,0.07616787280746348,0,learn,,
,html-keyboard-response,101,331796,0.0-60.0-1.0,null,,,<p></p>,null,,,,,,,,,,,,,
,do_trial,102,334697,0.0-61.0-0.0,391.2000000476837,,,,,,49,1,0,0,0,highway,8,0.48252307349721885,0.307008924970165,0.17664522986046058,1,learn,,
,html-keyboard-response,103,335703,0.0-61.0-1.0,null,,,<p></p>,null,,,,,,,,,,,,,
,do_trial,104,338485,0.0-62.0-0.0,270.2000000476837,,,,,,49,0,0,0,0,highway,9,0.42666056792632306,0.23386412437435034,0.1587298430369174,0,learn,,
,html-keyboard-response,105,339488,0.0-62.0-1.0,null,,,<p></p>,null,,,,,,,,,,,,,
,do_trial,106,342268,0.0-63.0-0.0,266.59999990463257,,,,,,49,1,1,0,0,highway,10,0.5918930217704252,0.24763784862707525,0.08780575728062112,1,learn,,
,html-keyboard-response,107,343276,0.0-63.0-1.0,null,,,<p></p>,null,,,,,,,,,,,,,
,do_trial,108,346145,0.0-64.0-0.0,359.39999985694885,,,,,,49,1,1,0,0,highway,11,0.7162265956157577,0.18441780248795528,0.18320008377814567,1,learn,,
,html-keyboard-response,109,347147,0.0-64.0-1.0,null,,,<p></p>,null,,,,,,,,,,,,,
,do_trial,110,349933,0.0-65.0-0.0,271.2999999523163,,,,,,49,1,0,0,0,highway,12,0.7584693696061973,0.31954236843743394,0.09617580449890674,1,learn,,
,html-keyboard-response,111,350940,0.0-65.0-1.0,null,,,<p></p>,null,,,,,,,,,,,,,
,do_trial,112,353747,0.0-66.0-0.0,287.7999999523163,,,,,,49,0,1,0,0,highway,13,0.7812826055388914,0.29644479040519084,0.07121272767772303,0,learn,,
,html-keyboard-response,113,354756,0.0-66.0-1.0,null,,,<p></p>,null,,,,,,,,,,,,,
,do_trial,114,357550,0.0-67.0-0.0,286.10000014305115,,,,,,49,0,1,0,0,highway,14,0.5257026307321851,0.37505801426700575,0.12926625082759718,0,learn,,
,html-keyboard-response,115,358566,0.0-67.0-1.0,null,,,<p></p>,null,,,,,,,,,,,,,
,do_trial,116,361345,0.0-68.0-0.0,271.10000014305115,,,,,,49,1,0,0,0,highway,15,0.5426350483491372,0.15554980315794392,0.20855305612603722,1,learn,,
,html-keyboard-response,117,362352,0.0-68.0-1.0,null,,,<p></p>,null,,,,,,,,,,,,,
,do_trial,118,365150,0.0-69.0-0.0,286.89999985694885,,,,,,49,1,0,0,0,highway,16,0.5656232699869986,0.2003998079245232,0.20450681303764334,1,learn,,
,html-keyboard-response,119,366153,0.0-69.0-1.0,null,,,<p></p>,null,,,,,,,,,,,,,
,do_trial,120,369072,0.0-70.0-0.0,409.80000019073486,,,,,,49,1,0,0,0,highway,17,0.4997614261875195,0.2546313932429318,0.2173930597194584,1,learn,,
,html-keyboard-response,121,370074,0.0-70.0-1.0,null,,,<p></p>,null,,,,,,,,,,,,,
,do_trial,122,373326,0.0-71.0-0.0,740.7999999523163,,,,,,49,1,1,0,0,highway,18,0.601180760116866,0.3390980009644278,0.14320583425500552,1,learn,,
,html-keyboard-response,123,374339,0.0-71.0-1.0,null,,,<p></p>,null,,,,,,,,,,,,,
,do_trial,124,377113,0.0-72.0-0.0,263.2000000476837,,,,,,49,1,0,0,0,highway,19,0.6232993262466464,0.327644928705366,0.09553814800934951,1,learn,,
,html-keyboard-response,125,378115,0.0-72.0-1.0,null,,,<p></p>,null,,,,,,,,,,,,,
,do_trial,126,380938,0.0-73.0-0.0,316.7000000476837,,,,,,49,0,1,0,0,highway,20,0.5979389070952147,0.26616395120169906,0.12689418418057088,0,learn,,
,html-keyboard-response,127,381945,0.0-73.0-1.0,null,,,<p></p>,null,,,,,,,,,,,,,
,do_trial,128,384687,0.0-74.0-0.0,232.79999995231628,,,,,,49,0,1,0,0,highway,21,0.5260566276842187,0.2749416628420615,0.13516552563126166,0,learn,,
,html-keyboard-response,129,385690,0.0-74.0-1.0,null,,,<p></p>,null,,,,,,,,,,,,,
,do_trial,130,388465,0.0-75.0-0.0,263.7999999523163,,,,,,49,0,0,0,0,highway,22,0.6338241278482266,0.3209775158863197,0.06900360530206096,0,learn,,
,html-keyboard-response,131,389474,0.0-75.0-1.0,null,,,<p></p>,null,,,,,,,,,,,,,
,do_trial,132,392304,0.0-76.0-0.0,321.7999999523163,,,,,,50,1,0,0,0,highway,23,0.5777595791067257,0.3289643314536827,0.050694303622161575,0,learn,,
,html-keyboard-response,133,393305,0.0-76.0-1.0,null,,,<p></p>,null,,,,,,,,,,,,,
,do_trial,134,396047,0.0-77.0-0.0,238.29999995231628,,,,,,50,0,0,0,0,highway,24,0.6293095455516685,0.27201640778435193,0.17801590710585383,0,learn,,
,html-keyboard-response,135,397051,0.0-77.0-1.0,null,,,<p></p>,null,,,,,,,,,,,,,
,do_trial,136,399762,0.0-78.0-0.0,194,,,,,,51,0,0,0,0,highway,25,0.5921454284275453,0.31222283313248117,0.20828258278838965,0,learn,,
,html-keyboard-response,137,400772,0.0-78.0-1.0,null,,,<p></p>,null,,,,,,,,,,,,,
,do_trial,138,403508,0.0-79.0-0.0,229.59999990463257,,,,,,51,1,0,0,0,highway,26,0.6538666772747197,0.35029263228807367,0.11822312932041523,0,learn,,
,html-keyboard-response,139,404514,0.0-79.0-1.0,null,,,<p></p>,null,,,,,,,,,,,,,
,do_trial,140,407730,0.0-80.0-0.0,705.7999999523163,,,,,,49,1,0,0,0,highway,27,0.6844365186792033,0.447183739592498,0.08706454462525198,1,learn,,
,html-keyboard-response,141,408731,0.0-80.0-1.0,null,,,<p></p>,null,,,,,,,,,,,,,
,do_trial,142,411502,0.0-81.0-0.0,266.10000014305115,,,,,,49,0,1,0,0,highway,28,0.6731665749969575,0.3612394326457249,0.09710731116716272,0,learn,,
,html-keyboard-response,143,412510,0.0-81.0-1.0,null,,,<p></p>,null,,,,,,,,,,,,,
,do_trial,144,415297,0.0-82.0-0.0,273,,,,,,49,0,1,0,0,highway,29,0.5415029501412832,0.3726091472169278,0.07494802318694457,0,learn,,
,html-keyboard-response,145,416313,0.0-82.0-1.0,null,,,<p></p>,null,,,,,,,,,,,,,
,do_bye,146,417823,0.0-83.0-0.0,null,,,,,,null,,,,,,,,,,,
,do_travel,147,426834,0.0-84.0-0.0,null,,,,,,null,,,,,,,,,,,
,do_welcome,148,430849,0.0-84.0-1.0,null,,,,,,null,,,,,,,,,,,
,do_trial,149,433984,0.0-85.0-0.0,625.5,,,,,,50,1,0,0,1,city,30,1,0.3411002715146404,0.2318233893526314,0,learn,,
,html-keyboard-response,150,434987,0.0-85.0-1.0,null,,,<p></p>,null,,,,,,,,,,,,,
,do_trial,151,437721,0.0-86.0-0.0,228.90000009536743,,,,,,50,1,1,1,1,city,31,1,0.3063874042160071,0.271129996925871,1,learn,,
,html-keyboard-response,152,438732,0.0-86.0-1.0,null,,,<p></p>,null,,,,,,,,,,,,,
,do_trial,153,441502,0.0-87.0-0.0,249.40000009536743,,,,,,50,1,0,0,1,city,32,1,0.2343006473704087,0.25604435777335227,0,learn,,
,html-keyboard-response,154,442511,0.0-87.0-1.0,null,,,<p></p>,null,,,,,,,,,,,,,
,do_trial,155,445289,0.0-88.0-0.0,269.2000000476837,,,,,,50,1,1,0,1,city,33,0.7018963142924778,0.3017197075339581,0.17164841473504894,1,learn,,
,html-keyboard-response,156,446302,0.0-88.0-1.0,null,,,<p></p>,null,,,,,,,,,,,,,
,do_trial,157,449331,0.0-89.0-0.0,520.2000000476837,,,,,,50,1,0,0,1,city,34,0.7899724246819471,0.3892878090970085,0.06190415442443037,0,learn,,
,html-keyboard-response,158,450334,0.0-89.0-1.0,null,,,<p></p>,null,,,,,,,,,,,,,
,do_trial,159,453143,0.0-90.0-0.0,295.90000009536743,,,,,,50,0,0,0,1,city,35,0.7591249285855091,0.2746156476323807,0.09536676306098521,0,learn,,
,html-keyboard-response,160,454146,0.0-90.0-1.0,null,,,<p></p>,null,,,,,,,,,,,,,
,do_trial,161,457133,0.0-91.0-0.0,480.7000000476837,,,,,,51,0,0,0,1,city,36,0.6816900645128077,0.3279188330890524,0.20468356957288728,0,learn,,
,html-keyboard-response,162,458136,0.0-91.0-1.0,null,,,<p></p>,null,,,,,,,,,,,,,
,do_trial,163,460922,0.0-92.0-0.0,269.5,,,,,,51,0,1,0,1,city,37,0.7248609204593299,0.4049031340983336,0.3043381734570709,0,learn,,
,html-keyboard-response,164,461932,0.0-92.0-1.0,null,,,<p></p>,null,,,,,,,,,,,,,
,do_trial,165,464668,0.0-93.0-0.0,227.60000014305115,,,,,,51,0,1,0,1,city,38,0.7182537017910146,0.4951325286491516,0.2928610571108716,0,learn,,
,html-keyboard-response,166,465670,0.0-93.0-1.0,null,,,<p></p>,null,,,,,,,,,,,,,
,do_trial,167,468481,0.0-94.0-0.0,301.39999985694885,,,,,,49,1,0,0,1,city,39,0.676482477016122,0.36234649795645973,0.07156736256462903,1,learn,,
,html-keyboard-response,168,469492,0.0-94.0-1.0,null,,,<p></p>,null,,,,,,,,,,,,,
,do_trial,169,472503,0.0-95.0-0.0,498.2000000476837,,,,,,49,1,1,0,1,city,40,0.5901387205822778,0.36443228980624937,0.12342777428378403,1,learn,,
,html-keyboard-response,170,473512,0.0-95.0-1.0,null,,,<p></p>,null,,,,,,,,,,,,,
,do_trial,171,476498,0.0-96.0-0.0,475.69999980926514,,,,,,49,0,1,0,1,city,41,0.5066444547940783,0.40646804390121055,0.08508228768398592,0,learn,,
,html-keyboard-response,172,477503,0.0-96.0-1.0,null,,,<p></p>,null,,,,,,,,,,,,,
,do_trial,173,480294,0.0-97.0-0.0,278.7000000476837,,,,,,49,0,1,0,1,city,42,0.3430111182791372,0.4804215480478908,0.18923195044037777,0,learn,,
,html-keyboard-response,174,481301,0.0-97.0-1.0,null,,,<p></p>,null,,,,,,,,,,,,,
,do_trial,175,484098,0.0-98.0-0.0,284.2000000476837,,,,,,49,1,0,0,1,city,43,0.37006682143738107,0.45223002331431167,0.22311352095405185,1,learn,,
,html-keyboard-response,176,485109,0.0-98.0-1.0,null,,,<p></p>,null,,,,,,,,,,,,,
,do_trial,177,488103,0.0-99.0-0.0,486.60000014305115,,,,,,49,0,1,1,1,city,44,0.19466602144699155,0.5875097619185864,0.1930143972929942,0,learn,,
,html-keyboard-response,178,489107,0.0-99.0-1.0,null,,,<p></p>,null,,,,,,,,,,,,,
,do_trial,179,491936,0.0-100.0-0.0,316.7999999523163,,,,,,50,0,1,0,1,city,45,0.12319687181520704,0.6181028615311285,0.11179990998845744,1,learn,,
,html-keyboard-response,180,492943,0.0-100.0-1.0,null,,,<p></p>,null,,,,,,,,,,,,,
,do_trial,181,496012,0.0-101.0-0.0,555.5999999046326,,,,,,50,0,1,0,1,city,46,0.10852166400484285,0.630230230609787,0.1544649786442106,1,learn,,
,html-keyboard-response,182,497017,0.0-101.0-1.0,null,,,<p></p>,null,,,,,,,,,,,,,
,do_trial,183,499958,0.0-102.0-0.0,423.90000009536743,,,,,,50,1,1,1,1,city,47,0.08663373197912978,0.687480759916825,0.23234115076145748,1,learn,,
,html-keyboard-response,184,500974,0.0-102.0-1.0,null,,,<p></p>,null,,,,,,,,,,,,,
,do_trial,185,503759,0.0-103.0-0.0,267.09999990463257,,,,,,50,0,1,0,1,city,48,0.0941176549540766,0.7544850087225214,0.3365053910367084,1,learn,,
,html-keyboard-response,186,504775,0.0-103.0-1.0,null,,,<p></p>,null,,,,,,,,,,,,,
,do_trial,187,507528,0.0-104.0-0.0,241.40000009536743,,,,,,50,0,1,0,1,city,49,0.08267602350497737,0.8074096374601993,0.4072665029189739,1,learn,,
,html-keyboard-response,188,508543,0.0-104.0-1.0,null,,,<p></p>,null,,,,,,,,,,,,,
,do_trial,189,511316,0.0-105.0-0.0,267.7000000476837,,,,,,50,0,1,1,1,city,50,0.11975990102402918,0.7251744970945829,0.28628407133652384,1,learn,,
,html-keyboard-response,190,512321,0.0-105.0-1.0,null,,,<p></p>,null,,,,,,,,,,,,,
,do_trial,191,515314,0.0-106.0-0.0,487.59999990463257,,,,,,50,0,1,1,1,city,51,0.16455262414844504,0.5581437627787673,0.36393038668286987,1,learn,,
,html-keyboard-response,192,516317,0.0-106.0-1.0,null,,,<p></p>,null,,,,,,,,,,,,,
,do_trial,193,519096,0.0-107.0-0.0,261.80000019073486,,,,,,50,0,1,0,1,city,52,0.1063813705548949,0.5756111377698299,0.3218079438202441,1,learn,,
,html-keyboard-response,194,520103,0.0-107.0-1.0,null,,,<p></p>,null,,,,,,,,,,,,,
,do_trial,195,522866,0.0-108.0-0.0,257.2000000476837,,,,,,50,1,0,0,1,city,53,0.10473180107275458,0.6389114054310663,0.2798031538738275,0,learn,,
,html-keyboard-response,196,523872,0.0-108.0-1.0,null,,,<p></p>,null,,,,,,,,,,,,,
,do_trial,197,526654,0.0-109.0-0.0,277.39999985694885,,,,,,50,1,1,0,1,city,54,0.07395428322658477,0.554556006812403,0.1448615808389437,1,learn,,
,html-keyboard-response,198,527671,0.0-109.0-1.0,null,,,<p></p>,null,,,,,,,,,,,,,
,do_trial,199,530582,0.0-110.0-0.0,404.7999999523163,,,,,,50,0,0,1,1,city,55,0.24261645706060386,0.5789805306210218,0.31580892793890436,0,learn,,
,html-keyboard-response,200,531587,0.0-110.0-1.0,null,,,<p></p>,null,,,,,,,,,,,,,
,do_trial,201,534536,0.0-111.0-0.0,441.39999985694885,,,,,,50,0,1,1,1,city,56,0.3755390531029093,0.5445597096990779,0.3561756629344034,1,learn,,
,html-keyboard-response,202,535541,0.0-111.0-1.0,null,,,<p></p>,null,,,,,,,,,,,,,
,do_trial,203,538632,0.0-112.0-0.0,583.7000000476837,,,,,,50,0,0,0,1,city,57,0.42380859972502266,0.501853018553745,0.09859730670991258,0,learn,,
,html-keyboard-response,204,539635,0.0-112.0-1.0,null,,,<p></p>,null,,,,,,,,,,,,,
,do_trial,205,542554,0.0-113.0-0.0,414.2999999523163,,,,,,50,0,1,0,1,city,58,0.19390945187948588,0.5829361989996756,0.07484870897917512,1,learn,,
,html-keyboard-response,206,543566,0.0-113.0-1.0,null,,,<p></p>,null,,,,,,,,,,,,,
,do_trial,207,546333,0.0-114.0-0.0,256.7999999523163,,,,,,50,0,1,0,1,city,59,0.19034205002430166,0.6446736558184104,0.21247448039184597,1,learn,,
,html-keyboard-response,208,547343,0.0-114.0-1.0,null,,,<p></p>,null,,,,,,,,,,,,,
,do_trial,209,550330,0.0-115.0-0.0,476.10000014305115,,,,,,50,0,0,1,1,city,60,0.10109566354654986,0.6981476866293475,0.3087857189469805,0,learn,,
,html-keyboard-response,210,551346,0.0-115.0-1.0,null,,,<p></p>,null,,,,,,,,,,,,,
,do_trial,211,554256,0.0-116.0-0.0,398.59999990463257,,,,,,50,0,1,0,1,city,61,0.13422040571879662,0.5546749666277367,0.3110344216965222,1,learn,,
,html-keyboard-response,212,555268,0.0-116.0-1.0,null,,,<p></p>,null,,,,,,,,,,,,,
,do_trial,213,558205,0.0-117.0-0.0,427.90000009536743,,,,,,50,0,0,0,1,city,62,0.13930113793756382,0.606930835566058,0.20221354219412452,0,learn,,
,html-keyboard-response,214,559216,0.0-117.0-1.0,null,,,<p></p>,null,,,,,,,,,,,,,
,do_trial,215,562168,0.0-118.0-0.0,443.09999990463257,,,,,,50,0,1,0,1,city,63,0.14192440145670934,0.5494359285891927,0.21409118250764944,1,learn,,
,html-keyboard-response,216,563169,0.0-118.0-1.0,null,,,<p></p>,null,,,,,,,,,,,,,
,do_trial,217,565920,0.0-119.0-0.0,244.90000009536743,,,,,,50,0,1,0,1,city,64,0.21682683494017727,0.5740520079127441,0.2167637269337844,1,learn,,
,html-keyboard-response,218,566923,0.0-119.0-1.0,null,,,<p></p>,null,,,,,,,,,,,,,
,do_trial,219,569693,0.0-120.0-0.0,256.2000000476837,,,,,,50,1,1,0,1,city,65,0.24411617057378052,0.6353031600147302,0.28308866596414733,1,learn,,
,html-keyboard-response,220,570702,0.0-120.0-1.0,null,,,<p></p>,null,,,,,,,,,,,,,
,do_trial,221,573655,0.0-121.0-0.0,433.2999999523163,,,,,,50,0,0,0,1,city,66,0.05551089267514517,0.7019223775769978,0.3103454239114582,0,learn,,
,html-keyboard-response,222,574667,0.0-121.0-1.0,null,,,<p></p>,null,,,,,,,,,,,,,
,do_trial,223,577702,0.0-122.0-0.0,517.2999999523163,,,,,,50,0,0,1,1,city,67,0.09811596829825561,0.6172190830920539,0.42885802869784156,0,learn,,
,html-keyboard-response,224,578709,0.0-122.0-1.0,null,,,<p></p>,null,,,,,,,,,,,,,
,do_trial,225,581494,0.0-123.0-0.0,270.59999990463257,,,,,,50,1,0,1,1,city,68,0.2691585828206081,0.6240603618035754,0.31431352625309006,0,learn,,
,html-keyboard-response,226,582502,0.0-123.0-1.0,null,,,<p></p>,null,,,,,,,,,,,,,
,do_trial,227,585309,0.0-124.0-0.0,290.09999990463257,,,,,,49,0,0,0,1,city,69,0.29173691386348033,0.6514728247244456,0.28452619958053343,0,learn,,
,html-keyboard-response,228,586312,0.0-124.0-1.0,null,,,<p></p>,null,,,,,,,,,,,,,
,do_bye,229,587819,0.0-125.0-0.0,null,,,,,,null,,,,,,,,,,,
,do_travel,230,596828,0.0-126.0-0.0,null,,,,,,null,,,,,,,,,,,
,do_welcome,231,600843,0.0-126.0-1.0,null,,,,,,null,,,,,,,,,,,
,do_trial,232,604320,0.0-127.0-0.0,971.1000001430511,,,,,,49,0,1,0,2,forest,70,0.05922967288939088,1,0.3591259098070496,0,learn,,
,html-keyboard-response,233,605324,0.0-127.0-1.0,null,,,<p></p>,null,,,,,,,,,,,,,
,do_trial,234,608212,0.0-128.0-0.0,378.09999990463257,,,,,,49,0,1,1,2,forest,71,0.06674473759376645,1,0.388958465180933,0,learn,,
,html-keyboard-response,235,609219,0.0-128.0-1.0,null,,,<p></p>,null,,,,,,,,,,,,,
,do_trial,236,612063,0.0-129.0-0.0,330.69999980926514,,,,,,50,0,0,0,2,forest,72,0.2160869210719555,0.7338622756418749,0.23240934166322796,0,learn,,
,html-keyboard-response,237,613066,0.0-129.0-1.0,null,,,<p></p>,null,,,,,,,,,,,,,
,do_trial,238,616489,0.0-130.0-0.0,913.6000001430511,,,,,,50,0,1,1,2,forest,73,0.12285249383369863,0.7490045077851727,0.3741636560055339,1,learn,,
,html-keyboard-response,239,617496,0.0-130.0-1.0,null,,,<p></p>,null,,,,,,,,,,,,,
,do_trial,240,620722,0.0-131.0-0.0,716.4000000953674,,,,,,50,0,1,0,2,forest,74,0.06494876959969333,0.5794624207095638,0.3715176398996619,1,learn,,
,html-keyboard-response,241,621733,0.0-131.0-1.0,null,,,<p></p>,null,,,,,,,,,,,,,
,do_trial,242,624819,0.0-132.0-0.0,579.7999999523163,,,,,,50,0,0,1,2,forest,75,0.12461571855446113,0.5188143799220166,0.44734200504381827,0,learn,,
,html-keyboard-response,243,625821,0.0-132.0-1.0,null,,,<p></p>,null,,,,,,,,,,,,,
,do_trial,244,628776,0.0-133.0-0.0,442.60000014305115,,,,,,50,0,1,1,2,forest,76,0.15781685125536335,0.48939395004922953,0.4425979664082669,1,learn,,
,html-keyboard-response,245,629785,0.0-133.0-1.0,null,,,<p></p>,null,,,,,,,,,,,,,
,do_trial,246,632754,0.0-134.0-0.0,459.10000014305115,,,,,,50,1,0,0,2,forest,77,0.07303316108945851,0.42883198689613927,0.3180635518814588,0,learn,,
,html-keyboard-response,247,633763,0.0-134.0-1.0,null,,,<p></p>,null,,,,,,,,,,,,,
,do_trial,248,636564,0.0-135.0-0.0,294.7999999523163,,,,,,51,0,0,0,2,forest,78,0.08183418243936667,0.5399141338552245,0.27727030285272386,0,learn,,
,html-keyboard-response,249,637577,0.0-135.0-1.0,null,,,<p></p>,null,,,,,,,,,,,,,
,do_trial,250,640387,0.0-136.0-0.0,301.2999999523163,,,,,,51,0,0,0,2,forest,79,0.08084094190535408,0.5776296884711688,0.24177034055811092,0,learn,,
,html-keyboard-response,251,641405,0.0-136.0-1.0,null,,,<p></p>,null,,,,,,,,,,,,,
,do_trial,252,644232,0.0-137.0-0.0,317.90000009536743,,,,,,50,0,0,0,2,forest,80,0.1475643055308741,0.5821088069730755,0.3319913886373715,0,learn,,
,html-keyboard-response,253,645237,0.0-137.0-1.0,null,,,<p></p>,null,,,,,,,,,,,,,
,do_trial,254,648003,0.0-138.0-0.0,252.5,,,,,,50,0,1,0,2,forest,81,0.09802463990480809,0.5204163010551166,0.43221882919122434,1,learn,,
,html-keyboard-response,255,649006,0.0-138.0-1.0,null,,,<p></p>,null,,,,,,,,,,,,,
,do_trial,256,651942,0.0-139.0-0.0,417.90000009536743,,,,,,50,0,0,0,2,forest,82,0.2535277551913612,0.38667789208484155,0.5734216973022195,0,learn,,
,html-keyboard-response,257,652949,0.0-139.0-1.0,null,,,<p></p>,null,,,,,,,,,,,,,
,do_trial,258,655705,0.0-140.0-0.0,249,,,,,,50,1,1,1,2,forest,83,0.34984191670643167,0.30831305821656585,0.5638251925908851,1,learn,,
,html-keyboard-response,259,656713,0.0-140.0-1.0,null,,,<p></p>,null,,,,,,,,,,,,,
,do_trial,260,659697,0.0-141.0-0.0,478.59999990463257,,,,,,50,1,1,0,2,forest,84,0.39389051746620285,0.18191551698958422,0.6485341911015772,1,learn,,
,html-keyboard-response,261,660705,0.0-141.0-1.0,null,,,<p></p>,null,,,,,,,,,,,,,
,do_trial,262,663528,0.0-142.0-0.0,319.09999990463257,,,,,,50,0,0,0,2,forest,85,0.3634721588350969,0.16150082602518684,0.6123065777986126,0,learn,,
,html-keyboard-response,263,664534,0.0-142.0-1.0,null,,,<p></p>,null,,,,,,,,,,,,,
,do_trial,264,667316,0.0-143.0-0.0,271.60000014305115,,,,,,50,1,0,1,2,forest,86,0.4532693283686884,0.05909290939822997,0.6027513743550054,0,learn,,
,html-keyboard-response,265,668321,0.0-143.0-1.0,null,,,<p></p>,null,,,,,,,,,,,,,
,do_trial,266,671140,0.0-144.0-0.0,308.7000000476837,,,,,,49,1,0,0,2,forest,87,0.2791068697966378,0.17199478604729812,0.49115824528549357,1,learn,,
,html-keyboard-response,267,672146,0.0-144.0-1.0,null,,,<p></p>,null,,,,,,,,,,,,,
,do_trial,268,675335,0.0-145.0-0.0,675.3999998569489,,,,,,49,0,0,1,2,forest,88,0.21276763301689347,0.16473675916792743,0.6543067195664797,0,learn,,
,html-keyboard-response,269,676350,0.0-145.0-1.0,null,,,<p></p>,null,,,,,,,,,,,,,
,do_trial,270,679388,0.0-146.0-0.0,530.2000000476837,,,,,,49,0,0,1,2,forest,89,0.15923452074335934,0.18580280202819716,0.5225401381844101,0,learn,,
,html-keyboard-response,271,680397,0.0-146.0-1.0,null,,,<p></p>,null,,,,,,,,,,,,,
,do_trial,272,683327,0.0-147.0-0.0,417.7999999523163,,,,,,49,0,1,0,2,forest,90,0.21775571968749458,0.06797051518743434,0.5044913353421977,0,learn,,
,html-keyboard-response,273,684335,0.0-147.0-1.0,null,,,<p></p>,null,,,,,,,,,,,,,
,do_trial,274,687314,0.0-148.0-0.0,472.60000014305115,,,,,,51,0,0,1,2,forest,91,0.2921792041572756,0.13519050220561835,0.5335909111705979,1,learn,,
,html-keyboard-response,275,688322,0.0-148.0-1.0,null,,,<p></p>,null,,,,,,,,,,,,,
,do_trial,276,691636,0.0-149.0-0.0,808.0999999046326,,,,,,51,0,0,0,2,forest,92,0.21353884517143673,0.19845527921914316,0.3625362221048801,0,learn,,
,html-keyboard-response,277,692645,0.0-149.0-1.0,null,,,<p></p>,null,,,,,,,,,,,,,
,do_trial,278,695639,0.0-150.0-0.0,488.39999985694885,,,,,,51,0,0,1,2,forest,93,0.2827974241825039,0.2016084429643712,0.5707920016832665,1,learn,,
,html-keyboard-response,279,696649,0.0-150.0-1.0,null,,,<p></p>,null,,,,,,,,,,,,,
,do_trial,280,700229,0.0-151.0-0.0,1070.5,,,,,,51,1,0,1,2,forest,94,0.4003629694366952,0.05023172223800147,0.6767896622565515,1,learn,,
,html-keyboard-response,281,701237,0.0-151.0-1.0,null,,,<p></p>,null,,,,,,,,,,,,,
,do_trial,282,704251,0.0-152.0-0.0,502.09999990463257,,,,,,51,0,0,1,2,forest,95,0.4168747375963377,0.2041983084295924,0.7432746178541405,1,learn,,
,html-keyboard-response,283,705256,0.0-152.0-1.0,null,,,<p></p>,null,,,,,,,,,,,,,
,do_trial,284,708437,0.0-153.0-0.0,670.2999999523163,,,,,,51,1,0,1,2,forest,96,0.35815040775175655,0.16978215942356065,0.6852654155214242,1,learn,,
,html-keyboard-response,285,709446,0.0-153.0-1.0,null,,,<p></p>,null,,,,,,,,,,,,,
,do_trial,286,712241,0.0-154.0-0.0,288,,,,,,51,0,0,0,2,forest,97,0.3307067243272819,0.09186157263041729,0.5816107258981001,0,learn,,
,html-keyboard-response,287,713244,0.0-154.0-1.0,null,,,<p></p>,null,,,,,,,,,,,,,
,do_trial,288,716046,0.0-155.0-0.0,293.7999999523163,,,,,,51,0,0,0,2,forest,98,0.38622882422389254,0.16317943486634176,0.492074596259995,0,learn,,
,html-keyboard-response,289,717055,0.0-155.0-1.0,null,,,<p></p>,null,,,,,,,,,,,,,
,do_trial,290,719832,0.0-156.0-0.0,265.7999999523163,,,,,,51,0,1,1,2,forest,99,0.43373747059662043,0.194221918625862,0.5091919226965338,1,learn,,
,html-keyboard-response,291,720837,0.0-156.0-1.0,null,,,<p></p>,null,,,,,,,,,,,,,
,do_trial,292,723679,0.0-157.0-0.0,332.5,,,,,,51,0,0,0,2,forest,100,0.38201132384618436,0.0535323067253791,0.5701494886417459,0,learn,,
,html-keyboard-response,293,724688,0.0-157.0-1.0,null,,,<p></p>,null,,,,,,,,,,,,,
,do_trial,294,727475,0.0-158.0-0.0,271.59999990463257,,,,,,50,0,1,0,2,forest,101,0.18262055510000372,0.09019981107528105,0.5333087813407865,1,learn,,
,html-keyboard-response,295,728480,0.0-158.0-1.0,null,,,<p></p>,null,,,,,,,,,,,,,
,do_trial,296,731247,0.0-159.0-0.0,264.2000000476837,,,,,,50,0,0,1,2,forest,102,0.1372128476179142,0.10056284501644962,0.4388009258294298,0,learn,,
,html-keyboard-response,297,732254,0.0-159.0-1.0,null,,,<p></p>,null,,,,,,,,,,,,,
,do_trial,298,735024,0.0-160.0-0.0,261.5,,,,,,50,0,0,1,2,forest,103,0.226356451069091,0.07505422416385446,0.4199800060195604,0,learn,,
,html-keyboard-response,299,736026,0.0-160.0-1.0,null,,,<p></p>,null,,,,,,,,,,,,,
,do_trial,300,738779,0.0-161.0-0.0,245,,,,,,50,0,0,1,2,forest,104,0.3246263006670252,0.20153141839929206,0.5737321947291587,0,learn,,
,html-keyboard-response,301,739788,0.0-161.0-1.0,null,,,<p></p>,null,,,,,,,,,,,,,
,do_trial,302,742791,0.0-162.0-0.0,492.5,,,,,,50,0,0,1,2,forest,105,0.2781551730655377,0.1662535855605124,0.582343102134214,0,learn,,
,html-keyboard-response,303,743795,0.0-162.0-1.0,null,,,<p></p>,null,,,,,,,,,,,,,
,do_trial,304,746730,0.0-163.0-0.0,429.7000000476837,,,,,,49,0,1,1,2,forest,106,0.3567314944758425,0.19055663561598254,0.6919611926073875,0,learn,,
,html-keyboard-response,305,747736,0.0-163.0-1.0,null,,,<p></p>,null,,,,,,,,,,,,,
,do_trial,306,750459,0.0-164.0-0.0,213.59999990463257,,,,,,49,0,0,1,2,forest,107,0.47641095811254985,0.0506937515939649,0.7089988296090295,0,learn,,
,html-keyboard-response,307,751466,0.0-164.0-1.0,null,,,<p></p>,null,,,,,,,,,,,,,
,do_trial,308,754146,0.0-165.0-0.0,172.89999985694885,,,,,,49,1,0,1,2,forest,108,0.3984167578970046,0.07119717206892849,0.6241645603195466,1,learn,,
,html-keyboard-response,309,755154,0.0-165.0-1.0,null,,,<p></p>,null,,,,,,,,,,,,,
,do_trial,310,757907,0.0-166.0-0.0,242,,,,,,49,0,0,0,2,forest,109,0.19514711735974602,0.05570403307248318,0.6727874223558794,0,learn,,
,html-keyboard-response,311,758910,0.0-166.0-1.0,null,,,<p></p>,null,,,,,,,,,,,,,
,do_bye,312,760419,0.0-167.0-0.0,null,,,,,,null,,,,,,,,,,,
,do_travel,313,769428,0.0-168.0-0.0,null,,,,,,null,,,,,,,,,,,
,do_welcome,314,773437,0.0-168.0-1.0,null,,,,,,null,,,,,,,,,,,
,do_trial,315,779449,0.0-169.0-0.0,null,,,,,,null,0,0,1,3,countryside,110,0.2376970496314301,0.073557730132006,1,,learn,,
,html-keyboard-response,316,780459,0.0-169.0-1.0,null,,,<p></p>,null,,,,,,,,,,,,,
,do_trial,317,783353,0.0-170.0-0.0,380.39999985694885,,,,,,51,1,1,1,3,countryside,111,0.2955955988023893,0.05871561020762348,1,1,learn,,
,html-keyboard-response,318,784363,0.0-170.0-1.0,null,,,<p></p>,null,,,,,,,,,,,,,
,do_trial,319,787457,0.0-171.0-0.0,588.6000001430511,,,,,,51,0,0,1,3,countryside,112,0.2542439833235754,0.08642604543738058,0.9420874368932661,1,learn,,
,html-keyboard-response,320,788458,0.0-171.0-1.0,null,,,<p></p>,null,,,,,,,,,,,,,
,do_trial,321,791267,0.0-172.0-0.0,300.7999999523163,,,,,,51,1,0,1,3,countryside,113,0.41934276563147777,0.21799890333673289,0.8539082374135124,1,learn,,
,html-keyboard-response,322,792279,0.0-172.0-1.0,null,,,<p></p>,null,,,,,,,,,,,,,
,do_trial,323,795067,0.0-173.0-0.0,279.2000000476837,,,,,,51,1,0,1,3,countryside,114,0.49884123770290106,0.22680588997210915,0.6071819539303396,1,learn,,
,html-keyboard-response,324,796076,0.0-173.0-1.0,null,,,<p></p>,null,,,,,,,,,,,,,
,do_trial,325,799012,0.0-174.0-0.0,425,,,,,,51,1,0,1,3,countryside,115,0.5001785560613642,0.3055407029418862,0.6069194070973037,1,learn,,
,html-keyboard-response,326,800018,0.0-174.0-1.0,null,,,<p></p>,null,,,,,,,,,,,,,
,do_trial,327,802974,0.0-175.0-0.0,450.2999999523163,,,,,,51,1,0,1,3,countryside,116,0.4593594525547313,0.1932087948465052,0.627699822890392,1,learn,,
,html-keyboard-response,328,803983,0.0-175.0-1.0,null,,,<p></p>,null,,,,,,,,,,,,,
,do_trial,329,806905,0.0-176.0-0.0,409.30000019073486,,,,,,51,1,0,0,3,countryside,117,0.3318124588320759,0.18415721162976145,0.578871542077985,0,learn,,
,html-keyboard-response,330,807922,0.0-176.0-1.0,null,,,<p></p>,null,,,,,,,,,,,,,
,do_trial,331,811876,0.0-177.0-0.0,1442.9000000953674,,,,,,51,1,0,0,3,countryside,118,0.3635277474227056,0.3208564847425097,0.5574730646302672,0,learn,,
,html-keyboard-response,332,812887,0.0-177.0-1.0,null,,,<p></p>,null,,,,,,,,,,,,,
,do_trial,333,815702,0.0-178.0-0.0,301.40000009536743,,,,,,51,0,0,0,3,countryside,119,0.3415337936108242,0.3164029418633938,0.6804594111081309,0,learn,,
,html-keyboard-response,334,816708,0.0-178.0-1.0,null,,,<p></p>,null,,,,,,,,,,,,,
,do_trial,335,819461,0.0-179.0-0.0,243.29999995231628,,,,,,51,0,0,0,3,countryside,120,0.30546109190031395,0.4108839764268518,0.6684868273018004,0,learn,,
,html-keyboard-response,336,820468,0.0-179.0-1.0,null,,,<p></p>,null,,,,,,,,,,,,,
,do_trial,337,823411,0.0-180.0-0.0,435.2999999523163,,,,,,49,0,1,0,3,countryside,121,0.34894888452842665,0.5115006399268563,0.6769078597430841,0,learn,,
,html-keyboard-response,338,824416,0.0-180.0-1.0,null,,,<p></p>,null,,,,,,,,,,,,,
,do_trial,339,827192,0.0-181.0-0.0,271.90000009536743,,,,,,49,0,1,1,3,countryside,122,0.25154574093922244,0.487138240678973,0.4368743368455461,0,learn,,
,html-keyboard-response,340,828195,0.0-181.0-1.0,null,,,<p></p>,null,,,,,,,,,,,,,
,do_trial,341,830948,0.0-182.0-0.0,231.30000019073486,,,,,,49,0,1,1,3,countryside,123,0.06474931480862021,0.4637702298391797,0.16167949699640513,0,learn,,
,html-keyboard-response,342,831955,0.0-182.0-1.0,null,,,<p></p>,null,,,,,,,,,,,,,
,do_trial,343,834677,0.0-183.0-0.0,214.79999995231628,,,,,,50,0,0,0,3,countryside,124,0.1778331306310356,0.4763138997292788,0.12332044241708781,0,learn,,
,html-keyboard-response,344,835686,0.0-183.0-1.0,null,,,<p></p>,null,,,,,,,,,,,,,
,do_trial,345,838465,0.0-184.0-0.0,267.7999999523163,,,,,,50,0,0,0,3,countryside,125,0.2960056298128654,0.5442629247276658,0.11535165915579355,0,learn,,
,html-keyboard-response,346,839481,0.0-184.0-1.0,null,,,<p></p>,null,,,,,,,,,,,,,
,do_trial,347,842210,0.0-185.0-0.0,219.10000014305115,,,,,,50,0,0,0,3,countryside,126,0.27086057456464074,0.5241139820131098,0.20563222584405275,0,learn,,
,html-keyboard-response,348,843213,0.0-185.0-1.0,null,,,<p></p>,null,,,,,,,,,,,,,
,do_trial,349,846015,0.0-186.0-0.0,290.80000019073486,,,,,,51,1,0,0,3,countryside,127,0.34171319557255375,0.5843964959132038,0.1721708381439106,0,learn,,
,html-keyboard-response,350,847023,0.0-186.0-1.0,null,,,<p></p>,null,,,,,,,,,,,,,
,do_trial,351,849807,0.0-187.0-0.0,275.5,,,,,,51,0,1,0,3,countryside,128,0.1744352895725299,0.7131188083852393,0.058310503638379974,0,learn,,
,html-keyboard-response,352,850812,0.0-187.0-1.0,null,,,<p></p>,null,,,,,,,,,,,,,
,do_trial,353,853580,0.0-188.0-0.0,263.10000014305115,,,,,,51,0,0,0,3,countryside,129,0.271115633806595,0.5976192421436246,0.11790559088662513,0,learn,,
,html-keyboard-response,354,854590,0.0-188.0-1.0,null,,,<p></p>,null,,,,,,,,,,,,,
,do_trial,355,857386,0.0-189.0-0.0,287.2000000476837,,,,,,50,1,1,0,3,countryside,130,0.37386700075712326,0.5629461652151164,0.17026959515913448,1,learn,,
,html-keyboard-response,356,858395,0.0-189.0-1.0,null,,,<p></p>,null,,,,,,,,,,,,,
,do_trial,357,861215,0.0-190.0-0.0,304.5,,,,,,50,0,0,0,3,countryside,131,0.3676467572699219,0.5476156783880525,0.07685636985060419,0,learn,,
,html-keyboard-response,358,862225,0.0-190.0-1.0,null,,,<p></p>,null,,,,,,,,,,,,,
,do_trial,359,864985,0.0-191.0-0.0,254.20000004768372,,,,,,50,0,0,0,3,countryside,132,0.30702143900045215,0.4027512816587207,0.11875065055211396,0,learn,,
,html-keyboard-response,360,865988,0.0-191.0-1.0,null,,,<p></p>,null,,,,,,,,,,,,,
,do_trial,361,868823,0.0-192.0-0.0,324.59999990463257,,,,,,50,1,1,0,3,countryside,133,0.39653474170579844,0.5312931127626881,0.07781133718470258,1,learn,,
,html-keyboard-response,362,869825,0.0-192.0-1.0,null,,,<p></p>,null,,,,,,,,,,,,,
,do_trial,363,872637,0.0-193.0-0.0,300.7000000476837,,,,,,50,1,0,0,3,countryside,134,0.3561871134763675,0.6033872309954516,0.1799872471706069,0,learn,,
,html-keyboard-response,364,873651,0.0-193.0-1.0,null,,,<p></p>,null,,,,,,,,,,,,,
,do_trial,365,876456,0.0-194.0-0.0,297.90000009536743,,,,,,51,0,1,0,3,countryside,135,0.2512424663048676,0.617166388901377,0.18788522400312993,0,learn,,
,html-keyboard-response,366,877466,0.0-194.0-1.0,null,,,<p></p>,null,,,,,,,,,,,,,
,do_trial,367,880250,0.0-195.0-0.0,277.5,,,,,,49,1,1,0,3,countryside,136,0.1823370682180942,0.5819817930351558,0.2118613000960589,1,learn,,
,html-keyboard-response,368,881252,0.0-195.0-1.0,null,,,<p></p>,null,,,,,,,,,,,,,
,do_trial,369,884079,0.0-196.0-0.0,311.2999999523163,,,,,,49,1,0,0,3,countryside,137,0.22454090843101068,0.6476678850411139,0.20697556749650875,1,learn,,
,html-keyboard-response,370,885083,0.0-196.0-1.0,null,,,<p></p>,null,,,,,,,,,,,,,
,do_trial,371,888065,0.0-197.0-0.0,477.09999990463257,,,,,,49,0,1,0,3,countryside,138,0.22160802645819103,0.6985723048419773,0.1391711645474472,0,learn,,
,html-keyboard-response,372,889076,0.0-197.0-1.0,null,,,<p></p>,null,,,,,,,,,,,,,
,do_trial,373,891899,0.0-198.0-0.0,310.89999985694885,,,,,,49,0,1,0,3,countryside,139,0.22357216421119153,0.6288768921838453,0.18418308972303282,0,learn,,
,html-keyboard-response,374,892916,0.0-198.0-1.0,null,,,<p></p>,null,,,,,,,,,,,,,
,do_trial,375,895953,0.0-199.0-0.0,525.5,,,,,,49,0,1,0,3,countryside,140,0.24828899284733486,0.6765896816348226,0.10341693936876917,0,learn,,
,html-keyboard-response,376,896962,0.0-199.0-1.0,null,,,<p></p>,null,,,,,,,,,,,,,
,do_trial,377,899757,0.0-200.0-0.0,288.7000000476837,,,,,,51,0,0,0,3,countryside,141,0.2098810833216994,0.7136919240958859,0.19109571129693032,0,learn,,
,html-keyboard-response,378,900759,0.0-200.0-1.0,null,,,<p></p>,null,,,,,,,,,,,,,
,do_trial,379,903537,0.0-201.0-0.0,266.90000009536743,,,,,,51,0,1,0,3,countryside,142,0.18120428365407878,0.7960836652432443,0.06654476075931799,0,learn,,
,html-keyboard-response,380,904540,0.0-201.0-1.0,null,,,<p></p>,null,,,,,,,,,,,,,
,do_trial,381,907548,0.0-202.0-0.0,502.09999990463257,,,,,,51,0,1,0,3,countryside,143,0.1963257115850616,0.6478556218961325,0.12798374902631934,0,learn,,
,html-keyboard-response,382,908550,0.0-202.0-1.0,null,,,<p></p>,null,,,,,,,,,,,,,
,do_trial,383,911336,0.0-203.0-0.0,268.7000000476837,,,,,,49,0,1,0,3,countryside,144,0.3425666562105833,0.6565031433001548,0.14367460453673445,0,learn,,
,html-keyboard-response,384,912346,0.0-203.0-1.0,null,,,<p></p>,null,,,,,,,,,,,,,
,do_trial,385,915120,0.0-204.0-0.0,261.5,,,,,,49,1,0,0,3,countryside,145,0.34452582882775656,0.4904223106143787,0.1441089815697492,1,learn,,
,html-keyboard-response,386,916124,0.0-204.0-1.0,null,,,<p></p>,null,,,,,,,,,,,,,
,do_trial,387,918945,0.0-205.0-0.0,309.7999999523163,,,,,,49,0,0,1,3,countryside,146,0.33913977626385666,0.6298872754451589,0.12106452046896886,0,learn,,
,html-keyboard-response,388,919960,0.0-205.0-1.0,null,,,<p></p>,null,,,,,,,,,,,,,
,do_trial,389,922758,0.0-206.0-0.0,287.7999999523163,,,,,,49,0,1,0,3,countryside,147,0.29099303135797666,0.6353827017219482,0.1470315712674519,0,learn,,
,html-keyboard-response,390,923771,0.0-206.0-1.0,null,,,<p></p>,null,,,,,,,,,,,,,
,do_trial,391,926591,0.0-207.0-0.0,302.90000009536743,,,,,,50,0,0,1,3,countryside,148,0.3446406727203336,0.5112777757710956,0.050674534963319195,0,learn,,
,html-keyboard-response,392,927594,0.0-207.0-1.0,null,,,<p></p>,null,,,,,,,,,,,,,
,do_trial,393,930422,0.0-208.0-0.0,318.7999999523163,,,,,,50,0,0,0,3,countryside,149,0.3760213544878594,0.6858881844894382,0.053377524250344144,0,learn,,
,html-keyboard-response,394,931426,0.0-208.0-1.0,null,,,<p></p>,null,,,,,,,,,,,,,
,do_bye,395,932936,0.0-209.0-0.0,null,,,,,,null,,,,,,,,,,,
,do_travel,396,941945,0.0-210.0-0.0,null,,,,,,null,,,,,,,,,,,
,do_welcome,397,945967,0.0-210.0-1.0,null,,,,,,null,,,,,,,,,,,
,do_trial,398,949029,0.0-211.0-0.0,550.7000000476837,,,,,,49,0,1,0,4,coast,150,0.4346732152573016,1,0.10490332726607954,0,learn,,
,html-keyboard-response,399,950044,0.0-211.0-1.0,null,,,<p></p>,null,,,,,,,,,,,,,
,do_trial,400,952829,0.0-212.0-0.0,271.2000000476837,,,,,,49,0,1,0,4,coast,151,0.35654406696402774,1,0.2021419504961238,0,learn,,
,html-keyboard-response,401,953832,0.0-212.0-1.0,null,,,<p></p>,null,,,,,,,,,,,,,
,do_trial,402,956620,0.0-213.0-0.0,279.2000000476837,,,,,,49,0,1,0,4,coast,152,0.19232068363217714,0.8672620399250339,0.07592405485730672,0,learn,,
,html-keyboard-response,403,957627,0.0-213.0-1.0,null,,,<p></p>,null,,,,,,,,,,,,,
,do_trial,404,960444,0.0-214.0-0.0,309.60000014305115,,,,,,51,0,1,1,4,coast,153,0.23867814968783976,0.657124272402809,0.18937035311296277,1,learn,,
,html-keyboard-response,405,961458,0.0-214.0-1.0,null,,,<p></p>,null,,,,,,,,,,,,,
,do_trial,406,964428,0.0-215.0-0.0,458.2999999523163,,,,,,51,0,0,1,4,coast,154,0.34136578231234355,0.562275980319117,0.16032099775962647,1,learn,,
,html-keyboard-response,407,965446,0.0-215.0-1.0,null,,,<p></p>,null,,,,,,,,,,,,,
,do_trial,408,968392,0.0-216.0-0.0,437.2000000476837,,,,,,51,0,0,0,4,coast,155,0.21986595226734884,0.6914510913553744,0.2346279923199715,0,learn,,
,html-keyboard-response,409,969401,0.0-216.0-1.0,null,,,<p></p>,null,,,,,,,,,,,,,
,do_trial,410,972371,0.0-217.0-0.0,451.7000000476837,,,,,,51,0,0,0,4,coast,156,0.20447569224899867,0.6602531668208603,0.23771219496874976,0,learn,,
,html-keyboard-response,411,973379,0.0-217.0-1.0,null,,,<p></p>,null,,,,,,,,,,,,,
,do_trial,412,976199,0.0-218.0-0.0,314.5,,,,,,51,0,1,1,4,coast,157,0.21445466268465402,0.659016740730945,0.34368058876061225,1,learn,,
,html-keyboard-response,413,977209,0.0-218.0-1.0,null,,,<p></p>,null,,,,,,,,,,,,,
,do_trial,414,980028,0.0-219.0-0.0,312.10000014305115,,,,,,51,0,1,0,4,coast,158,0.32303371836902744,0.5444576812444404,0.1708031539881049,0,learn,,
,html-keyboard-response,415,981031,0.0-219.0-1.0,null,,,<p></p>,null,,,,,,,,,,,,,
,do_trial,416,983862,0.0-220.0-0.0,323.5,,,,,,50,0,0,1,4,coast,159,0.2390232166972723,0.5917423205897306,0.2630979454524932,0,learn,,
,html-keyboard-response,417,984876,0.0-220.0-1.0,null,,,<p></p>,null,,,,,,,,,,,,,
,do_trial,418,987678,0.0-221.0-0.0,292.2000000476837,,,,,,50,0,1,0,4,coast,160,0.3130123463211144,0.5216968569521313,0.29530582388719095,1,learn,,
,html-keyboard-response,419,988686,0.0-221.0-1.0,null,,,<p></p>,null,,,,,,,,,,,,,
,do_trial,420,991456,0.0-222.0-0.0,252.5,,,,,,50,0,1,0,4,coast,161,0.34358757008891033,0.6189668661341565,0.30044508732619113,1,learn,,
,html-keyboard-response,421,992459,0.0-222.0-1.0,null,,,<p></p>,null,,,,,,,,,,,,,
,do_trial,422,995679,0.0-223.0-0.0,708.1000001430511,,,,,,50,1,0,0,4,coast,162,0.47314210717520655,0.32235223581963157,0.41853444133881423,0,learn,,
,html-keyboard-response,423,996681,0.0-223.0-1.0,null,,,<p></p>,null,,,,,,,,,,,,,
,do_trial,424,999517,0.0-224.0-0.0,329.10000014305115,,,,,,50,0,0,0,4,coast,163,0.5065749105979654,0.19560243675519728,0.4334320597229566,0,learn,,
,html-keyboard-response,425,1000523,0.0-224.0-1.0,null,,,<p></p>,null,,,,,,,,,,,,,
,do_trial,426,1003313,0.0-225.0-0.0,277.90000009536743,,,,,,49,1,0,0,4,coast,164,0.5848314975705422,0.13113514413763885,0.3732092197085532,1,learn,,
,html-keyboard-response,427,1004326,0.0-225.0-1.0,null,,,<p></p>,null,,,,,,,,,,,,,
,do_trial,428,1007141,0.0-226.0-0.0,311.89999985694885,,,,,,49,1,0,1,4,coast,165,0.6413963166977473,0.25290528653024796,0.2617231699353338,1,learn,,
,html-keyboard-response,429,1008143,0.0-226.0-1.0,null,,,<p></p>,null,,,,,,,,,,,,,
,do_trial,430,1010937,0.0-227.0-0.0,279.2000000476837,,,,,,49,1,0,0,4,coast,166,0.7695116283041439,0.16452591508649064,0.2835716793703951,1,learn,,
,html-keyboard-response,431,1011941,0.0-227.0-1.0,null,,,<p></p>,null,,,,,,,,,,,,,
,do_trial,432,1014733,0.0-228.0-0.0,279.7000000476837,,,,,,49,1,0,0,4,coast,167,0.8090272798327212,0.2792424153946645,0.2550254488327914,1,learn,,
,html-keyboard-response,433,1015743,0.0-228.0-1.0,null,,,<p></p>,null,,,,,,,,,,,,,
,do_trial,434,1018571,0.0-229.0-0.0,318.59999990463257,,,,,,49,0,0,0,4,coast,168,0.7160191013084307,0.2760257588418301,0.32147325353499573,0,learn,,
,html-keyboard-response,435,1019572,0.0-229.0-1.0,null,,,<p></p>,null,,,,,,,,,,,,,
,do_trial,436,1022359,0.0-230.0-0.0,274.7999999523163,,,,,,49,1,0,1,4,coast,169,0.6522086592594966,0.07925730031331707,0.33921677798517086,1,learn,,
,html-keyboard-response,437,1023369,0.0-230.0-1.0,null,,,<p></p>,null,,,,,,,,,,,,,
,do_trial,438,1026146,0.0-231.0-0.0,266.7999999523163,,,,,,49,0,1,0,4,coast,170,0.5440209869372771,0.06207520849042979,0.3766251440019166,0,learn,,
,html-keyboard-response,439,1027164,0.0-231.0-1.0,null,,,<p></p>,null,,,,,,,,,,,,,
,do_trial,440,1030201,0.0-232.0-0.0,531.2999999523163,,,,,,49,1,1,1,4,coast,171,0.7783347547077931,0.11443572185602044,0.409107286698106,1,learn,,
,html-keyboard-response,441,1031218,0.0-232.0-1.0,null,,,<p></p>,null,,,,,,,,,,,,,
,do_trial,442,1034072,0.0-233.0-0.0,349.2000000476837,,,,,,49,0,0,1,4,coast,172,0.7488610772258233,0.24811451009252472,0.44732306796409105,0,learn,,
,html-keyboard-response,443,1035081,0.0-233.0-1.0,null,,,<p></p>,null,,,,,,,,,,,,,
,do_trial,444,1037826,0.0-234.0-0.0,229,,,,,,51,0,1,1,4,coast,173,0.6835144364209689,0.36114780467984053,0.4414036000745156,1,learn,,
,html-keyboard-response,445,1038828,0.0-234.0-1.0,null,,,<p></p>,null,,,,,,,,,,,,,
,do_trial,446,1041797,0.0-235.0-0.0,456.40000009536743,,,,,,51,1,1,1,4,coast,174,0.6560161449922376,0.10632520632783175,0.25173417428114,1,learn,,
,html-keyboard-response,447,1042809,0.0-235.0-1.0,null,,,<p></p>,null,,,,,,,,,,,,,
,do_trial,448,1045762,0.0-236.0-0.0,443.09999990463257,,,,,,51,0,0,1,4,coast,175,0.5870973263794295,0.14042761220410102,0.2657946285988432,1,learn,,
,html-keyboard-response,449,1046769,0.0-236.0-1.0,null,,,<p></p>,null,,,,,,,,,,,,,
,do_trial,450,1049581,0.0-237.0-0.0,299,,,,,,51,0,0,1,4,coast,176,0.6741259852385038,0.17005044066475122,0.3868799328087064,1,learn,,
,html-keyboard-response,451,1050590,0.0-237.0-1.0,null,,,<p></p>,null,,,,,,,,,,,,,
,do_trial,452,1053409,0.0-238.0-0.0,311.90000009536743,,,,,,51,1,0,0,4,coast,177,0.6759105930278377,0.1554268201216127,0.28228883899295704,0,learn,,
,html-keyboard-response,453,1054421,0.0-238.0-1.0,null,,,<p></p>,null,,,,,,,,,,,,,
,do_trial,454,1057208,0.0-239.0-0.0,276.39999985694885,,,,,,51,1,0,0,4,coast,178,0.6604588150428846,0.09786152179962494,0.3651649745102699,0,learn,,
,html-keyboard-response,455,1058222,0.0-239.0-1.0,null,,,<p></p>,null,,,,,,,,,,,,,
,do_trial,456,1061019,0.0-240.0-0.0,286.7000000476837,,,,,,51,1,1,0,4,coast,179,0.8126618661189104,0.2735927414048442,0.454987348069196,0,learn,,
,html-keyboard-response,457,1062029,0.0-240.0-1.0,null,,,<p></p>,null,,,,,,,,,,,,,
,do_trial,458,1064800,0.0-241.0-0.0,264.5,,,,,,50,0,0,1,4,coast,180,0.6518427608452737,0.2276799703077213,0.30339760198657656,0,learn,,
,html-keyboard-response,459,1065807,0.0-241.0-1.0,null,,,<p></p>,null,,,,,,,,,,,,,
,do_trial,460,1068684,0.0-242.0-0.0,365.7999999523163,,,,,,50,1,0,0,4,coast,181,0.6101855385691527,0.08335721150062089,0.3071534564368041,0,learn,,
,html-keyboard-response,461,1069695,0.0-242.0-1.0,null,,,<p></p>,null,,,,,,,,,,,,,
,do_trial,462,1072525,0.0-243.0-0.0,322.7999999523163,,,,,,50,0,0,0,4,coast,182,0.6149754006830128,0.0818608868519302,0.43913868726831207,0,learn,,
,html-keyboard-response,463,1073532,0.0-243.0-1.0,null,,,<p></p>,null,,,,,,,,,,,,,
,do_trial,464,1076387,0.0-244.0-0.0,349.10000014305115,,,,,,49,1,0,1,4,coast,183,0.7111427351501436,0.15616038112103117,0.46869112960969533,1,learn,,
,html-keyboard-response,465,1077392,0.0-244.0-1.0,null,,,<p></p>,null,,,,,,,,,,,,,
,do_trial,466,1080273,0.0-245.0-0.0,371.80000019073486,,,,,,49,1,0,0,4,coast,184,0.7153948919527442,0.10764568898822612,0.4580004752345407,1,learn,,
,html-keyboard-response,467,1081285,0.0-245.0-1.0,null,,,<p></p>,null,,,,,,,,,,,,,
,do_trial,468,1084098,0.0-246.0-0.0,307,,,,,,49,1,0,0,4,coast,185,0.6374146259294297,0.0853353597207348,0.43622510135169423,1,learn,,
,html-keyboard-response,469,1085103,0.0-246.0-1.0,null,,,<p></p>,null,,,,,,,,,,,,,
,do_trial,470,1087900,0.0-247.0-0.0,284.10000014305115,,,,,,49,0,0,1,4,coast,186,0.5259293977869401,0.1222574249027827,0.3992114719128893,0,learn,,
,html-keyboard-response,471,1088916,0.0-247.0-1.0,null,,,<p></p>,null,,,,,,,,,,,,,
,do_trial,472,1091718,0.0-248.0-0.0,294.2000000476837,,,,,,49,0,0,0,4,coast,187,0.5833486599193762,0.20476806865199593,0.41602824545339817,0,learn,,
,html-keyboard-response,473,1092727,0.0-248.0-1.0,null,,,<p></p>,null,,,,,,,,,,,,,
,do_trial,474,1095531,0.0-249.0-0.0,284.09999990463257,,,,,,49,0,0,1,4,coast,188,0.48733441241517195,0.18021629417066204,0.4315023354830673,0,learn,,
,html-keyboard-response,475,1096541,0.0-249.0-1.0,null,,,<p></p>,null,,,,,,,,,,,,,
,do_trial,476,1099334,0.0-250.0-0.0,286.2000000476837,,,,,,51,1,0,0,4,coast,189,0.6233933950174388,0.21168258092577177,0.31601144936216863,0,learn,,
,html-keyboard-response,477,1100345,0.0-250.0-1.0,null,,,<p></p>,null,,,,,,,,,,,,,
,do_bye,478,1101852,0.0-251.0-0.0,null,,,,,,null,,,,,,,,,,,
,do_travel,479,1110857,0.0-252.0-0.0,null,,,,,,null,,,,,,,,,,,
,do_welcome,480,1114884,0.0-252.0-1.0,null,,,,,,null,,,,,,,,,,,
,do_trial,481,1117815,0.0-253.0-0.0,423.39999985694885,,,,,,51,1,0,0,5,mountain,190,1,0.18292929665428748,0.3648649978377571,0,learn,,
,html-keyboard-response,482,1118831,0.0-253.0-1.0,null,,,<p></p>,null,,,,,,,,,,,,,
,do_trial,483,1121608,0.0-254.0-0.0,270.09999990463257,,,,,,51,1,0,1,5,mountain,191,1,0.17999744896780673,0.2710652609139698,1,learn,,
,html-keyboard-response,484,1122612,0.0-254.0-1.0,null,,,<p></p>,null,,,,,,,,,,,,,
,do_trial,485,1125381,0.0-255.0-0.0,250,,,,,,51,1,1,0,5,mountain,192,0.8909130525048444,0.19478961963323763,0.18935338362842036,0,learn,,
,html-keyboard-response,486,1126387,0.0-255.0-1.0,null,,,<p></p>,null,,,,,,,,,,,,,
,do_trial,487,1129641,0.0-256.0-0.0,747.2999999523163,,,,,,51,1,0,0,5,mountain,193,0.864019845622079,0.17703795135835884,0.10939223147056809,0,learn,,
,html-keyboard-response,488,1130653,0.0-256.0-1.0,null,,,<p></p>,null,,,,,,,,,,,,,
,do_trial,489,1133455,0.0-257.0-0.0,297.10000014305115,,,,,,50,1,0,1,5,mountain,194,0.8557933013862656,0.13308358513982205,0.23983121913914487,0,learn,,
,html-keyboard-response,490,1134464,0.0-257.0-1.0,null,,,<p></p>,null,,,,,,,,,,,,,
,do_trial,491,1137244,0.0-258.0-0.0,267.09999990463257,,,,,,50,1,0,1,5,mountain,195,0.8405402592207911,0.13064615394041126,0.15286607304451846,0,learn,,
,html-keyboard-response,492,1138253,0.0-258.0-1.0,null,,,<p></p>,null,,,,,,,,,,,,,
,do_trial,493,1141056,0.0-259.0-0.0,292.69999980926514,,,,,,50,1,0,0,5,mountain,196,0.7590172364147578,0.07835851977007614,0.26395114049480767,0,learn,,
,html-keyboard-response,494,1142058,0.0-259.0-1.0,null,,,<p></p>,null,,,,,,,,,,,,,
,do_trial,495,1144884,0.0-260.0-0.0,310.7000000476837,,,,,,49,1,0,0,5,mountain,197,0.6951185924974744,0.06737628974336107,0.28618907947914735,1,learn,,
,html-keyboard-response,496,1145888,0.0-260.0-1.0,null,,,<p></p>,null,,,,,,,,,,,,,
,do_trial,497,1148698,0.0-261.0-0.0,298.09999990463257,,,,,,49,1,0,0,5,mountain,198,0.7152175427621269,0.11822149354072078,0.32357098006405344,1,learn,,
,html-keyboard-response,498,1149707,0.0-261.0-1.0,null,,,<p></p>,null,,,,,,,,,,,,,
,do_trial,499,1152569,0.0-262.0-0.0,348.39999985694885,,,,,,49,1,0,1,5,mountain,199,0.7723827222795763,0.10563060318145391,0.35449554228623287,1,learn,,
,html-keyboard-response,500,1153578,0.0-262.0-1.0,null,,,<p></p>,null,,,,,,,,,,,,,
,do_trial,501,1156407,0.0-263.0-0.0,321.40000009536743,,,,,,49,0,0,1,5,mountain,200,0.5855938346475785,0.08252390407169616,0.3033714610902477,0,learn,,
,html-keyboard-response,502,1157408,0.0-263.0-1.0,null,,,<p></p>,null,,,,,,,,,,,,,
,do_trial,503,1160429,0.0-264.0-0.0,501.2999999523163,,,,,,49,0,0,1,5,mountain,201,0.4706577888432433,0.22235436763667898,0.3517221553888156,0,learn,,
,html-keyboard-response,504,1161434,0.0-264.0-1.0,null,,,<p></p>,null,,,,,,,,,,,,,
,do_trial,505,1164399,0.0-265.0-0.0,445.09999990463257,,,,,,49,1,0,0,5,mountain,202,0.37674457140770684,0.18963145609977983,0.546057226159874,1,learn,,
,html-keyboard-response,506,1165405,0.0-265.0-1.0,null,,,<p></p>,null,,,,,,,,,,,,,
,do_trial,507,1168162,0.0-266.0-0.0,245,,,,,,49,0,0,0,5,mountain,203,0.3564689999634592,0.12264999114767439,0.5446618814520996,0,learn,,
,html-keyboard-response,508,1169164,0.0-266.0-1.0,null,,,<p></p>,null,,,,,,,,,,,,,
,do_trial,509,1172150,0.0-267.0-0.0,477.90000009536743,,,,,,51,0,0,1,5,mountain,204,0.3135476311070972,0.1346211618606905,0.6472406851238556,1,learn,,
,html-keyboard-response,510,1173159,0.0-267.0-1.0,null,,,<p></p>,null,,,,,,,,,,,,,
,do_trial,511,1175937,0.0-268.0-0.0,270.2999999523163,,,,,,51,0,0,0,5,mountain,205,0.1972132792510822,0.2768748200092881,0.5670345193353193,0,learn,,
,html-keyboard-response,512,1176951,0.0-268.0-1.0,null,,,<p></p>,null,,,,,,,,,,,,,
,do_trial,513,1179728,0.0-269.0-0.0,254.39999985694885,,,,,,51,0,0,0,5,mountain,206,0.12729870073012145,0.22058742310184187,0.5317629666601612,0,learn,,
,html-keyboard-response,514,1180734,0.0-269.0-1.0,null,,,<p></p>,null,,,,,,,,,,,,,
,do_trial,515,1183521,0.0-270.0-0.0,274.09999990463257,,,,,,51,0,0,1,5,mountain,207,0.0994686877052672,0.3779135125606576,0.6392992041458851,1,learn,,
,html-keyboard-response,516,1184527,0.0-270.0-1.0,null,,,<p></p>,null,,,,,,,,,,,,,
,do_trial,517,1187364,0.0-271.0-0.0,321.69999980926514,,,,,,51,0,1,0,5,mountain,208,0.21097988712408366,0.29819424676005496,0.6968174331594588,0,learn,,
,html-keyboard-response,518,1188376,0.0-271.0-1.0,null,,,<p></p>,null,,,,,,,,,,,,,
,do_trial,519,1191187,0.0-272.0-0.0,301.7999999523163,,,,,,50,0,0,1,5,mountain,209,0.16114299568351456,0.15073341303983934,0.6688879210316715,0,learn,,
,html-keyboard-response,520,1192205,0.0-272.0-1.0,null,,,<p></p>,null,,,,,,,,,,,,,
,do_trial,521,1195049,0.0-273.0-0.0,333.40000009536743,,,,,,50,0,0,1,5,mountain,210,0.17169319289321358,0.22391943746388576,0.7579396352886189,0,learn,,
,html-keyboard-response,522,1196058,0.0-273.0-1.0,null,,,<p></p>,null,,,,,,,,,,,,,
,do_trial,523,1198903,0.0-274.0-0.0,338.39999985694885,,,,,,50,1,0,0,5,mountain,211,0.17600174529682014,0.24087701122335237,0.705820209732649,0,learn,,
,html-keyboard-response,524,1199907,0.0-274.0-1.0,null,,,<p></p>,null,,,,,,,,,,,,,
,do_trial,525,1202691,0.0-275.0-0.0,274.5,,,,,,49,0,1,1,5,mountain,212,0.07838400201262631,0.3549730458670733,0.617349362909996,0,learn,,
,html-keyboard-response,526,1203699,0.0-275.0-1.0,null,,,<p></p>,null,,,,,,,,,,,,,
,do_trial,527,1206345,0.0-276.0-0.0,141.29999995231628,,,,,,49,0,1,0,5,mountain,213,0.06335050145930328,0.30207186590002094,0.5333049036214562,0,learn,,
,html-keyboard-response,528,1207356,0.0-276.0-1.0,null,,,<p></p>,null,,,,,,,,,,,,,
,do_trial,529,1210141,0.0-277.0-0.0,277.7999999523163,,,,,,49,0,0,1,5,mountain,214,0.19034124984809062,0.23049406638815154,0.4738258424321087,0,learn,,
,html-keyboard-response,530,1211146,0.0-277.0-1.0,null,,,<p></p>,null,,,,,,,,,,,,,
,do_trial,531,1213930,0.0-278.0-0.0,276.60000014305115,,,,,,51,0,1,0,5,mountain,215,0.20044371942970038,0.2948900140393925,0.5838863486572932,0,learn,,
,html-keyboard-response,532,1214937,0.0-278.0-1.0,null,,,<p></p>,null,,,,,,,,,,,,,
,do_trial,533,1217724,0.0-279.0-0.0,267.5,,,,,,51,0,0,0,5,mountain,216,0.2269737681876574,0.3715430617915517,0.6646400380146572,0,learn,,
,html-keyboard-response,534,1218734,0.0-279.0-1.0,null,,,<p></p>,null,,,,,,,,,,,,,
,do_trial,535,1221545,0.0-280.0-0.0,293,,,,,,51,0,1,1,5,mountain,217,0.19946258668334937,0.45997249755490494,0.5120625101390438,1,learn,,
,html-keyboard-response,536,1222555,0.0-280.0-1.0,null,,,<p></p>,null,,,,,,,,,,,,,
,do_trial,537,1225332,0.0-281.0-0.0,263.7000000476837,,,,,,51,0,0,0,5,mountain,218,0.11166710719221724,0.4263633350118644,0.6215557213483972,0,learn,,
,html-keyboard-response,538,1226336,0.0-281.0-1.0,null,,,<p></p>,null,,,,,,,,,,,,,
,do_trial,539,1229152,0.0-282.0-0.0,302.90000009536743,,,,,,49,0,0,0,5,mountain,219,0.10147344536859555,0.31564343363039177,0.618926569618461,0,learn,,
,html-keyboard-response,540,1230163,0.0-282.0-1.0,null,,,<p></p>,null,,,,,,,,,,,,,
,do_trial,541,1232984,0.0-283.0-0.0,307.90000009536743,,,,,,49,0,0,1,5,mountain,220,0.09714844672047662,0.35288372534305906,0.6350531268786886,0,learn,,
,html-keyboard-response,542,1233992,0.0-283.0-1.0,null,,,<p></p>,null,,,,,,,,,,,,,
,do_trial,543,1236787,0.0-284.0-0.0,283,,,,,,49,0,1,0,5,mountain,221,0.3533350330236983,0.3886588579050655,0.618699054330286,0,learn,,
,html-keyboard-response,544,1237796,0.0-284.0-1.0,null,,,<p></p>,null,,,,,,,,,,,,,
,do_trial,545,1240613,0.0-285.0-0.0,304.7999999523163,,,,,,51,0,0,1,5,mountain,222,0.22821561280887323,0.351833032827931,0.6615472929930427,1,learn,,
,html-keyboard-response,546,1241618,0.0-285.0-1.0,null,,,<p></p>,null,,,,,,,,,,,,,
,do_trial,547,1244446,0.0-286.0-0.0,314,,,,,,51,0,0,1,5,mountain,223,0.1746776513618524,0.2910674297836663,0.7048712344030384,1,learn,,
,html-keyboard-response,548,1245456,0.0-286.0-1.0,null,,,<p></p>,null,,,,,,,,,,,,,
,do_trial,549,1248259,0.0-287.0-0.0,292.90000009536743,,,,,,51,0,0,1,5,mountain,224,0.1519874364519392,0.21103282611091814,0.6573190266001427,1,learn,,
,html-keyboard-response,550,1249268,0.0-287.0-1.0,null,,,<p></p>,null,,,,,,,,,,,,,
,do_trial,551,1252062,0.0-288.0-0.0,283.59999990463257,,,,,,51,0,0,1,5,mountain,225,0.0731959778854594,0.3339124705284723,0.6285974680496242,1,learn,,
,html-keyboard-response,552,1253079,0.0-288.0-1.0,null,,,<p></p>,null,,,,,,,,,,,,,
,do_trial,553,1255876,0.0-289.0-0.0,289.69999980926514,,,,,,51,0,1,1,5,mountain,226,0.06335570884089792,0.36951243976028636,0.6343117471655415,1,learn,,
,html-keyboard-response,554,1256884,0.0-289.0-1.0,null,,,<p></p>,null,,,,,,,,,,,,,
,do_trial,555,1259729,0.0-290.0-0.0,333.30000019073486,,,,,,51,0,1,1,5,mountain,227,0.12838587901065096,0.4344948052866888,0.6445008179490046,1,learn,,
,html-keyboard-response,556,1260748,0.0-290.0-1.0,null,,,<p></p>,null,,,,,,,,,,,,,
,do_trial,557,1263531,0.0-291.0-0.0,275.89999985694885,,,,,,51,0,0,1,5,mountain,228,0.09828013458090169,0.3245342384566085,0.5152889788527751,1,learn,,
,html-keyboard-response,558,1264535,0.0-291.0-1.0,null,,,<p></p>,null,,,,,,,,,,,,,
,do_trial,559,1267334,0.0-292.0-0.0,290.2999999523163,,,,,,51,0,0,1,5,mountain,229,0.07435227113490064,0.3717626893848099,0.5912584947277302,1,learn,,
,html-keyboard-response,560,1268340,0.0-292.0-1.0,null,,,<p></p>,null,,,,,,,,,,,,,
,do_bye,561,1269848,0.0-293.0-0.0,null,,,,,,null,,,,,,,,,,,
,html-keyboard-response,562,1272384,0.0-293.0-1.0,2535.7999999523163,,,<div class=center><p>Nice job plundering!</p><p>Press <b>space</b> to head back to pirate HQ.</p></div>,32,,,,,,,,,,,,,
,html-keyboard-response,563,1279536,0.0-294.0-0.0,7147.700000047684,,,<div class=center><p>We have to sail past the islands again to get back to pirate HQ. We've just got wind that there is a huge storm approaching, so while we are going to stop at each island, we won't have time to see if our plunders are successful or not.</p><p>Press <b>space</b> to continue.</p></div>,32,,,,,,,,,,,,,
,judgement_attention_check,564,1282373,0.0-295.0-0.0,2835.4000000953674,,,<div class='center'><p>Press <b>Z</b> to use the telescope to see what island is coming next!</p></div>,90,,,,,,,,,,,,0,true
,do_welcome,565,1287384,0.0-295.0-1.0,null,,,,,,null,,,,,,,,,,,
,do_trial,566,1292666,0.0-296.0-0.0,771.9000000953674,,,,,,49,0,0,1,0,highway,230,,,,0,judgement,,
,html-keyboard-response,567,1293673,0.0-296.0-1.0,null,,,<p></p>,null,,,,,,,,,,,,,
,do_trial,568,1298522,0.0-297.0-0.0,338.2999999523163,,,,,,49,1,0,0,0,highway,231,,,,1,judgement,,
,html-keyboard-response,569,1299524,0.0-297.0-1.0,null,,,<p></p>,null,,,,,,,,,,,,,
,do_trial,570,1304302,0.0-298.0-0.0,267.7999999523163,,,,,,49,0,1,1,0,highway,232,,,,0,judgement,,
,html-keyboard-response,571,1305315,0.0-298.0-1.0,null,,,<p></p>,null,,,,,,,,,,,,,
,do_trial,572,1310059,0.0-299.0-0.0,226.70000004768372,,,,,,49,0,1,0,0,highway,233,,,,0,judgement,,
,html-keyboard-response,573,1311068,0.0-299.0-1.0,null,,,<p></p>,null,,,,,,,,,,,,,
,do_trial,574,1315882,0.0-300.0-0.0,299.90000009536743,,,,,,49,0,0,1,0,highway,234,,,,0,judgement,,
,html-keyboard-response,575,1316885,0.0-300.0-1.0,null,,,<p></p>,null,,,,,,,,,,,,,
,html-keyboard-response,576,1316887,0.0-301.0-0.0,null,,,,null,,,,,,,,,,,,,
,judgement_attention_check,577,1318967,0.0-302.0-0.0,2075.899999856949,,,<div class='center'><p>Press <b>Z</b> to use the telescope to see what island is coming next!</p></div>,90,,,,,,,,,,,,1,true
,do_welcome,578,1323975,0.0-302.0-1.0,null,,,,,,null,,,,,,,,,,,
,do_trial,579,1328929,0.0-303.0-0.0,441,,,,,,50,0,1,1,1,city,235,,,,1,judgement,,
,html-keyboard-response,580,1329943,0.0-303.0-1.0,null,,,<p></p>,null,,,,,,,,,,,,,
,do_trial,581,1334730,0.0-304.0-0.0,276.2999999523163,,,,,,50,0,0,0,1,city,236,,,,0,judgement,,
,html-keyboard-response,582,1335739,0.0-304.0-1.0,null,,,<p></p>,null,,,,,,,,,,,,,
,do_trial,583,1340518,0.0-305.0-0.0,268.90000009536743,,,,,,50,1,0,1,1,city,237,,,,0,judgement,,
,html-keyboard-response,584,1341529,0.0-305.0-1.0,null,,,<p></p>,null,,,,,,,,,,,,,
,do_trial,585,1346358,0.0-306.0-0.0,316.59999990463257,,,,,,50,0,0,0,1,city,238,,,,0,judgement,,
,html-keyboard-response,586,1347366,0.0-306.0-1.0,null,,,<p></p>,null,,,,,,,,,,,,,
,do_trial,587,1352140,0.0-307.0-0.0,256,,,,,,50,1,1,1,1,city,239,,,,1,judgement,,
,html-keyboard-response,588,1353142,0.0-307.0-1.0,null,,,<p></p>,null,,,,,,,,,,,,,
,html-keyboard-response,589,1353144,0.0-308.0-0.0,null,,,,null,,,,,,,,,,,,,
,judgement_attention_check,590,1354745,0.0-309.0-0.0,1600,,,<div class='center'><p>Press <b>Z</b> to use the telescope to see what island is coming next!</p></div>,90,,,,,,,,,,,,2,true
,do_welcome,591,1359753,0.0-309.0-1.0,null,,,,,,null,,,,,,,,,,,
,do_trial,592,1365046,0.0-310.0-0.0,778,,,,,,51,0,1,1,2,forest,240,,,,1,judgement,,
,html-keyboard-response,593,1366056,0.0-310.0-1.0,null,,,<p></p>,null,,,,,,,,,,,,,
,do_trial,594,1370869,0.0-311.0-0.0,300,,,,,,51,0,1,0,2,forest,241,,,,0,judgement,,
,html-keyboard-response,595,1371880,0.0-311.0-1.0,null,,,<p></p>,null,,,,,,,,,,,,,
,do_trial,596,1376667,0.0-312.0-0.0,274.7000000476837,,,,,,51,1,0,1,2,forest,242,,,,1,judgement,,
,html-keyboard-response,597,1377676,0.0-312.0-1.0,null,,,<p></p>,null,,,,,,,,,,,,,
,do_trial,598,1382589,0.0-313.0-0.0,404.7999999523163,,,,,,51,0,1,0,2,forest,243,,,,0,judgement,,
,html-keyboard-response,599,1383599,0.0-313.0-1.0,null,,,<p></p>,null,,,,,,,,,,,,,
,do_trial,600,1388363,0.0-314.0-0.0,255.20000004768372,,,,,,51,0,0,0,2,forest,244,,,,0,judgement,,
,html-keyboard-response,601,1389372,0.0-314.0-1.0,null,,,<p></p>,null,,,,,,,,,,,,,
,html-keyboard-response,602,1389375,0.0-315.0-0.0,null,,,,null,,,,,,,,,,,,,
,judgement_attention_check,603,1390475,0.0-316.0-0.0,1096.1000001430511,,,<div class='center'><p>Press <b>Z</b> to use the telescope to see what island is coming next!</p></div>,90,,,,,,,,,,,,3,true
,do_welcome,604,1395482,0.0-316.0-1.0,null,,,,,,null,,,,,,,,,,,
,do_trial,605,1400509,0.0-317.0-0.0,519,,,,,,49,0,0,0,3,countryside,245,,,,0,judgement,,
,html-keyboard-response,606,1401520,0.0-317.0-1.0,null,,,<p></p>,null,,,,,,,,,,,,,
,do_trial,607,1406291,0.0-318.0-0.0,263.09999990463257,,,,,,49,0,0,1,3,countryside,246,,,,0,judgement,,
,html-keyboard-response,608,1407301,0.0-318.0-1.0,null,,,<p></p>,null,,,,,,,,,,,,,
,do_trial,609,1412045,0.0-319.0-0.0,237.59999990463257,,,,,,49,1,0,0,3,countryside,247,,,,1,judgement,,
,html-keyboard-response,610,1413047,0.0-319.0-1.0,null,,,<p></p>,null,,,,,,,,,,,,,
,do_trial,611,1417937,0.0-320.0-0.0,377.90000009536743,,,,,,49,1,0,0,3,countryside,248,,,,1,judgement,,
,html-keyboard-response,612,1418954,0.0-320.0-1.0,null,,,<p></p>,null,,,,,,,,,,,,,
,do_trial,613,1423768,0.0-321.0-0.0,308.89999985694885,,,,,,49,0,1,0,3,countryside,249,,,,0,judgement,,
,html-keyboard-response,614,1424769,0.0-321.0-1.0,null,,,<p></p>,null,,,,,,,,,,,,,
,html-keyboard-response,615,1424772,0.0-322.0-0.0,null,,,,null,,,,,,,,,,,,,
,judgement_attention_check,616,1426170,0.0-323.0-0.0,1397.4000000953674,,,<div class='center'><p>Press <b>Z</b> to use the telescope to see what island is coming next!</p></div>,90,,,,,,,,,,,,4,true
,do_welcome,617,1431176,0.0-323.0-1.0,null,,,,,,null,,,,,,,,,,,
,do_trial,618,1436163,0.0-324.0-0.0,480.90000009536743,,,,,,49,0,0,0,4,coast,250,,,,0,judgement,,
,html-keyboard-response,619,1437165,0.0-324.0-1.0,null,,,<p></p>,null,,,,,,,,,,,,,
,do_trial,620,1442005,0.0-325.0-0.0,325.2999999523163,,,,,,49,0,1,0,4,coast,251,,,,0,judgement,,
,html-keyboard-response,621,1443021,0.0-325.0-1.0,null,,,<p></p>,null,,,,,,,,,,,,,
,do_trial,622,1447913,0.0-326.0-0.0,380.60000014305115,,,,,,49,0,0,1,4,coast,252,,,,0,judgement,,
,html-keyboard-response,623,1448925,0.0-326.0-1.0,null,,,<p></p>,null,,,,,,,,,,,,,
,do_trial,624,1453765,0.0-327.0-0.0,333.2000000476837,,,,,,49,1,0,0,4,coast,253,,,,1,judgement,,
,html-keyboard-response,625,1454772,0.0-327.0-1.0,null,,,<p></p>,null,,,,,,,,,,,,,
,do_trial,626,1459578,0.0-328.0-0.0,301.2000000476837,,,,,,49,1,0,1,4,coast,254,,,,1,judgement,,
,html-keyboard-response,627,1460584,0.0-328.0-1.0,null,,,<p></p>,null,,,,,,,,,,,,,
,html-keyboard-response,628,1460586,0.0-329.0-0.0,null,,,,null,,,,,,,,,,,,,
,judgement_attention_check,629,1462227,0.0-330.0-0.0,1639.8999998569489,,,<div class='center'><p>Press <b>Z</b> to use the telescope to see what island is coming next!</p></div>,90,,,,,,,,,,,,5,true
,do_welcome,630,1467233,0.0-330.0-1.0,null,,,,,,null,,,,,,,,,,,
,do_trial,631,1472069,0.0-331.0-0.0,328.89999985694885,,,,,,51,1,0,0,5,mountain,255,,,,0,judgement,,
,html-keyboard-response,632,1473082,0.0-331.0-1.0,null,,,<p></p>,null,,,,,,,,,,,,,
,do_trial,633,1477861,0.0-332.0-0.0,261.7999999523163,,,,,,51,1,1,0,5,mountain,256,,,,0,judgement,,
,html-keyboard-response,634,1478871,0.0-332.0-1.0,null,,,<p></p>,null,,,,,,,,,,,,,
,do_trial,635,1483622,0.0-333.0-0.0,244.20000004768372,,,,,,51,1,0,0,5,mountain,257,,,,0,judgement,,
,html-keyboard-response,636,1484630,0.0-333.0-1.0,null,,,<p></p>,null,,,,,,,,,,,,,
,do_trial,637,1489405,0.0-334.0-0.0,268.2000000476837,,,,,,51,1,0,0,5,mountain,258,,,,0,judgement,,
,html-keyboard-response,638,1490415,0.0-334.0-1.0,null,,,<p></p>,null,,,,,,,,,,,,,
,do_trial,639,1495180,0.0-335.0-0.0,261.7000000476837,,,,,,51,0,0,0,5,mountain,259,,,,0,judgement,,
,html-keyboard-response,640,1496188,0.0-335.0-1.0,null,,,<p></p>,null,,,,,,,,,,,,,
,html-keyboard-response,641,1497874,0.0-336.0-0.0,1683.4000000953674,,,<div style='position: fixed; top: 0; left: 0; width: 100%; height: 100%; background-color: white; display: flex; align-items: center; justify-content: center;'><div><h2>We've made it to Pirate HQ!</h2><p>Press <b>space</b> to proceed.</p></div></div>,32,,,,,,,,,,,,,
