success,trial_type,trial_index,time_elapsed,internal_node_id,rt,responses,subject_id,stimulus,key_press,prompt,response,choice_outcomes,context_n,context_img_id,trial_n,pR_red,pR_white,pR_black,outcome,phase
true,fullscreen,0,3413,0.0-0.0,,,,,,,,,,,,,,,,
,survey-html-form,1,8817,0.0-1.0,5399.200000286102,{worker_id:69838c967c78c6ef18426fba},69838c967c78c6ef18426fba,,,,,,,,,,,,,
,instruc1,2,10823,0.0-2.0,null,,69838c967c78c6ef18426fba,<div class='center'><p>Welcome! This study will last ~30 minutes. After the instructions there will be a practice game and quiz to make sure you understand the task. Today you will be the head captain of a pirate ship traveling around the world to different islands. Here is an overview of what you will be doing:</p><br><p> 1. Try to find the most successful pirate on 6 different islands</p><p> 2. Recall which pirates did the best on each island</p><br><p>,null,<div class='center'><p>Welcome! This study will last ~30 minutes. After the instructions there will be a practice game and quiz to make sure you understand the task. Today you will be the head captain of a pirate ship traveling around the world to different islands. Here is an overview of what you will be doing:</p><br><p> 1. Try to find the most successful pirate on 6 different islands</p><p> 2. Recall which pirates did the best on each island</p><br><p>,,,,,,,,,,
,html-keyboard-response,3,21245,0.0-3.0,10418.799999713898,,,<div class='center'><p>Welcome! This study will last ~30 minutes. After the instructions there will be a practice game and quiz to make sure you understand the task. Today you will be the head captain of a pirate ship traveling around the world to different islands. Here is an overview of what you will be doing:</p><br><p> 1. Try to find the most successful pirate on 6 different islands</p><p> 2. Recall which pirates did the best on each island</p><br><p><p><b>[Press the space bar to continue]</b></p></div>,32,,,,,,,,,,,
,instruc2,4,23248,0.0-4.0,null,,,<div class='center'><p>You are going to visit these 6 islands on your journey. You'll be able to see these islands from your ship.</p><p><img src='../static/images/contexts/all_contexts.png' height='500'></p></div>,null,<div class='center'><p>You are going to visit these 6 islands on your journey. You'll be able to see these islands from your ship.</p><p><img src='../static/images/contexts/all_contexts.png' height='500'></p></div>,,,,,,,,,,
,html-keyboard-response,5,31555,0.0-5.0,8304.60000038147,,,<div class='center'><p>You are going to visit these 6 islands on your journey. You'll be able to see these islands from your ship.</p><p><img src='../static/images/contexts/all_contexts.png' height='500'></p><p><b>[Press the space bar to continue]</b></p></div>,32,,,,,,,,,,,
,instruc4,6,33557,0.0-6.0,null,,,<div class='center'><p>As the head captain, you do not have to rob any ships yourself. Another pirate will be doing the robbing for you. First, you will choose a pirate to rob the next ship.</p><p><img src='../static/images/tutorial/pirates_all_crop.png' height='200'></p><p>Then, you'll see if the pirate successfully robbed the ship of their gold. If they were successful, then you'll get a stack of gold coins like this:</p><p><img src='../static/images/tutorial/reward.png' height='150'></p><p> If they were <b>not</b> successful, then you'll get no gold coins, and you'll see a big red x like this: </p><p><img src='../static/images/tutorial/reward_no.png' height='150'></p><p> How much bonus money you make is based on how many gold coins you collect.</p><div>,null,<div class='center'><p>As the head captain, you do not have to rob any ships yourself. Another pirate will be doing the robbing for you. First, you will choose a pirate to rob the next ship.</p><p><img src='../static/images/tutorial/pirates_all_crop.png' height='200'></p><p>Then, you'll see if the pirate successfully robbed the ship of their gold. If they were successful, then you'll get a stack of gold coins like this:</p><p><img src='../static/images/tutorial/reward.png' height='150'></p><p> If they were <b>not</b> successful, then you'll get no gold coins, and you'll see a big red x like this: </p><p><img src='../static/images/tutorial/reward_no.png' height='150'></p><p> How much bonus money you make is based on how many gold coins you collect.</p><div>,,,,,,,,,,
,html-keyboard-response,7,52029,0.0-7.0,18469.699999809265,,,<div class='center'><p>As the head captain, you do not have to rob any ships yourself. Another pirate will be doing the robbing for you. First, you will choose a pirate to rob the next ship.</p><p><img src='../static/images/tutorial/pirates_all_crop.png' height='200'></p><p>Then, you'll see if the pirate successfully robbed the ship of their gold. If they were successful, then you'll get a stack of gold coins like this:</p><p><img src='../static/images/tutorial/reward.png' height='150'></p><p> If they were <b>not</b> successful, then you'll get no gold coins, and you'll see a big red x like this: </p><p><img src='../static/images/tutorial/reward_no.png' height='150'></p><p> How much bonus money you make is based on how many gold coins you collect.</p><div><p><b>[Press the space bar to continue]</b></p></div>,32,,,,,,,,,,,
,instruc5,8,72984,0.0-8.0,20953,,,<div class='center'><p>Even the most skilled pirate can not rob EVERY ship.</p><p> Some ships will have very strong protections against pirate attacks.</p><p> Blue beard, here, is very, very good at robbing ships, but he won't be successful every time he tries to rob one.</p><p> You can press the <b>'1'</b> key on the keyboard to choose him.</p><p> Try choosing him 10 times to see how often he succeeds at robbing a ship. </p><p><img src='../static/images/tutorial/blue.png' height='500'></p></div>,49,<div class='center'><p>Even the most skilled pirate can not rob EVERY ship.</p><p> Some ships will have very strong protections against pirate attacks.</p><p> Blue beard, here, is very, very good at robbing ships, but he won't be successful every time he tries to rob one.</p><p> You can press the <b>'1'</b> key on the keyboard to choose him.</p><p> Try choosing him 10 times to see how often he succeeds at robbing a ship. </p><p><img src='../static/images/tutorial/blue.png' height='500'></p></div>,,,,,,,,,,
,html-keyboard-response,9,74488,0.0-9.0,null,,,<div class='center'><p><img src='../static/images/tutorial/blue_win.png' height='500'></p></div>,null,,,,,,,,,,,
,html-keyboard-response,10,75401,0.0-10.0,911.5999999046326,,,<div class='center'><img src='../static/images/tutorial/blue.png' height='500'></p></div>,49,,,,,,,,,,,
,html-keyboard-response,11,76904,0.0-11.0,null,,,<div class='center'><p><img src='../static/images/tutorial/blue_win.png' height='500'></p></div>,null,,,,,,,,,,,
,html-keyboard-response,12,77290,0.0-12.0,384.80000019073486,,,<div class='center'><img src='../static/images/tutorial/blue.png' height='500'></p></div>,49,,,,,,,,,,,
,html-keyboard-response,13,78792,0.0-13.0,null,,,<div class='center'><p><img src='../static/images/tutorial/blue_win.png' height='500'></p></div>,null,,,,,,,,,,,
,html-keyboard-response,14,79147,0.0-14.0,353.59999990463257,,,<div class='center'><img src='../static/images/tutorial/blue.png' height='500'></p></div>,49,,,,,,,,,,,
,html-keyboard-response,15,80650,0.0-15.0,null,,,<div class='center'><p><img src='../static/images/tutorial/blue_no_win.png' height='500'></p></div>,null,,,,,,,,,,,
,html-keyboard-response,16,81009,0.0-16.0,357.40000009536743,,,<div class='center'><img src='../static/images/tutorial/blue.png' height='500'></p></div>,49,,,,,,,,,,,
,html-keyboard-response,17,82511,0.0-17.0,null,,,<div class='center'><p><img src='../static/images/tutorial/blue_win.png' height='500'></p></div>,null,,,,,,,,,,,
,html-keyboard-response,18,82881,0.0-18.0,368.5,,,<div class='center'><img src='../static/images/tutorial/blue.png' height='500'></p></div>,49,,,,,,,,,,,
,html-keyboard-response,19,84384,0.0-19.0,null,,,<div class='center'><p><img src='../static/images/tutorial/blue_win.png' height='500'></p></div>,null,,,,,,,,,,,
,html-keyboard-response,20,84748,0.0-20.0,362.5,,,<div class='center'><img src='../static/images/tutorial/blue.png' height='500'></p></div>,49,,,,,,,,,,,
,html-keyboard-response,21,86250,0.0-21.0,null,,,<div class='center'><p><img src='../static/images/tutorial/blue_win.png' height='500'></p></div>,null,,,,,,,,,,,
,html-keyboard-response,22,86628,0.0-22.0,376.30000019073486,,,<div class='center'><img src='../static/images/tutorial/blue.png' height='500'></p></div>,49,,,,,,,,,,,
,html-keyboard-response,23,88130,0.0-23.0,null,,,<div class='center'><p><img src='../static/images/tutorial/blue_no_win.png' height='500'></p></div>,null,,,,,,,,,,,
,html-keyboard-response,24,88423,0.0-24.0,291.40000009536743,,,<div class='center'><img src='../static/images/tutorial/blue.png' height='500'></p></div>,49,,,,,,,,,,,
,html-keyboard-response,25,89925,0.0-25.0,null,,,<div class='center'><p><img src='../static/images/tutorial/blue_win.png' height='500'></p></div>,null,,,,,,,,,,,
,html-keyboard-response,26,90251,0.0-26.0,324.7000002861023,,,<div class='center'><img src='../static/images/tutorial/blue.png' height='500'></p></div>,49,,,,,,,,,,,
,html-keyboard-response,27,91753,0.0-27.0,null,,,<div class='center'><p><img src='../static/images/tutorial/blue_win.png' height='500'></p></div>,null,,,,,,,,,,,
,instruc6,28,93755,0.0-28.0,null,,,<div class='center'><p> See, he succeeded in robbing the ships most of the time but not every time. </p></div>,null,<div class='center'><p> See, he succeeded in robbing the ships most of the time but not every time. </p></div>,,,,,,,,,,
,html-keyboard-response,29,94841,0.0-29.0,1085.1999998092651,,,<div class='center'><p> See, he succeeded in robbing the ships most of the time but not every time. </p><p><b>[Press the space bar to continue]</b></p></div>,32,,,,,,,,,,,
,html-keyboard-response,30,104217,0.0-30.0,9373.800000190735,,,<div class='center'><p>From these three pirates, you will get to choose which one you want to rob the next ship. <p>Press the <b>'1'</b> key on your keyboard to pick the pirate with the red beard.</p><p> Press <b>'2'</b> to pick the pirate with the white beard.</p><p> Press <b>'3'</b> to pick the pirate with the black beard.</p><p>Try picking a pirate now!</p><p><img src='../static/images/tutorial/all_pirates.png' height='500'></p></div>,51,,,,,,,,,,,
,html-keyboard-response,31,106754,0.0-31.0-0.0,2533.5999999046326,,,<div class='center'><p>Yay! This pirate succeeded in robbing the ship!</p><p><img src='../static/images/tutorial/black_win.png' height='500'></p><p><b>[Press the space bar to continue]</b></p></div>,32,,,,,,,,,,,
,html-keyboard-response,32,108797,0.0-31.0-1.0,2041.0999999046326,,,<div class='center'><p>Now try choosing another.</p><p><img src='../static/images/tutorial/all_pirates.png' height='500'></p></div>,50,,,,,,,,,,,
,html-keyboard-response,33,110632,0.0-32.0-0.0,1831.7000002861023,,,<div class='center'><p>Oh no! This pirate did not succeed in robbing the ship.</p><p><img src='../static/images/tutorial/white_no_win.png' height='500'></p><p><b>[Press the space bar to continue]</b></p></div>,32,,,,,,,,,,,
,instruc9,34,112634,0.0-33.0-0.0,null,,,<div class='center'><p>If you don't make your choice fast enough, you'll have to wait a few seconds before you can make another one. </p><p><img src='../static/images/miscellaneous/hurry_up.png' height='500'></p></div>,null,<div class='center'><p>If you don't make your choice fast enough, you'll have to wait a few seconds before you can make another one. </p><p><img src='../static/images/miscellaneous/hurry_up.png' height='500'></p></div>,,,,,,,,,,
,html-keyboard-response,35,114500,0.0-33.0-1.0,1864.3999996185303,,,<div class='center'><p>If you don't make your choice fast enough, you'll have to wait a few seconds before you can make another one. </p><p><img src='../static/images/miscellaneous/hurry_up.png' height='500'></p><p><b>[Press the space bar to continue]</b></p></div>,32,,,,,,,,,,,
,instruc11,36,116502,0.0-33.0-2.0,null,,,<div class='center'><p>How successful a pirate is at robbing ships will depend on the island you're on.</p><p> A pirate may have visited this island many times before and gained a lot of practice robbing ships there.</p><p>So, they're more likely to be successful than a pirate who has never visited the island before.</p></div>,null,<div class='center'><p>How successful a pirate is at robbing ships will depend on the island you're on.</p><p> A pirate may have visited this island many times before and gained a lot of practice robbing ships there.</p><p>So, they're more likely to be successful than a pirate who has never visited the island before.</p></div>,,,,,,,,,,
,html-keyboard-response,37,132046,0.0-33.0-3.0,15543.10000038147,,,<div class='center'><p>How successful a pirate is at robbing ships will depend on the island you're on.</p><p> A pirate may have visited this island many times before and gained a lot of practice robbing ships there.</p><p>So, they're more likely to be successful than a pirate who has never visited the island before.</p><p><b>[Press the space bar to continue]</b></p></div>,32,,,,,,,,,,,
,instruc12,38,134048,0.0-33.0-4.0,null,,,<div class='center'><p>How successful a pirate is at robbing ships can also change over the time spent on the island. </p><p> Ships may hear from islanders about the pirates coming and will improve their protections against the attack. This may make it harder to rob them.</p><p> Ships may also become lazy and weaken the strength of their protections. This may make it easier to rob them.</p><br><p>Things are always changing on the high seas! So, try your best to pay attention!</p><p><img src='../static/images/tutorial/contingency.png' height='500'></p></div>,null,<div class='center'><p>How successful a pirate is at robbing ships can also change over the time spent on the island. </p><p> Ships may hear from islanders about the pirates coming and will improve their protections against the attack. This may make it harder to rob them.</p><p> Ships may also become lazy and weaken the strength of their protections. This may make it easier to rob them.</p><br><p>Things are always changing on the high seas! So, try your best to pay attention!</p><p><img src='../static/images/tutorial/contingency.png' height='500'></p></div>,,,,,,,,,,
,html-keyboard-response,39,152623,0.0-33.0-5.0,18572.699999809265,,,<div class='center'><p>How successful a pirate is at robbing ships can also change over the time spent on the island. </p><p> Ships may hear from islanders about the pirates coming and will improve their protections against the attack. This may make it harder to rob them.</p><p> Ships may also become lazy and weaken the strength of their protections. This may make it easier to rob them.</p><br><p>Things are always changing on the high seas! So, try your best to pay attention!</p><p><img src='../static/images/tutorial/contingency.png' height='500'></p><p><b>[Press the space bar to continue]</b></p></div>,32,,,,,,,,,,,
,instruc13,40,154625,0.0-33.0-6.0,null,,,<div class='center'><p>Let's go over the instructions quickly again. You have one thing to do: </p><p><b>Pick the pirate who is the best at robbing ships on the current island.</b></p><p>The amount of bonus money you win depends on it.</p><br><p>Let's try a practice game. The game will start by showing you an island. Pick a pirate using the <b>1, 2, 3</b> keys on your keyboard to get it to try and rob one of the ships leaving the island.</p><p>This is just a practice game, so you're not playing for money.</p><p>Good luck! This game will be very difficult but try your best!</p></div>,null,<div class='center'><p>Let's go over the instructions quickly again. You have one thing to do: </p><p><b>Pick the pirate who is the best at robbing ships on the current island.</b></p><p>The amount of bonus money you win depends on it.</p><br><p>Let's try a practice game. The game will start by showing you an island. Pick a pirate using the <b>1, 2, 3</b> keys on your keyboard to get it to try and rob one of the ships leaving the island.</p><p>This is just a practice game, so you're not playing for money.</p><p>Good luck! This game will be very difficult but try your best!</p></div>,,,,,,,,,,
,html-keyboard-response,41,165574,0.0-33.0-7.0,10947.099999904633,,,<div class='center'><p>Let's go over the instructions quickly again. You have one thing to do: </p><p><b>Pick the pirate who is the best at robbing ships on the current island.</b></p><p>The amount of bonus money you win depends on it.</p><br><p>Let's try a practice game. The game will start by showing you an island. Pick a pirate using the <b>1, 2, 3</b> keys on your keyboard to get it to try and rob one of the ships leaving the island.</p><p>This is just a practice game, so you're not playing for money.</p><p>Good luck! This game will be very difficult but try your best!</p><p><b>[Press the space bar to continue]</b></p></div>,32,,,,,,,,,,,
,do_welcome,42,169584,0.0-33.0-8.0,null,,,,,,null,,,,,,,,,
,do_trial,43,175594,0.0-33.0-9.0,null,,,,,,null,1,0,0,,,,,,,,
,html-keyboard-response,44,176596,0.0-34.0-0.0,null,,,<p></p>,null,,,,,,,,,,,
,do_trial,45,179639,0.0-34.0-1.0,535.9000000953674,,,,,,49,1,0,0,,,,,,,,
,html-keyboard-response,46,180642,0.0-35.0-0.0,null,,,<p></p>,null,,,,,,,,,,,
,do_trial,47,184586,0.0-35.0-1.0,1437.1999998092651,,,,,,49,1,1,0,,,,,,,,
,html-keyboard-response,48,185588,0.0-36.0-0.0,null,,,<p></p>,null,,,,,,,,,,,
,do_trial,49,188847,0.0-36.0-1.0,752.0999999046326,,,,,,50,1,0,1,,,,,,,,
,html-keyboard-response,50,189849,0.0-37.0-0.0,null,,,<p></p>,null,,,,,,,,,,,
,do_trial,51,192625,0.0-37.0-1.0,273.30000019073486,,,,,,51,0,1,0,,,,,,,,
,html-keyboard-response,52,193627,0.0-38.0-0.0,null,,,<p></p>,null,,,,,,,,,,,
,do_trial,53,196444,0.0-38.0-1.0,311.59999990463257,,,,,,51,1,0,0,,,,,,,,
,do_bye,54,197953,0.0-39.0-0.0,null,,,,,,null,,,,,,,,,
,do_travel,55,206959,0.0-39.0-1.0,null,,,,,,null,,,,,,,,,
,do_welcome,56,210969,0.0-39.0-2.0,null,,,,,,null,,,,,,,,,
,do_trial,57,213988,0.0-39.0-3.0,511.69999980926514,,,,,,51,1,0,0,,,,,,,,
,html-keyboard-response,58,214990,0.0-40.0-0.0,null,,,<p></p>,null,,,,,,,,,,,
,do_trial,59,217725,0.0-40.0-1.0,227.90000009536743,,,,,,49,1,0,1,,,,,,,,
,html-keyboard-response,60,218728,0.0-41.0-0.0,null,,,<p></p>,null,,,,,,,,,,,
,do_trial,61,221634,0.0-41.0-1.0,400.09999990463257,,,,,,49,1,1,0,,,,,,,,
,html-keyboard-response,62,222636,0.0-42.0-0.0,null,,,<p></p>,null,,,,,,,,,,,
,do_trial,63,225465,0.0-42.0-1.0,322.5,,,,,,50,0,0,1,,,,,,,,
,html-keyboard-response,64,226467,0.0-43.0-0.0,null,,,<p></p>,null,,,,,,,,,,,
,do_trial,65,229348,0.0-43.0-1.0,375.80000019073486,,,,,,49,1,0,1,,,,,,,,
,html-keyboard-response,66,231519,0.0-44.0-0.0,2168.199999809265,,,<div class='center'><p><img src='../static/images/tutorial/prac_best_pirate.png' height='500'></p></div>,49,,,,,,,,,,,
,html-keyboard-response,67,232886,0.0-45.0-0.0,1364.5999999046326,,,<div class='center'><p>That's correct! Red beard was the best.</p><p><b>[Press the space bar to continue]</b></p></div>,32,,,,,,,,,,,
,quiz_beginning,68,234887,0.0-45.0-1.0,null,,,<div class='center'><p>Good job on the practice game! Now, you will be asked some true or false questions to make sure you really understand the rules of the game.</p><p> Press <b>'1'</b> on the keyboard for true and press <b>'2'</b> for false.</p></div>,null,<div class='center'><p>Good job on the practice game! Now, you will be asked some true or false questions to make sure you really understand the rules of the game.</p><p> Press <b>'1'</b> on the keyboard for true and press <b>'2'</b> for false.</p></div>,,,,,,,,,,
,html-keyboard-response,69,239631,0.0-45.0-2.0,4742.900000095367,,,<div class='center'><p>You win bonus money by collecting gold coins.</p><p>Press 1 for true and press  2 for false.</p></div>,49,,,,,,,,,,,
,correct,70,241634,0.0-46.0-0.0,null,,,<div class='center'><p>That's correct!</p></div>,null,<div class='center'><p>That's correct!</p></div>,,,,,,,,,,
,html-keyboard-response,71,242631,0.0-46.0-1.0,995.2999997138977,,,<div class='center'><p>That's correct!</p><p><b>[Press the space bar to continue]</b></p></div>,32,,,,,,,,,,,
,html-keyboard-response,72,249172,0.0-46.0-2.0,6540,,,<div class='center'><p>The pirate who is the best at robbing ships when you first arrive on the island will definitely still be the best when you leave the island. </p><p>Press 1 for true and press  2 for false.</p></div>,49,,,,,,,,,,,
,q2_err,73,251176,0.0-47.0-0.0,null,,,<div class='center'><p>That’s incorrect. Which pirate is the best may change during your time on the island.</p></div>,null,<div class='center'><p>That’s incorrect. Which pirate is the best may change during your time on the island.</p></div>,,,,,,,,,,
,html-keyboard-response,74,253219,0.0-47.0-1.0,2040.9000000953674,,,<div class='center'><p>That’s incorrect. Which pirate is the best may change during your time on the island.</p><p><b>[Press the space bar to continue]</b></p></div>,32,,,,,,,,,,,
,html-keyboard-response,75,257417,0.0-47.0-2.0,4197.300000190735,,,<div class='center'><p>The pirate who is the best at robbing ships on the first island will be the best on every other island.</p><p>Press 1 for true and press  2 for false.</p></div>,50,,,,,,,,,,,
,correct,76,259420,0.0-48.0-0.0,null,,,<div class='center'><p>That's correct!</p></div>,null,<div class='center'><p>That's correct!</p></div>,,,,,,,,,,
,html-keyboard-response,77,260027,0.0-48.0-1.0,605.5,,,<div class='center'><p>That's correct!</p><p><b>[Press the space bar to continue]</b></p></div>,32,,,,,,,,,,,
,html-keyboard-response,78,264342,0.0-48.0-2.0,4313.799999713898,,,<div class='center'><p>You should remember the island where a pirate robbed a ship.</p><p>Press 1 for true and press  2 for false.</p></div>,49,,,,,,,,,,,
,correct,79,266344,0.0-49.0-0.0,null,,,<div class='center'><p>That's correct!</p></div>,null,<div class='center'><p>That's correct!</p></div>,,,,,,,,,,
,html-keyboard-response,80,267457,0.0-49.0-1.0,1111.7999997138977,,,<div class='center'><p>That's correct!</p><p><b>[Press the space bar to continue]</b></p></div>,32,,,,,,,,,,,
,q_all_err,81,269459,0.0-50.0-0.0,null,,,<div class='center'><p>Oops, you missed some questions. Now that you’ve heard the correct answers. Try the quiz again! </p></div>,null,<div class='center'><p>Oops, you missed some questions. Now that you’ve heard the correct answers. Try the quiz again! </p></div>,,,,,,,,,,
,html-keyboard-response,82,271459,0.0-50.0-1.0,1998.5999999046326,,,<div class='center'><p>Oops, you missed some questions. Now that you’ve heard the correct answers. Try the quiz again! </p><p><b>[Press the space bar to continue]</b></p></div>,32,,,,,,,,,,,
,html-keyboard-response,83,273345,0.0-50.0-2.0,1885.5,,,<div class='center'><p>You win bonus money by collecting gold coins.</p><p>Press 1 for true and press  2 for false.</p></div>,49,,,,,,,,,,,
,correct,84,275347,0.0-51.0-0.0,null,,,<div class='center'><p>That's correct!</p></div>,null,<div class='center'><p>That's correct!</p></div>,,,,,,,,,,
,html-keyboard-response,85,276288,0.0-51.0-1.0,939.8999996185303,,,<div class='center'><p>That's correct!</p><p><b>[Press the space bar to continue]</b></p></div>,32,,,,,,,,,,,
,html-keyboard-response,86,281896,0.0-51.0-2.0,5607.199999809265,,,<div class='center'><p>The pirate who is the best at robbing ships when you first arrive on the island will definitely still be the best when you leave the island. </p><p>Press 1 for true and press  2 for false.</p></div>,50,,,,,,,,,,,
,correct,87,283898,0.0-52.0-0.0,null,,,<div class='center'><p>That's correct!</p></div>,null,<div class='center'><p>That's correct!</p></div>,,,,,,,,,,
,html-keyboard-response,88,284616,0.0-52.0-1.0,717.3999996185303,,,<div class='center'><p>That's correct!</p><p><b>[Press the space bar to continue]</b></p></div>,32,,,,,,,,,,,
,html-keyboard-response,89,287270,0.0-52.0-2.0,2652.0999999046326,,,<div class='center'><p>The pirate who is the best at robbing ships on the first island will be the best on every other island.</p><p>Press 1 for true and press  2 for false.</p></div>,50,,,,,,,,,,,
,correct,90,289271,0.0-53.0-0.0,null,,,<div class='center'><p>That's correct!</p></div>,null,<div class='center'><p>That's correct!</p></div>,,,,,,,,,,
,html-keyboard-response,91,290078,0.0-53.0-1.0,805.1999998092651,,,<div class='center'><p>That's correct!</p><p><b>[Press the space bar to continue]</b></p></div>,32,,,,,,,,,,,
,html-keyboard-response,92,292260,0.0-53.0-2.0,2181.0999999046326,,,<div class='center'><p>You should remember the island where a pirate robbed a ship.</p><p>Press 1 for true and press  2 for false.</p></div>,49,,,,,,,,,,,
,correct,93,294286,0.0-54.0-0.0,null,,,<div class='center'><p>That's correct!</p></div>,null,<div class='center'><p>That's correct!</p></div>,,,,,,,,,,
,html-keyboard-response,94,295153,0.0-54.0-1.0,864.7999997138977,,,<div class='center'><p>That's correct!</p><p><b>[Press the space bar to continue]</b></p></div>,32,,,,,,,,,,,
,q_all_corr,95,297155,0.0-55.0-0.0,null,,,<div class='center'><p>Good job! You’re now ready to move on to the real game! Remember this game will be difficult but don't get discouraged and try your best!</p></div>,null,<div class='center'><p>Good job! You’re now ready to move on to the real game! Remember this game will be difficult but don't get discouraged and try your best!</p></div>,,,,,,,,,,
,html-keyboard-response,96,301784,0.0-55.0-1.0,4626.900000095367,,,<div class='center'><p>Good job! You’re now ready to move on to the real game! Remember this game will be difficult but don't get discouraged and try your best!</p><p><b>[Press the space bar to continue]</b></p></div>,32,,,,,,,,,,,
,do_welcome,97,305798,0.0-56.0-0.0,null,,,,,,null,,,,,,,,,
,do_trial,98,309993,0.0-57.0-0.0,1687.5999999046326,,,,,,49,1,0,0,0,city,0,0.6,0.3,0.1,1,learn
,html-keyboard-response,99,310997,0.0-57.0-1.0,null,,,<p></p>,null,,,,,,,,,,,
,do_trial,100,313907,0.0-58.0-0.0,402.59999990463257,,,,,,49,1,0,1,0,city,1,0.5738972224395171,0.34488567032818734,0.12527906546378043,1,learn
,html-keyboard-response,101,314909,0.0-58.0-1.0,null,,,<p></p>,null,,,,,,,,,,,
,do_trial,102,318279,0.0-59.0-0.0,863.5,,,,,,49,0,0,0,0,city,2,0.6156506253317668,0.3306523628847116,0.11555761581152812,0,learn
,html-keyboard-response,103,319281,0.0-59.0-1.0,null,,,<p></p>,null,,,,,,,,,,,
,do_trial,104,322258,0.0-60.0-0.0,470.1000003814697,,,,,,49,0,0,0,0,city,3,0.5248290411150276,0.24489207321356943,0.08813844306620042,0,learn
,html-keyboard-response,105,323260,0.0-60.0-1.0,null,,,<p></p>,null,,,,,,,,,,,
,do_trial,106,326201,0.0-61.0-0.0,437.90000009536743,,,,,,49,1,1,0,0,city,4,0.585863088197536,0.36532293673812904,0.14879421071435256,1,learn
,html-keyboard-response,107,327203,0.0-61.0-1.0,null,,,<p></p>,null,,,,,,,,,,,
,do_trial,108,330290,0.0-62.0-0.0,580,,,,,,49,0,0,0,0,city,5,0.6037049454959587,0.3118047988368092,0.16931053337157204,0,learn
,html-keyboard-response,109,331292,0.0-62.0-1.0,null,,,<p></p>,null,,,,,,,,,,,
,do_trial,110,334260,0.0-63.0-0.0,460.2000002861023,,,,,,51,1,0,0,0,city,6,0.5612473604519006,0.3318054792238172,0.11600635972103998,0,learn
,html-keyboard-response,111,335263,0.0-63.0-1.0,null,,,<p></p>,null,,,,,,,,,,,
,do_trial,112,337990,0.0-64.0-0.0,220.40000009536743,,,,,,49,0,0,0,0,city,7,0.5792711896350052,0.3642403694296704,0.22583253400858588,0,learn
,html-keyboard-response,113,338993,0.0-64.0-1.0,null,,,<p></p>,null,,,,,,,,,,,
,do_trial,114,341786,0.0-65.0-0.0,286.30000019073486,,,,,,50,0,0,0,0,city,8,0.4297210614228603,0.39246462180625385,0.23253767517751378,0,learn
,html-keyboard-response,115,342789,0.0-65.0-1.0,null,,,<p></p>,null,,,,,,,,,,,
,do_trial,116,345529,0.0-66.0-0.0,232.80000019073486,,,,,,50,1,1,0,0,city,9,0.4833371321062094,0.3351381892872145,0.20978197115124514,1,learn
,html-keyboard-response,117,346531,0.0-66.0-1.0,null,,,<p></p>,null,,,,,,,,,,,
,do_trial,118,349282,0.0-67.0-0.0,243.2999997138977,,,,,,50,0,0,1,0,city,10,0.4426005010874347,0.1946131101737384,0.32233797622963517,0,learn
,html-keyboard-response,119,350285,0.0-67.0-1.0,null,,,<p></p>,null,,,,,,,,,,,
,do_trial,120,353006,0.0-68.0-0.0,213.69999980926514,,,,,,49,0,1,0,0,city,11,0.3496783547423935,0.40029719825912113,0.2021353190336332,0,learn
,html-keyboard-response,121,354008,0.0-68.0-1.0,null,,,<p></p>,null,,,,,,,,,,,
,do_trial,122,356545,0.0-69.0-0.0,28.699999809265137,,,,,,49,1,0,0,0,city,12,0.34235137333034926,0.4739909134675333,0.16733269835725179,1,learn
,html-keyboard-response,123,357547,0.0-69.0-1.0,null,,,<p></p>,null,,,,,,,,,,,
,do_trial,124,360365,0.0-70.0-0.0,310.30000019073486,,,,,,51,1,1,1,0,city,13,0.44347904020821816,0.49543141147566766,0.1118381018231984,1,learn
,html-keyboard-response,125,361368,0.0-70.0-1.0,null,,,<p></p>,null,,,,,,,,,,,
,do_trial,126,364239,0.0-71.0-0.0,364.59999990463257,,,,,,51,1,1,1,0,city,14,0.5366995992491571,0.49959236383564093,0.2407141024392547,1,learn
,html-keyboard-response,127,365242,0.0-71.0-1.0,null,,,<p></p>,null,,,,,,,,,,,
,do_trial,128,368133,0.0-72.0-0.0,384.2999997138977,,,,,,51,1,0,1,0,city,15,0.541322390014133,0.4372165842725594,0.0945801531412209,1,learn
,html-keyboard-response,129,369136,0.0-72.0-1.0,null,,,<p></p>,null,,,,,,,,,,,
,do_trial,130,371905,0.0-73.0-0.0,261.5,,,,,,51,0,1,0,0,city,16,0.4489533433305228,0.49408800717078766,0.08129686090571973,0,learn
,html-keyboard-response,131,372908,0.0-73.0-1.0,null,,,<p></p>,null,,,,,,,,,,,
,do_trial,132,375919,0.0-74.0-0.0,503.5,,,,,,50,0,1,0,0,city,17,0.6108680820140584,0.38094677764166596,0.06193462225206711,1,learn
,html-keyboard-response,133,376922,0.0-74.0-1.0,null,,,<p></p>,null,,,,,,,,,,,
,do_trial,134,379671,0.0-75.0-0.0,242.5,,,,,,50,0,1,0,0,city,18,0.7235399494768768,0.4067181749620856,0.21474299002087172,1,learn
,html-keyboard-response,135,380673,0.0-75.0-1.0,null,,,<p></p>,null,,,,,,,,,,,
,do_trial,136,383450,0.0-76.0-0.0,268.80000019073486,,,,,,49,1,0,1,0,city,19,0.755810766541855,0.39077754999675607,0.23886099690586346,1,learn
,html-keyboard-response,137,384452,0.0-76.0-1.0,null,,,<p></p>,null,,,,,,,,,,,
,do_trial,138,387210,0.0-77.0-0.0,250.90000009536743,,,,,,51,0,1,0,0,city,20,0.567490051532803,0.2407097041454689,0.16458002918422185,0,learn
,html-keyboard-response,139,388212,0.0-77.0-1.0,null,,,<p></p>,null,,,,,,,,,,,
,do_trial,140,391152,0.0-78.0-0.0,430.5,,,,,,50,1,0,0,0,city,21,0.6492415719462786,0.35606252544358113,0.05328681596748632,0,learn
,html-keyboard-response,141,392154,0.0-78.0-1.0,null,,,<p></p>,null,,,,,,,,,,,
,do_trial,142,394914,0.0-79.0-0.0,252.59999990463257,,,,,,50,0,0,0,0,city,22,0.7073355382371014,0.3429558317674673,0.1806562003659224,0,learn
,html-keyboard-response,143,395916,0.0-79.0-1.0,null,,,<p></p>,null,,,,,,,,,,,
,do_trial,144,398642,0.0-80.0-0.0,219.2999997138977,,,,,,49,1,0,0,0,city,23,0.6366107507957313,0.2969238410078688,0.11245625185382771,1,learn
,html-keyboard-response,145,399645,0.0-80.0-1.0,null,,,<p></p>,null,,,,,,,,,,,
,do_trial,146,402469,0.0-81.0-0.0,316.7999997138977,,,,,,51,0,1,1,0,city,24,0.544449112047922,0.4108081923017904,0.14630805891090048,1,learn
,html-keyboard-response,147,403471,0.0-81.0-1.0,null,,,<p></p>,null,,,,,,,,,,,
,do_trial,148,406221,0.0-82.0-0.0,242.2000002861023,,,,,,50,1,0,0,0,city,25,0.5226900956674306,0.3923058394010467,0.06434223082880232,0,learn
,html-keyboard-response,149,407223,0.0-82.0-1.0,null,,,<p></p>,null,,,,,,,,,,,
,do_trial,150,409956,0.0-83.0-0.0,225.40000009536743,,,,,,50,1,1,0,0,city,26,0.5057973190541537,0.3238454930605084,0.15175195327055885,1,learn
,html-keyboard-response,151,410958,0.0-83.0-1.0,null,,,<p></p>,null,,,,,,,,,,,
,do_trial,152,413864,0.0-84.0-0.0,398.5,,,,,,50,0,0,0,0,city,27,0.5619384889980663,0.21164244934078716,0.298739027709399,0,learn
,html-keyboard-response,153,414867,0.0-84.0-1.0,null,,,<p></p>,null,,,,,,,,,,,
,do_trial,154,417600,0.0-85.0-0.0,225.2000002861023,,,,,,50,0,0,0,0,city,28,0.6415255229135751,0.302490551176176,0.23753844654353973,0,learn
,html-keyboard-response,155,418602,0.0-85.0-1.0,null,,,<p></p>,null,,,,,,,,,,,
,do_trial,156,421118,0.0-86.0-0.0,8.300000190734863,,,,,,50,0,0,0,0,city,29,0.6004179124809486,0.21001201042615578,0.1791640537481664,0,learn
,html-keyboard-response,157,422120,0.0-86.0-1.0,null,,,<p></p>,null,,,,,,,,,,,
,do_bye,158,423629,0.0-87.0-0.0,null,,,,,,null,,,,,,,,,
,do_travel,159,432634,0.0-88.0-0.0,null,,,,,,null,,,,,,,,,
,do_welcome,160,436644,0.0-88.0-1.0,null,,,,,,null,,,,,,,,,
,do_trial,161,439971,0.0-89.0-0.0,819.7000002861023,,,,,,49,1,0,1,1,countryside,30,1,0.21017292190824508,0.19045618553271054,1,learn
,html-keyboard-response,162,440973,0.0-89.0-1.0,null,,,<p></p>,null,,,,,,,,,,,
,do_trial,163,443886,0.0-90.0-0.0,409.59999990463257,,,,,,49,1,0,0,1,countryside,31,1,0.09288393721990845,0.18266437410015748,1,learn
,html-keyboard-response,164,444888,0.0-90.0-1.0,null,,,<p></p>,null,,,,,,,,,,,
,do_trial,165,447704,0.0-91.0-0.0,309.19999980926514,,,,,,49,1,0,0,1,countryside,32,1,0.20928587387559724,0.06725277861760227,1,learn
,html-keyboard-response,166,448706,0.0-91.0-1.0,null,,,<p></p>,null,,,,,,,,,,,
,do_trial,167,451453,0.0-92.0-0.0,240.09999990463257,,,,,,49,1,0,0,1,countryside,33,0.9342449454595447,0.22595127827810385,0.14880761278176854,1,learn
,html-keyboard-response,168,452455,0.0-92.0-1.0,null,,,<p></p>,null,,,,,,,,,,,
,do_trial,169,455341,0.0-93.0-0.0,380.80000019073486,,,,,,49,1,0,0,1,countryside,34,0.7599736160645432,0.15958929883123182,0.24536900989767152,1,learn
,html-keyboard-response,170,456343,0.0-93.0-1.0,null,,,<p></p>,null,,,,,,,,,,,
,do_trial,171,459034,0.0-94.0-0.0,183.59999990463257,,,,,,49,1,0,0,1,countryside,35,0.5626515020470686,0.3033283923827398,0.10934861171659681,1,learn
,html-keyboard-response,172,460036,0.0-94.0-1.0,null,,,<p></p>,null,,,,,,,,,,,
,do_trial,173,464532,0.0-95.0-0.0,1988.8000001907349,,,,,,49,1,0,0,1,countryside,36,0.6700522166846757,0.3593225488146846,0.09652821853148,1,learn
,html-keyboard-response,174,465534,0.0-95.0-1.0,null,,,<p></p>,null,,,,,,,,,,,
,do_trial,175,468576,0.0-96.0-0.0,536.4000000953674,,,,,,49,1,0,0,1,countryside,37,0.7647411126537556,0.25497104591257697,0.06990316421007059,1,learn
,html-keyboard-response,176,469578,0.0-96.0-1.0,null,,,<p></p>,null,,,,,,,,,,,
,do_trial,177,473019,0.0-97.0-0.0,934.5,,,,,,49,1,0,0,1,countryside,38,0.7432866641992553,0.2812487918133893,0.14586701099172134,1,learn
,html-keyboard-response,178,474022,0.0-97.0-1.0,null,,,<p></p>,null,,,,,,,,,,,
,do_trial,179,477025,0.0-98.0-0.0,497.2000002861023,,,,,,49,1,1,0,1,countryside,39,0.5382624722749312,0.3430000723574361,0.1200673824855013,1,learn
,html-keyboard-response,180,478028,0.0-98.0-1.0,null,,,<p></p>,null,,,,,,,,,,,
,do_trial,181,480829,0.0-99.0-0.0,294.80000019073486,,,,,,49,1,0,0,1,countryside,40,0.6161561371182901,0.34439084800007785,0.1822043522679099,1,learn
,html-keyboard-response,182,481832,0.0-99.0-1.0,null,,,<p></p>,null,,,,,,,,,,,
,do_trial,183,484667,0.0-100.0-0.0,328.59999990463257,,,,,,49,0,0,0,1,countryside,41,0.6167839492630537,0.5425350015448969,0.19908767884477438,0,learn
,html-keyboard-response,184,485669,0.0-100.0-1.0,null,,,<p></p>,null,,,,,,,,,,,
,do_trial,185,488536,0.0-101.0-0.0,360.7999997138977,,,,,,49,0,1,0,1,countryside,42,0.40577054881612973,0.486750023889579,0.05101057317918151,0,learn
,html-keyboard-response,186,489539,0.0-101.0-1.0,null,,,<p></p>,null,,,,,,,,,,,
,do_trial,187,492821,0.0-102.0-0.0,775.1999998092651,,,,,,50,1,1,1,1,countryside,43,0.2980963794757335,0.4328274331729637,0.09199935080108272,1,learn
,html-keyboard-response,188,493824,0.0-102.0-1.0,null,,,<p></p>,null,,,,,,,,,,,
,do_trial,189,496814,0.0-103.0-0.0,483.90000009536743,,,,,,50,0,0,0,1,countryside,44,0.23833446565981306,0.4072607745737817,0.05089119017677479,0,learn
,html-keyboard-response,190,497816,0.0-103.0-1.0,null,,,<p></p>,null,,,,,,,,,,,
,do_trial,191,501429,0.0-104.0-0.0,1106.7999997138977,,,,,,49,0,0,0,1,countryside,45,0.37098062702034945,0.6295931892030651,0.14398493210306626,0,learn
,html-keyboard-response,192,502431,0.0-104.0-1.0,null,,,<p></p>,null,,,,,,,,,,,
,do_trial,193,505296,0.0-105.0-0.0,357.30000019073486,,,,,,49,1,1,0,1,countryside,46,0.3899166472868031,0.5549830025430811,0.11832537937997986,1,learn
,html-keyboard-response,194,506298,0.0-105.0-1.0,null,,,<p></p>,null,,,,,,,,,,,
,do_trial,195,509178,0.0-106.0-0.0,374.19999980926514,,,,,,49,0,0,0,1,countryside,47,0.21715180393138758,0.5428082844850585,0.11962954111605574,0,learn
,html-keyboard-response,196,510181,0.0-106.0-1.0,null,,,<p></p>,null,,,,,,,,,,,
,do_trial,197,513766,0.0-107.0-0.0,1078.9000000953674,,,,,,49,0,0,0,1,countryside,48,0.2981200820687522,0.5468708587266525,0.3222393055659456,0,learn
,html-keyboard-response,198,514768,0.0-107.0-1.0,null,,,<p></p>,null,,,,,,,,,,,
,do_trial,199,517778,0.0-108.0-0.0,502.19999980926514,,,,,,51,0,1,1,1,countryside,49,0.44364596304448806,0.5038042403622764,0.1720989803690032,1,learn
,html-keyboard-response,200,518780,0.0-108.0-1.0,null,,,<p></p>,null,,,,,,,,,,,
,do_trial,201,521755,0.0-109.0-0.0,468.30000019073486,,,,,,51,0,1,0,1,countryside,50,0.3950915519937459,0.6098312704897694,0.1323268481379254,0,learn
,html-keyboard-response,202,522757,0.0-109.0-1.0,null,,,<p></p>,null,,,,,,,,,,,
,do_trial,203,525561,0.0-110.0-0.0,297.19999980926514,,,,,,49,0,0,0,1,countryside,51,0.37512536615218317,0.629751778741366,0.10245350476562237,0,learn
,html-keyboard-response,204,526563,0.0-110.0-1.0,null,,,<p></p>,null,,,,,,,,,,,
,do_trial,205,529374,0.0-111.0-0.0,303.19999980926514,,,,,,50,0,1,0,1,countryside,52,0.3998787936555901,0.6484073750433785,0.1149425275213491,1,learn
,html-keyboard-response,206,530376,0.0-111.0-1.0,null,,,<p></p>,null,,,,,,,,,,,
,do_trial,207,533237,0.0-112.0-0.0,354.40000009536743,,,,,,51,1,1,0,1,countryside,53,0.3522646785361507,0.852110280292055,0.0981640561831609,0,learn
,html-keyboard-response,208,534239,0.0-112.0-1.0,null,,,<p></p>,null,,,,,,,,,,,
,do_trial,209,537068,0.0-113.0-0.0,321.59999990463257,,,,,,51,1,0,1,1,countryside,54,0.34991442732086614,0.7214232671464034,0.18755690550749204,1,learn
,html-keyboard-response,210,538070,0.0-113.0-1.0,null,,,<p></p>,null,,,,,,,,,,,
,do_trial,211,540601,0.0-114.0-0.0,24.5,,,,,,50,0,0,0,1,countryside,55,0.29059380942617435,0.6642854419420569,0.07075774902711736,0,learn
,html-keyboard-response,212,541603,0.0-114.0-1.0,null,,,<p></p>,null,,,,,,,,,,,
,do_trial,213,544662,0.0-115.0-0.0,552,,,,,,50,0,1,0,1,countryside,56,0.1388094166926379,0.5262097739749476,0.20799901208217325,1,learn
,html-keyboard-response,214,545665,0.0-115.0-1.0,null,,,<p></p>,null,,,,,,,,,,,
,do_trial,215,548437,0.0-116.0-0.0,263.59999990463257,,,,,,50,0,1,1,1,countryside,57,0.14885993811002074,0.5894266712909826,0.23022184345592556,1,learn
,html-keyboard-response,216,549439,0.0-116.0-1.0,null,,,<p></p>,null,,,,,,,,,,,
,do_trial,217,553438,0.0-117.0-0.0,1490.9000000953674,,,,,,50,1,1,0,1,countryside,58,0.19425075854947968,0.575781238221349,0.3223620178235926,1,learn
,html-keyboard-response,218,554441,0.0-117.0-1.0,null,,,<p></p>,null,,,,,,,,,,,
,do_trial,219,557393,0.0-118.0-0.0,444.5,,,,,,51,1,0,0,1,countryside,59,0.20419584044814282,0.5689351814177114,0.17335920900209753,0,learn
,html-keyboard-response,220,558395,0.0-118.0-1.0,null,,,<p></p>,null,,,,,,,,,,,
,do_trial,221,561247,0.0-119.0-0.0,346.40000009536743,,,,,,51,0,1,1,1,countryside,60,0.18398146918249508,0.6026123409327295,0.15493854075775837,1,learn
,html-keyboard-response,222,562250,0.0-119.0-1.0,null,,,<p></p>,null,,,,,,,,,,,
,do_trial,223,565071,0.0-120.0-0.0,316.2000002861023,,,,,,51,0,1,0,1,countryside,61,0.22081655168556072,0.6191163417496519,0.13568821555814714,0,learn
,html-keyboard-response,224,566073,0.0-120.0-1.0,null,,,<p></p>,null,,,,,,,,,,,
,do_trial,225,569033,0.0-121.0-0.0,451.30000019073486,,,,,,51,0,0,0,1,countryside,62,0.27767761460092855,0.6788929607008031,0.15954020063819613,0,learn
,html-keyboard-response,226,570036,0.0-121.0-1.0,null,,,<p></p>,null,,,,,,,,,,,
,do_trial,227,572882,0.0-122.0-0.0,339.90000009536743,,,,,,51,0,1,0,1,countryside,63,0.2997459135670275,0.4907862028466559,0.1257452524879218,0,learn
,html-keyboard-response,228,573884,0.0-122.0-1.0,null,,,<p></p>,null,,,,,,,,,,,
,do_trial,229,576703,0.0-123.0-0.0,311.19999980926514,,,,,,50,1,0,0,1,countryside,64,0.5471390455771357,0.43962445740252065,0.08519310207185958,0,learn
,html-keyboard-response,230,577707,0.0-123.0-1.0,null,,,<p></p>,null,,,,,,,,,,,
,do_trial,231,580699,0.0-124.0-0.0,486.5,,,,,,51,0,1,0,1,countryside,65,0.4325370052245281,0.6040127648543597,0.10944895577080534,0,learn
,html-keyboard-response,232,581701,0.0-124.0-1.0,null,,,<p></p>,null,,,,,,,,,,,
,do_trial,233,584242,0.0-125.0-0.0,32.59999990463257,,,,,,51,1,1,0,1,countryside,66,0.24281960891722354,0.6137212455180183,0.16441244795686594,0,learn
,html-keyboard-response,234,585244,0.0-125.0-1.0,null,,,<p></p>,null,,,,,,,,,,,
,do_trial,235,588265,0.0-126.0-0.0,513.6999998092651,,,,,,50,0,1,0,1,countryside,67,0.28224296248315744,0.743396466085583,0.12546941536353182,1,learn
,html-keyboard-response,236,589268,0.0-126.0-1.0,null,,,<p></p>,null,,,,,,,,,,,
,do_trial,237,592043,0.0-127.0-0.0,267.40000009536743,,,,,,49,1,1,0,1,countryside,68,0.13524038799044188,0.7475991792318435,0.15557837033645683,1,learn
,html-keyboard-response,238,593045,0.0-127.0-1.0,null,,,<p></p>,null,,,,,,,,,,,
,do_trial,239,595830,0.0-128.0-0.0,277.2999997138977,,,,,,49,0,0,1,1,countryside,69,0.09662942201144185,0.7135520545197405,0.24606250768213106,0,learn
,html-keyboard-response,240,596832,0.0-128.0-1.0,null,,,<p></p>,null,,,,,,,,,,,
,do_bye,241,598341,0.0-129.0-0.0,null,,,,,,null,,,,,,,,,
,do_travel,242,607346,0.0-130.0-0.0,null,,,,,,null,,,,,,,,,
,do_welcome,243,611371,0.0-130.0-1.0,null,,,,,,null,,,,,,,,,
,do_trial,244,614762,0.0-131.0-0.0,883.3999996185303,,,,,,51,0,1,1,2,coast,70,0.28481064262530725,1,0.15284131308671137,1,learn
,html-keyboard-response,245,615765,0.0-131.0-1.0,null,,,<p></p>,null,,,,,,,,,,,
,do_trial,246,618502,0.0-132.0-0.0,230.80000019073486,,,,,,51,0,1,0,2,coast,71,0.14920386930724858,1,0.13491895370302545,0,learn
,html-keyboard-response,247,619504,0.0-132.0-1.0,null,,,<p></p>,null,,,,,,,,,,,
,do_trial,248,622196,0.0-133.0-0.0,184,,,,,,51,0,0,0,2,coast,72,0.1839430862735066,0.897503247543561,0.11972974694957463,0,learn
,html-keyboard-response,249,623198,0.0-133.0-1.0,null,,,<p></p>,null,,,,,,,,,,,
,do_trial,250,626136,0.0-134.0-0.0,430.40000009536743,,,,,,51,0,1,0,2,coast,73,0.15384934019464958,0.5964103374148894,0.14239707584150008,0,learn
,html-keyboard-response,251,627138,0.0-134.0-1.0,null,,,<p></p>,null,,,,,,,,,,,
,do_trial,252,630239,0.0-135.0-0.0,593.6999998092651,,,,,,51,0,1,0,2,coast,74,0.15224182092735278,0.553957835958618,0.19210803406579977,0,learn
,html-keyboard-response,253,631242,0.0-135.0-1.0,null,,,<p></p>,null,,,,,,,,,,,
,do_trial,254,634140,0.0-136.0-0.0,390.3999996185303,,,,,,51,0,0,0,2,coast,75,0.2654682808731083,0.614971610068683,0.14824545081361112,0,learn
,html-keyboard-response,255,635142,0.0-136.0-1.0,null,,,<p></p>,null,,,,,,,,,,,
,do_trial,256,638623,0.0-137.0-0.0,973,,,,,,51,0,1,0,2,coast,76,0.19565486840922033,0.7153694513847136,0.16428357524971307,0,learn
,html-keyboard-response,257,639626,0.0-137.0-1.0,null,,,<p></p>,null,,,,,,,,,,,
,do_trial,258,642621,0.0-138.0-0.0,488,,,,,,51,0,0,0,2,coast,77,0.24977761531199266,0.7719109952393128,0.18576318556903867,0,learn
,html-keyboard-response,259,643623,0.0-138.0-1.0,null,,,<p></p>,null,,,,,,,,,,,
,do_trial,260,646431,0.0-139.0-0.0,301.69999980926514,,,,,,50,0,1,0,2,coast,78,0.29893195911735093,0.7402509733404782,0.17911157025197474,1,learn
,html-keyboard-response,261,647434,0.0-139.0-1.0,null,,,<p></p>,null,,,,,,,,,,,
,do_trial,262,650184,0.0-140.0-0.0,242.7999997138977,,,,,,50,0,1,0,2,coast,79,0.20604788766917437,0.7112547672743021,0.05690098659979748,1,learn
,html-keyboard-response,263,651187,0.0-140.0-1.0,null,,,<p></p>,null,,,,,,,,,,,
,do_trial,264,653979,0.0-141.0-0.0,284.90000009536743,,,,,,50,0,1,1,2,coast,80,0.31215738563998247,0.8215420575609094,0.19006700549153244,1,learn
,html-keyboard-response,265,654981,0.0-141.0-1.0,null,,,<p></p>,null,,,,,,,,,,,
,do_trial,266,657541,0.0-142.0-0.0,52.59999990463257,,,,,,50,0,1,0,2,coast,81,0.14567512432895105,0.8605805045880176,0.2202050411686932,1,learn
,html-keyboard-response,267,658543,0.0-142.0-1.0,null,,,<p></p>,null,,,,,,,,,,,
,do_trial,268,662116,0.0-143.0-0.0,1065.5,,,,,,50,0,0,0,2,coast,82,0.25890920826095315,0.5401770971904182,0.503843596924471,0,learn
,html-keyboard-response,269,663118,0.0-143.0-1.0,null,,,<p></p>,null,,,,,,,,,,,
,do_trial,270,665900,0.0-144.0-0.0,275,,,,,,50,0,1,0,2,coast,83,0.16541545825238912,0.39133045836641883,0.5460098771445653,1,learn
,html-keyboard-response,271,666903,0.0-144.0-1.0,null,,,<p></p>,null,,,,,,,,,,,
,do_trial,272,672089,0.0-145.0-0.0,2678.9000000953674,,,,,,50,0,0,0,2,coast,84,0.2095100748402809,0.42213131407885357,0.5802989707142847,0,learn
,html-keyboard-response,273,673091,0.0-145.0-1.0,null,,,<p></p>,null,,,,,,,,,,,
,do_trial,274,677347,0.0-146.0-0.0,1749.9000000953674,,,,,,50,0,0,1,2,coast,85,0.2223871441605419,0.43985789439705875,0.6978299546693103,0,learn
,html-keyboard-response,275,678350,0.0-146.0-1.0,null,,,<p></p>,null,,,,,,,,,,,
,do_trial,276,681002,0.0-147.0-0.0,145.09999990463257,,,,,,50,1,0,1,2,coast,86,0.27986184671500736,0.3402708870721105,0.6506816513467386,0,learn
,html-keyboard-response,277,682005,0.0-147.0-1.0,null,,,<p></p>,null,,,,,,,,,,,
,do_trial,278,685480,0.0-148.0-0.0,967.9000000953674,,,,,,50,0,0,1,2,coast,87,0.2620655753632567,0.49070102913756375,0.5878306405004297,0,learn
,html-keyboard-response,279,686483,0.0-148.0-1.0,null,,,<p></p>,null,,,,,,,,,,,
,do_trial,280,690627,0.0-149.0-0.0,1638,,,,,,50,0,1,0,2,coast,88,0.06764988850634764,0.4449743406136322,0.6926789743620235,1,learn
,html-keyboard-response,281,691630,0.0-149.0-1.0,null,,,<p></p>,null,,,,,,,,,,,
,do_trial,282,695132,0.0-150.0-0.0,996.4000000953674,,,,,,50,0,0,0,2,coast,89,0.07577770067934504,0.3719188361658969,0.6348583113577584,0,learn
,html-keyboard-response,283,696135,0.0-150.0-1.0,null,,,<p></p>,null,,,,,,,,,,,
,do_trial,284,699049,0.0-151.0-0.0,408.19999980926514,,,,,,50,0,0,1,2,coast,90,0.13627471205984593,0.415897153566597,0.5814233212725365,0,learn
,html-keyboard-response,285,700051,0.0-151.0-1.0,null,,,<p></p>,null,,,,,,,,,,,
,do_trial,286,702835,0.0-152.0-0.0,278.90000009536743,,,,,,49,0,0,0,2,coast,91,0.10647018444848129,0.31754575324499607,0.5611918967562405,0,learn
,html-keyboard-response,287,703838,0.0-152.0-1.0,null,,,<p></p>,null,,,,,,,,,,,
,do_trial,288,706728,0.0-153.0-0.0,383.59999990463257,,,,,,49,0,0,0,2,coast,92,0.10131324234352468,0.2492594473483728,0.4592843998340553,0,learn
,html-keyboard-response,289,707731,0.0-153.0-1.0,null,,,<p></p>,null,,,,,,,,,,,
,do_trial,290,712215,0.0-154.0-0.0,1978.6999998092651,,,,,,49,1,0,1,2,coast,93,0.14999702236095647,0.3554890135719168,0.5820673401175882,1,learn
,html-keyboard-response,291,713218,0.0-154.0-1.0,null,,,<p></p>,null,,,,,,,,,,,
,do_trial,292,716097,0.0-155.0-0.0,372.59999990463257,,,,,,49,1,0,1,2,coast,94,0.22081776079259988,0.2833004550891824,0.7510551776611851,1,learn
,html-keyboard-response,293,717100,0.0-155.0-1.0,null,,,<p></p>,null,,,,,,,,,,,
,do_trial,294,720255,0.0-156.0-0.0,648.2999997138977,,,,,,49,0,0,0,2,coast,95,0.0705358310388562,0.12707890141052963,0.6925363769286481,0,learn
,html-keyboard-response,295,721258,0.0-156.0-1.0,null,,,<p></p>,null,,,,,,,,,,,
,do_trial,296,724592,0.0-157.0-0.0,827.4000000953674,,,,,,49,0,1,1,2,coast,96,0.12813382602165097,0.07100551773453828,0.5698265025497238,0,learn
,html-keyboard-response,297,725594,0.0-157.0-1.0,null,,,<p></p>,null,,,,,,,,,,,
,do_trial,298,730264,0.0-158.0-0.0,2162.2999997138977,,,,,,49,0,0,0,2,coast,97,0.06358107657476743,0.22220088237525792,0.6319929178154473,0,learn
,html-keyboard-response,299,731267,0.0-158.0-1.0,null,,,<p></p>,null,,,,,,,,,,,
,do_trial,300,735185,0.0-159.0-0.0,1411.4000000953674,,,,,,49,0,0,1,2,coast,98,0.11889911214236662,0.2660306077902407,0.6360476484808081,0,learn
,html-keyboard-response,301,736187,0.0-159.0-1.0,null,,,<p></p>,null,,,,,,,,,,,
,do_trial,302,740087,0.0-160.0-0.0,1392.2999997138977,,,,,,49,0,1,1,2,coast,99,0.13513152356949756,0.22772916859112896,0.6297863915865551,0,learn
,html-keyboard-response,303,741090,0.0-160.0-1.0,null,,,<p></p>,null,,,,,,,,,,,
,do_trial,304,744817,0.0-161.0-0.0,1221.1000003814697,,,,,,49,0,1,1,2,coast,100,0.23696952411913524,0.44523618708277285,0.5403599569377936,0,learn
,html-keyboard-response,305,745820,0.0-161.0-1.0,null,,,<p></p>,null,,,,,,,,,,,
,do_trial,306,750108,0.0-162.0-0.0,1782,,,,,,49,0,0,1,2,coast,101,0.15073869399586085,0.36274526249104777,0.7070556244240711,0,learn
,html-keyboard-response,307,751111,0.0-162.0-1.0,null,,,<p></p>,null,,,,,,,,,,,
,do_trial,308,754061,0.0-163.0-0.0,443.7000002861023,,,,,,50,0,0,1,2,coast,102,0.17886909570079723,0.3619793620279911,0.6097094546676431,0,learn
,html-keyboard-response,309,755064,0.0-163.0-1.0,null,,,<p></p>,null,,,,,,,,,,,
,do_trial,310,757838,0.0-164.0-0.0,267.2999997138977,,,,,,51,0,1,0,2,coast,103,0.35578940179419133,0.3533560887655746,0.6269541851388554,0,learn
,html-keyboard-response,311,758840,0.0-164.0-1.0,null,,,<p></p>,null,,,,,,,,,,,
,do_trial,312,762377,0.0-165.0-0.0,1029.5,,,,,,51,1,0,1,2,coast,104,0.15141619099743803,0.1948053905963193,0.5903958412999575,1,learn
,html-keyboard-response,313,763380,0.0-165.0-1.0,null,,,<p></p>,null,,,,,,,,,,,
,do_trial,314,766993,0.0-166.0-0.0,1108.6999998092651,,,,,,51,0,0,0,2,coast,105,0.11083425361317448,0.1164699976349051,0.5482694590497099,0,learn
,html-keyboard-response,315,767995,0.0-166.0-1.0,null,,,<p></p>,null,,,,,,,,,,,
,do_trial,316,770900,0.0-167.0-0.0,398.40000009536743,,,,,,51,0,0,1,2,coast,106,0.0850839301441924,0.2686072279239032,0.5208777590573112,1,learn
,html-keyboard-response,317,771903,0.0-167.0-1.0,null,,,<p></p>,null,,,,,,,,,,,
,do_trial,318,775096,0.0-168.0-0.0,688.0999999046326,,,,,,51,0,1,0,2,coast,107,0.16920261812044188,0.265292662090887,0.4179737307425577,0,learn
,html-keyboard-response,319,776099,0.0-168.0-1.0,null,,,<p></p>,null,,,,,,,,,,,
,do_trial,320,780546,0.0-169.0-0.0,1940.4000000953674,,,,,,51,1,0,0,2,coast,108,0.2514271006022661,0.33734889431108933,0.35372677666633706,0,learn
,html-keyboard-response,321,781549,0.0-169.0-1.0,null,,,<p></p>,null,,,,,,,,,,,
,do_trial,322,784368,0.0-170.0-0.0,312.80000019073486,,,,,,51,0,0,0,2,coast,109,0.19572979481326414,0.30206133060855567,0.4327864071080036,0,learn
,html-keyboard-response,323,785370,0.0-170.0-1.0,null,,,<p></p>,null,,,,,,,,,,,
,do_bye,324,786877,0.0-171.0-0.0,null,,,,,,null,,,,,,,,,
,do_travel,325,795882,0.0-172.0-0.0,null,,,,,,null,,,,,,,,,
,do_welcome,326,799906,0.0-172.0-1.0,null,,,,,,null,,,,,,,,,
,do_trial,327,805412,0.0-173.0-0.0,2995,,,,,,51,0,0,1,3,mountain,110,0.16612047225548066,0.28552839124120344,1,1,learn
,html-keyboard-response,328,806417,0.0-173.0-1.0,null,,,<p></p>,null,,,,,,,,,,,
,do_trial,329,809184,0.0-174.0-0.0,259.2000002861023,,,,,,51,0,0,1,3,mountain,111,0.2785299727222348,0.3004925118545298,1,1,learn
,html-keyboard-response,330,810186,0.0-174.0-1.0,null,,,<p></p>,null,,,,,,,,,,,
,do_trial,331,812802,0.0-175.0-0.0,108.90000009536743,,,,,,51,0,0,1,3,mountain,112,0.05323517885107066,0.18333352127213304,0.9100892526373506,1,learn
,html-keyboard-response,332,813805,0.0-175.0-1.0,null,,,<p></p>,null,,,,,,,,,,,
,do_trial,333,816866,0.0-176.0-0.0,555.2000002861023,,,,,,51,0,0,0,3,mountain,113,0.1373915353302753,0.30430644675681723,0.8516333571946905,0,learn
,html-keyboard-response,334,817869,0.0-176.0-1.0,null,,,<p></p>,null,,,,,,,,,,,
,do_trial,335,821495,0.0-177.0-0.0,1121.0999999046326,,,,,,51,1,0,1,3,mountain,114,0.1107520374202781,0.2929883324402918,0.681886280890746,1,learn
,html-keyboard-response,336,822497,0.0-177.0-1.0,null,,,<p></p>,null,,,,,,,,,,,
,do_trial,337,826011,0.0-178.0-0.0,1007.1000003814697,,,,,,51,0,0,1,3,mountain,115,0.07109585390957701,0.25476136086198287,0.7126756292556569,1,learn
,html-keyboard-response,338,827014,0.0-178.0-1.0,null,,,<p></p>,null,,,,,,,,,,,
,do_trial,339,830161,0.0-179.0-0.0,640.2000002861023,,,,,,51,0,0,0,3,mountain,116,0.14266844413690055,0.22323314251314574,0.6561803991641617,0,learn
,html-keyboard-response,340,831163,0.0-179.0-1.0,null,,,<p></p>,null,,,,,,,,,,,
,do_trial,341,834745,0.0-180.0-0.0,1075.2999997138977,,,,,,51,0,1,0,3,mountain,117,0.14010277491090864,0.272484033792406,0.6201574819374078,0,learn
,html-keyboard-response,342,835747,0.0-180.0-1.0,null,,,<p></p>,null,,,,,,,,,,,
,do_trial,343,840324,0.0-181.0-0.0,2071.5999999046326,,,,,,51,0,0,0,3,mountain,118,0.3049164865880669,0.261893261141321,0.501025229075581,0,learn
,html-keyboard-response,344,841326,0.0-181.0-1.0,null,,,<p></p>,null,,,,,,,,,,,
,do_trial,345,844266,0.0-182.0-0.0,431.90000009536743,,,,,,50,0,0,0,3,mountain,119,0.25055460268206053,0.319409362885818,0.5742864195335632,0,learn
,html-keyboard-response,346,845268,0.0-182.0-1.0,null,,,<p></p>,null,,,,,,,,,,,
,do_trial,347,848239,0.0-183.0-0.0,464.1000003814697,,,,,,50,0,1,1,3,mountain,120,0.1756693229381589,0.4206125742793996,0.7373229160607272,1,learn
,html-keyboard-response,348,849242,0.0-183.0-1.0,null,,,<p></p>,null,,,,,,,,,,,
,do_trial,349,852444,0.0-184.0-0.0,695,,,,,,50,0,1,0,3,mountain,121,0.1421137220854048,0.459936709904893,0.6122042565328232,1,learn
,html-keyboard-response,350,853446,0.0-184.0-1.0,null,,,<p></p>,null,,,,,,,,,,,
,do_trial,351,856446,0.0-185.0-0.0,492.80000019073486,,,,,,50,0,1,1,3,mountain,122,0.12443026600153566,0.3822673362729244,0.48828804663784786,1,learn
,html-keyboard-response,352,857449,0.0-185.0-1.0,null,,,<p></p>,null,,,,,,,,,,,
,do_trial,353,860040,0.0-186.0-0.0,84.80000019073486,,,,,,50,0,1,0,3,mountain,123,0.13117400368309876,0.4354478208806547,0.2796789458750496,1,learn
,html-keyboard-response,354,861043,0.0-186.0-1.0,null,,,<p></p>,null,,,,,,,,,,,
,do_trial,355,864506,0.0-187.0-0.0,957,,,,,,50,0,1,1,3,mountain,124,0.07237999870234178,0.35567181940937764,0.3128966612976541,1,learn
,html-keyboard-response,356,865508,0.0-187.0-1.0,null,,,<p></p>,null,,,,,,,,,,,
,do_trial,357,868084,0.0-188.0-0.0,70.40000009536743,,,,,,50,0,0,0,3,mountain,125,0.1225639340590266,0.3794406409915388,0.29765898378931605,0,learn
,html-keyboard-response,358,869087,0.0-188.0-1.0,null,,,<p></p>,null,,,,,,,,,,,
,do_trial,359,872115,0.0-189.0-0.0,522.5,,,,,,50,0,0,0,3,mountain,126,0.1267334165866755,0.4299685218547281,0.40034958304945967,0,learn
,html-keyboard-response,360,873118,0.0-189.0-1.0,null,,,<p></p>,null,,,,,,,,,,,
,do_trial,361,876056,0.0-190.0-0.0,430.6000003814697,,,,,,50,0,1,1,3,mountain,127,0.3106796279710966,0.5235494941854318,0.3543353030374763,1,learn
,html-keyboard-response,362,877059,0.0-190.0-1.0,null,,,<p></p>,null,,,,,,,,,,,
,do_trial,363,881321,0.0-191.0-0.0,1756.5,,,,,,50,0,0,0,3,mountain,128,0.13206320002218283,0.5513610524278089,0.3390758901549127,0,learn
,html-keyboard-response,364,882323,0.0-191.0-1.0,null,,,<p></p>,null,,,,,,,,,,,
,do_trial,365,885424,0.0-192.0-0.0,594.3000001907349,,,,,,50,1,0,1,3,mountain,129,0.06181931745074123,0.6391144427511293,0.3433408316624969,0,learn
,html-keyboard-response,366,886427,0.0-192.0-1.0,null,,,<p></p>,null,,,,,,,,,,,
,do_trial,367,890172,0.0-193.0-0.0,1238.9000000953674,,,,,,50,0,1,0,3,mountain,130,0.05276499037468815,0.5813691868317729,0.2983224486253869,1,learn
,html-keyboard-response,368,891175,0.0-193.0-1.0,null,,,<p></p>,null,,,,,,,,,,,
,do_trial,369,893713,0.0-194.0-0.0,32.89999961853027,,,,,,50,0,1,1,3,mountain,131,0.09914764480753854,0.702464405557225,0.2670298135821015,1,learn
,html-keyboard-response,370,894715,0.0-194.0-1.0,null,,,<p></p>,null,,,,,,,,,,,
,do_trial,371,897248,0.0-195.0-0.0,26.100000381469727,,,,,,50,0,1,0,3,mountain,132,0.0650891602152364,0.6577949850100625,0.13489205689309716,1,learn
,html-keyboard-response,372,898251,0.0-195.0-1.0,null,,,<p></p>,null,,,,,,,,,,,
,do_trial,373,900906,0.0-196.0-0.0,148,,,,,,50,0,1,0,3,mountain,133,0.10141900153205727,0.7458170713989023,0.14966020738758462,1,learn
,html-keyboard-response,374,901908,0.0-196.0-1.0,null,,,<p></p>,null,,,,,,,,,,,
,do_trial,375,904675,0.0-197.0-0.0,259.5,,,,,,50,0,1,0,3,mountain,134,0.11928019877921564,0.6531165346577931,0.21291901345759545,1,learn
,html-keyboard-response,376,905677,0.0-197.0-1.0,null,,,<p></p>,null,,,,,,,,,,,
,do_trial,377,908314,0.0-198.0-0.0,130.2000002861023,,,,,,50,0,1,0,3,mountain,135,0.19292942550039033,0.5880757446790497,0.2663953931123576,1,learn
,html-keyboard-response,378,909317,0.0-198.0-1.0,null,,,<p></p>,null,,,,,,,,,,,
,do_trial,379,912167,0.0-199.0-0.0,342.59999990463257,,,,,,50,0,1,0,3,mountain,136,0.16298903818057064,0.737328411178058,0.20588475429858058,1,learn
,html-keyboard-response,380,913168,0.0-199.0-1.0,null,,,<p></p>,null,,,,,,,,,,,
,do_trial,381,915765,0.0-200.0-0.0,92.09999990463257,,,,,,50,0,0,1,3,mountain,137,0.08288454208594047,0.6299785030495948,0.253214085646564,0,learn
,html-keyboard-response,382,916767,0.0-200.0-1.0,null,,,<p></p>,null,,,,,,,,,,,
,do_trial,383,919641,0.0-201.0-0.0,366.59999990463257,,,,,,50,0,0,1,3,mountain,138,0.08694157532726514,0.6514373763814032,0.30687229418573425,0,learn
,html-keyboard-response,384,920643,0.0-201.0-1.0,null,,,<p></p>,null,,,,,,,,,,,
,do_trial,385,923306,0.0-202.0-0.0,155.09999990463257,,,,,,50,0,0,1,3,mountain,139,0.1709297397796455,0.5291188054967317,0.30631823336708275,0,learn
,html-keyboard-response,386,924309,0.0-202.0-1.0,null,,,<p></p>,null,,,,,,,,,,,
,do_trial,387,927201,0.0-203.0-0.0,384.30000019073486,,,,,,50,0,1,0,3,mountain,140,0.10115225264914601,0.558847891413507,0.27285142408212476,1,learn
,html-keyboard-response,388,928204,0.0-203.0-1.0,null,,,<p></p>,null,,,,,,,,,,,
,do_trial,389,930789,0.0-204.0-0.0,80.39999961853027,,,,,,50,0,0,0,3,mountain,141,0.06938646820604824,0.7135386034646475,0.11606228879784639,0,learn
,html-keyboard-response,390,931791,0.0-204.0-1.0,null,,,<p></p>,null,,,,,,,,,,,
,do_trial,391,934709,0.0-205.0-0.0,410.5,,,,,,49,1,1,0,3,mountain,142,0.2646716200274383,0.6203978931429291,0.06718630684881344,1,learn
,html-keyboard-response,392,935712,0.0-205.0-1.0,null,,,<p></p>,null,,,,,,,,,,,
,do_trial,393,938935,0.0-206.0-0.0,718.3999996185303,,,,,,49,1,1,0,3,mountain,143,0.20234019552031296,0.6528792125621802,0.1030628201439885,1,learn
,html-keyboard-response,394,939938,0.0-206.0-1.0,null,,,<p></p>,null,,,,,,,,,,,
,do_trial,395,943064,0.0-207.0-0.0,619.7000002861023,,,,,,49,0,1,1,3,mountain,144,0.2781901227008008,0.6074979901850369,0.09164730439630024,0,learn
,html-keyboard-response,396,944066,0.0-207.0-1.0,null,,,<p></p>,null,,,,,,,,,,,
,do_trial,397,947157,0.0-208.0-0.0,585.4000000953674,,,,,,49,1,1,0,3,mountain,145,0.24137469522164792,0.7344584399242947,0.18923675932223874,1,learn
,html-keyboard-response,398,948160,0.0-208.0-1.0,null,,,<p></p>,null,,,,,,,,,,,
,do_trial,399,950865,0.0-209.0-0.0,198,,,,,,49,1,1,0,3,mountain,146,0.2297220733154897,0.6257444746506026,0.14592366701397996,1,learn
,html-keyboard-response,400,951867,0.0-209.0-1.0,null,,,<p></p>,null,,,,,,,,,,,
,do_trial,401,954790,0.0-210.0-0.0,417.2999997138977,,,,,,49,0,1,1,3,mountain,147,0.1755084908488435,0.6191359467475577,0.18023084522012123,0,learn
,html-keyboard-response,402,955792,0.0-210.0-1.0,null,,,<p></p>,null,,,,,,,,,,,
,do_trial,403,958552,0.0-211.0-0.0,254.09999990463257,,,,,,49,0,1,0,3,mountain,148,0.14500386898271236,0.533291748366204,0.31172869855898677,0,learn
,html-keyboard-response,404,959555,0.0-211.0-1.0,null,,,<p></p>,null,,,,,,,,,,,
,do_trial,405,962680,0.0-212.0-0.0,619.1999998092651,,,,,,49,1,0,0,3,mountain,149,0.21451486431064368,0.4728240042004724,0.26391500299048326,1,learn
,html-keyboard-response,406,963682,0.0-212.0-1.0,null,,,<p></p>,null,,,,,,,,,,,
,do_bye,407,965189,0.0-213.0-0.0,null,,,,,,null,,,,,,,,,
,do_travel,408,974194,0.0-214.0-0.0,null,,,,,,null,,,,,,,,,
,do_welcome,409,978223,0.0-214.0-1.0,null,,,,,,null,,,,,,,,,
,do_trial,410,982866,0.0-215.0-0.0,2134.300000190735,,,,,,50,0,1,0,4,highway,150,0.23498920397362613,1,0.24521054958571983,1,learn
,html-keyboard-response,411,983868,0.0-215.0-1.0,null,,,<p></p>,null,,,,,,,,,,,
,do_trial,412,987051,0.0-216.0-0.0,676,,,,,,50,1,1,0,4,highway,151,0.1674248081606959,1,0.3006041871270968,1,learn
,html-keyboard-response,413,988054,0.0-216.0-1.0,null,,,<p></p>,null,,,,,,,,,,,
,do_trial,414,990894,0.0-217.0-0.0,332,,,,,,50,1,0,1,4,highway,152,0.13170952317389717,0.64967103572666,0.3652762013597998,0,learn
,html-keyboard-response,415,991896,0.0-217.0-1.0,null,,,<p></p>,null,,,,,,,,,,,
,do_trial,416,996341,0.0-218.0-0.0,1930.9000000953674,,,,,,50,0,1,1,4,highway,153,0.06887195552822792,0.6548765023968849,0.3966552622798558,1,learn
,html-keyboard-response,417,997344,0.0-218.0-1.0,null,,,<p></p>,null,,,,,,,,,,,
,do_trial,418,1000385,0.0-219.0-0.0,532,,,,,,49,0,1,1,4,highway,154,0.20953639279887604,0.6493182584636883,0.5072852103019189,0,learn
,html-keyboard-response,419,1001388,0.0-219.0-1.0,null,,,<p></p>,null,,,,,,,,,,,
,do_trial,420,1004394,0.0-220.0-0.0,498.40000009536743,,,,,,51,0,0,0,4,highway,155,0.0988670678179108,0.4816138090979509,0.43679308783626997,0,learn
,html-keyboard-response,421,1005397,0.0-220.0-1.0,null,,,<p></p>,null,,,,,,,,,,,
,do_trial,422,1008176,0.0-221.0-0.0,272.6000003814697,,,,,,50,0,1,1,4,highway,156,0.2109208211411395,0.5484490238988646,0.4477901311252567,1,learn
,html-keyboard-response,423,1009179,0.0-221.0-1.0,null,,,<p></p>,null,,,,,,,,,,,
,do_trial,424,1011747,0.0-222.0-0.0,61.09999990463257,,,,,,50,0,0,1,4,highway,157,0.113168766278284,0.43816805342413423,0.3663990757457448,0,learn
,html-keyboard-response,425,1012750,0.0-222.0-1.0,null,,,<p></p>,null,,,,,,,,,,,
,do_trial,426,1015308,0.0-223.0-0.0,51.09999990463257,,,,,,50,1,0,0,4,highway,158,0.12885233343808364,0.49937649601204603,0.28517255707033917,0,learn
,html-keyboard-response,427,1016311,0.0-223.0-1.0,null,,,<p></p>,null,,,,,,,,,,,
,do_trial,428,1018945,0.0-224.0-0.0,126.90000009536743,,,,,,50,0,0,0,4,highway,159,0.16033636696712017,0.4502044193201455,0.31768580604698415,0,learn
,html-keyboard-response,429,1019947,0.0-224.0-1.0,null,,,<p></p>,null,,,,,,,,,,,
,do_trial,430,1023592,0.0-225.0-0.0,1137.8000001907349,,,,,,50,0,0,0,4,highway,160,0.175777200134718,0.425294489108781,0.2500859960850133,0,learn
,html-keyboard-response,431,1024595,0.0-225.0-1.0,null,,,<p></p>,null,,,,,,,,,,,
,do_trial,432,1027386,0.0-226.0-0.0,284.19999980926514,,,,,,50,1,0,0,4,highway,161,0.2449428140311488,0.40342147393635486,0.2228053480922685,0,learn
,html-keyboard-response,433,1028389,0.0-226.0-1.0,null,,,<p></p>,null,,,,,,,,,,,
,do_trial,434,1031605,0.0-227.0-0.0,708.9000000953674,,,,,,50,0,0,0,4,highway,162,0.3620150174808235,0.30703169553973597,0.1717298090104226,0,learn
,html-keyboard-response,435,1032608,0.0-227.0-1.0,null,,,<p></p>,null,,,,,,,,,,,
,do_trial,436,1035115,0.0-228.0-0.0,0.19999980926513672,,,,,,50,1,0,1,4,highway,163,0.5069976496587414,0.3254572388572791,0.21761815533211398,0,learn
,html-keyboard-response,437,1036117,0.0-228.0-1.0,null,,,<p></p>,null,,,,,,,,,,,
,do_trial,438,1039069,0.0-229.0-0.0,448,,,,,,50,1,1,0,4,highway,164,0.6206503925215107,0.20935704834092378,0.1480996610308077,1,learn
,html-keyboard-response,439,1040072,0.0-229.0-1.0,null,,,<p></p>,null,,,,,,,,,,,
,do_trial,440,1042876,0.0-230.0-0.0,298.09999990463257,,,,,,49,0,0,0,4,highway,165,0.5913325756801783,0.14377192473795802,0.27820981543746365,0,learn
,html-keyboard-response,441,1043879,0.0-230.0-1.0,null,,,<p></p>,null,,,,,,,,,,,
,do_trial,442,1046637,0.0-231.0-0.0,252.30000019073486,,,,,,49,0,0,1,4,highway,166,0.46092798413881647,0.19565655926991088,0.27975580572673875,0,learn
,html-keyboard-response,443,1047640,0.0-231.0-1.0,null,,,<p></p>,null,,,,,,,,,,,
,do_trial,444,1050388,0.0-232.0-0.0,243.19999980926514,,,,,,49,0,0,0,4,highway,167,0.4006298103628292,0.1260462879084877,0.3677028685593378,0,learn
,html-keyboard-response,445,1051391,0.0-232.0-1.0,null,,,<p></p>,null,,,,,,,,,,,
,do_trial,446,1053999,0.0-233.0-0.0,100.19999980926514,,,,,,49,1,0,0,4,highway,168,0.45306104363201577,0.1780527394371043,0.4369287852700352,1,learn
,html-keyboard-response,447,1055001,0.0-233.0-1.0,null,,,<p></p>,null,,,,,,,,,,,
,do_trial,448,1057968,0.0-234.0-0.0,459.59999990463257,,,,,,51,1,0,0,4,highway,169,0.6508705239679549,0.1629940719229455,0.4309627536420266,0,learn
,html-keyboard-response,449,1058970,0.0-234.0-1.0,null,,,<p></p>,null,,,,,,,,,,,
,do_trial,450,1061625,0.0-235.0-0.0,147.2999997138977,,,,,,51,1,0,0,4,highway,170,0.5810021162266231,0.177185146583403,0.33252250603230665,0,learn
,html-keyboard-response,451,1062627,0.0-235.0-1.0,null,,,<p></p>,null,,,,,,,,,,,
,do_trial,452,1065226,0.0-236.0-0.0,91.69999980926514,,,,,,50,0,0,0,4,highway,171,0.5900528590972055,0.18176044902972036,0.37268193367104846,0,learn
,html-keyboard-response,453,1066229,0.0-236.0-1.0,null,,,<p></p>,null,,,,,,,,,,,
,do_trial,454,1069014,0.0-237.0-0.0,278.09999990463257,,,,,,50,1,1,0,4,highway,172,0.5661236920607107,0.1049543394921443,0.27900208057915893,1,learn
,html-keyboard-response,455,1070017,0.0-237.0-1.0,null,,,<p></p>,null,,,,,,,,,,,
,do_trial,456,1072901,0.0-238.0-0.0,376.7000002861023,,,,,,51,1,0,1,4,highway,173,0.5926180170043902,0.1804796060383761,0.28133507865711876,1,learn
,html-keyboard-response,457,1073903,0.0-238.0-1.0,null,,,<p></p>,null,,,,,,,,,,,
,do_trial,458,1076984,0.0-239.0-0.0,573.5999999046326,,,,,,50,1,0,0,4,highway,174,0.627526393530056,0.14321496259056604,0.3077105775009067,0,learn
,html-keyboard-response,459,1077987,0.0-239.0-1.0,null,,,<p></p>,null,,,,,,,,,,,
,do_trial,460,1081324,0.0-240.0-0.0,829.2999997138977,,,,,,49,1,0,0,4,highway,175,0.7814693606731952,0.12453867884612609,0.39694124319100943,1,learn
,html-keyboard-response,461,1082327,0.0-240.0-1.0,null,,,<p></p>,null,,,,,,,,,,,
,do_trial,462,1085334,0.0-241.0-0.0,500,,,,,,50,1,0,1,4,highway,176,0.7995130528788937,0.20607856406208933,0.4029999011811853,0,learn
,html-keyboard-response,463,1086337,0.0-241.0-1.0,null,,,<p></p>,null,,,,,,,,,,,
,do_trial,464,1089561,0.0-242.0-0.0,718.3000001907349,,,,,,50,0,0,0,4,highway,177,0.697181749637499,0.11164494233522997,0.25279450710923196,0,learn
,html-keyboard-response,465,1090564,0.0-242.0-1.0,null,,,<p></p>,null,,,,,,,,,,,
,do_trial,466,1093621,0.0-243.0-0.0,550.8000001907349,,,,,,50,1,0,0,4,highway,178,0.6439610833859344,0.16922340044966247,0.21142625459359488,0,learn
,html-keyboard-response,467,1094624,0.0-243.0-1.0,null,,,<p></p>,null,,,,,,,,,,,
,do_trial,468,1098306,0.0-244.0-0.0,1175.1999998092651,,,,,,50,1,0,1,4,highway,179,0.6720642917597333,0.1834483576322036,0.34043115065983093,0,learn
,html-keyboard-response,469,1099308,0.0-244.0-1.0,null,,,<p></p>,null,,,,,,,,,,,
,do_trial,470,1102252,0.0-245.0-0.0,437.69999980926514,,,,,,49,1,0,0,4,highway,180,0.5347139239906785,0.1507958714796345,0.3939292629275728,1,learn
,html-keyboard-response,471,1103255,0.0-245.0-1.0,null,,,<p></p>,null,,,,,,,,,,,
,do_trial,472,1105994,0.0-246.0-0.0,231.5,,,,,,49,0,0,1,4,highway,181,0.5042499779319496,0.1901769400651982,0.24849126569913518,0,learn
,html-keyboard-response,473,1106997,0.0-246.0-1.0,null,,,<p></p>,null,,,,,,,,,,,
,do_trial,474,1109556,0.0-247.0-0.0,51.80000019073486,,,,,,50,0,0,0,4,highway,182,0.6385128313649737,0.2186281287349889,0.4327911445236339,0,learn
,html-keyboard-response,475,1110558,0.0-247.0-1.0,null,,,<p></p>,null,,,,,,,,,,,
,do_trial,476,1113851,0.0-248.0-0.0,786,,,,,,50,0,0,0,4,highway,183,0.7203493831063834,0.06220926847755202,0.4656764670457364,0,learn
,html-keyboard-response,477,1114854,0.0-248.0-1.0,null,,,<p></p>,null,,,,,,,,,,,
,do_trial,478,1117400,0.0-249.0-0.0,39,,,,,,50,1,0,0,4,highway,184,0.7179454038574693,0.19558653478216703,0.4428866382882374,0,learn
,html-keyboard-response,479,1118402,0.0-249.0-1.0,null,,,<p></p>,null,,,,,,,,,,,
,do_trial,480,1121459,0.0-250.0-0.0,549.6999998092651,,,,,,50,1,0,0,4,highway,185,0.6230098579600845,0.12179857588097687,0.29286993672063355,0,learn
,html-keyboard-response,481,1122462,0.0-250.0-1.0,null,,,<p></p>,null,,,,,,,,,,,
,do_trial,482,1125082,0.0-251.0-0.0,113.2000002861023,,,,,,51,1,0,1,4,highway,186,0.6754240940089338,0.23546332494989736,0.4265709149392025,1,learn
,html-keyboard-response,483,1126085,0.0-251.0-1.0,null,,,<p></p>,null,,,,,,,,,,,
,do_trial,484,1128830,0.0-252.0-0.0,237.59999990463257,,,,,,50,1,1,1,4,highway,187,0.7033328476713444,0.22290061669313932,0.3730504877029891,1,learn
,html-keyboard-response,485,1129833,0.0-252.0-1.0,null,,,<p></p>,null,,,,,,,,,,,
,do_trial,486,1132661,0.0-253.0-0.0,320.59999990463257,,,,,,51,1,0,0,4,highway,188,0.6524395092958528,0.19391445386077957,0.22697489533276205,0,learn
,html-keyboard-response,487,1133664,0.0-253.0-1.0,null,,,<p></p>,null,,,,,,,,,,,
,do_trial,488,1137107,0.0-254.0-0.0,935.4000000953674,,,,,,50,0,0,0,4,highway,189,0.7051243871121946,0.09436396674664416,0.2613859349193366,0,learn
,html-keyboard-response,489,1138109,0.0-254.0-1.0,null,,,<p></p>,null,,,,,,,,,,,
,do_bye,490,1139614,0.0-255.0-0.0,null,,,,,,null,,,,,,,,,
,do_travel,491,1148633,0.0-256.0-0.0,null,,,,,,null,,,,,,,,,
