success,trial_type,trial_index,time_elapsed,internal_node_id,rt,responses,subject_id,stimulus,key_press,prompt,response,choice_outcomes,context_n,context_img_id,trial_n,pR_red,pR_white,pR_black,outcome,phase
true,fullscreen,0,18642,0.0-0.0,,,,,,,,,,,,,,,,
,survey-html-form,1,123276,0.0-1.0,104596,{worker_id:698eec916caee248b2b996e5},698eec916caee248b2b996e5,,,,,,,,,,,,,
,instruc1,2,125543,0.0-2.0,null,,698eec916caee248b2b996e5,<div class='center'><p>Welcome! This study will last ~30 minutes. After the instructions there will be a practice game and quiz to make sure you understand the task. Today you will be the head captain of a pirate ship traveling around the world to different islands. Here is an overview of what you will be doing:</p><br><p> 1. Try to find the most successful pirate on 6 different islands</p><p> 2. Recall which pirates did the best on each island</p><br><p>,null,<div class='center'><p>Welcome! This study will last ~30 minutes. After the instructions there will be a practice game and quiz to make sure you understand the task. Today you will be the head captain of a pirate ship traveling around the world to different islands. Here is an overview of what you will be doing:</p><br><p> 1. Try to find the most successful pirate on 6 different islands</p><p> 2. Recall which pirates did the best on each island</p><br><p>,,,,,,,,,,
,html-keyboard-response,3,183339,0.0-3.0,57786,,,<div class='center'><p>Welcome! This study will last ~30 minutes. After the instructions there will be a practice game and quiz to make sure you understand the task. Today you will be the head captain of a pirate ship traveling around the world to different islands. Here is an overview of what you will be doing:</p><br><p> 1. Try to find the most successful pirate on 6 different islands</p><p> 2. Recall which pirates did the best on each island</p><br><p><p><b>[Press the space bar to continue]</b></p></div>,32,,,,,,,,,,,
,instruc2,4,185597,0.0-4.0,null,,,<div class='center'><p>You are going to visit these 6 islands on your journey. You'll be able to see these islands from your ship.</p><p><img src='../static/images/contexts/all_contexts.png' height='500'></p></div>,null,<div class='center'><p>You are going to visit these 6 islands on your journey. You'll be able to see these islands from your ship.</p><p><img src='../static/images/contexts/all_contexts.png' height='500'></p></div>,,,,,,,,,,
,html-keyboard-response,5,199800,0.0-5.0,14198,,,<div class='center'><p>You are going to visit these 6 islands on your journey. You'll be able to see these islands from your ship.</p><p><img src='../static/images/contexts/all_contexts.png' height='500'></p><p><b>[Press the space bar to continue]</b></p></div>,32,,,,,,,,,,,
,instruc4,6,202063,0.0-6.0,null,,,<div class='center'><p>As the head captain, you do not have to rob any ships yourself. Another pirate will be doing the robbing for you. First, you will choose a pirate to rob the next ship.</p><p><img src='../static/images/tutorial/pirates_all_crop.png' height='200'></p><p>Then, you'll see if the pirate successfully robbed the ship of their gold. If they were successful, then you'll get a stack of gold coins like this:</p><p><img src='../static/images/tutorial/reward.png' height='150'></p><p> If they were <b>not</b> successful, then you'll get no gold coins, and you'll see a big red x like this: </p><p><img src='../static/images/tutorial/reward_no.png' height='150'></p><p> How much bonus money you make is based on how many gold coins you collect.</p><div>,null,<div class='center'><p>As the head captain, you do not have to rob any ships yourself. Another pirate will be doing the robbing for you. First, you will choose a pirate to rob the next ship.</p><p><img src='../static/images/tutorial/pirates_all_crop.png' height='200'></p><p>Then, you'll see if the pirate successfully robbed the ship of their gold. If they were successful, then you'll get a stack of gold coins like this:</p><p><img src='../static/images/tutorial/reward.png' height='150'></p><p> If they were <b>not</b> successful, then you'll get no gold coins, and you'll see a big red x like this: </p><p><img src='../static/images/tutorial/reward_no.png' height='150'></p><p> How much bonus money you make is based on how many gold coins you collect.</p><div>,,,,,,,,,,
,html-keyboard-response,7,231410,0.0-7.0,29342,,,<div class='center'><p>As the head captain, you do not have to rob any ships yourself. Another pirate will be doing the robbing for you. First, you will choose a pirate to rob the next ship.</p><p><img src='../static/images/tutorial/pirates_all_crop.png' height='200'></p><p>Then, you'll see if the pirate successfully robbed the ship of their gold. If they were successful, then you'll get a stack of gold coins like this:</p><p><img src='../static/images/tutorial/reward.png' height='150'></p><p> If they were <b>not</b> successful, then you'll get no gold coins, and you'll see a big red x like this: </p><p><img src='../static/images/tutorial/reward_no.png' height='150'></p><p> How much bonus money you make is based on how many gold coins you collect.</p><div><p><b>[Press the space bar to continue]</b></p></div>,32,,,,,,,,,,,
,instruc5,8,258631,0.0-8.0,27213,,,<div class='center'><p>Even the most skilled pirate can not rob EVERY ship.</p><p> Some ships will have very strong protections against pirate attacks.</p><p> Blue beard, here, is very, very good at robbing ships, but he won't be successful every time he tries to rob one.</p><p> You can press the <b>'1'</b> key on the keyboard to choose him.</p><p> Try choosing him 10 times to see how often he succeeds at robbing a ship. </p><p><img src='../static/images/tutorial/blue.png' height='500'></p></div>,49,<div class='center'><p>Even the most skilled pirate can not rob EVERY ship.</p><p> Some ships will have very strong protections against pirate attacks.</p><p> Blue beard, here, is very, very good at robbing ships, but he won't be successful every time he tries to rob one.</p><p> You can press the <b>'1'</b> key on the keyboard to choose him.</p><p> Try choosing him 10 times to see how often he succeeds at robbing a ship. </p><p><img src='../static/images/tutorial/blue.png' height='500'></p></div>,,,,,,,,,,
,html-keyboard-response,9,260334,0.0-9.0,null,,,<div class='center'><p><img src='../static/images/tutorial/blue_win.png' height='500'></p></div>,null,,,,,,,,,,,
,html-keyboard-response,10,264180,0.0-10.0,3843,,,<div class='center'><img src='../static/images/tutorial/blue.png' height='500'></p></div>,49,,,,,,,,,,,
,html-keyboard-response,11,265873,0.0-11.0,null,,,<div class='center'><p><img src='../static/images/tutorial/blue_win.png' height='500'></p></div>,null,,,,,,,,,,,
,html-keyboard-response,12,267155,0.0-12.0,1281,,,<div class='center'><img src='../static/images/tutorial/blue.png' height='500'></p></div>,49,,,,,,,,,,,
,html-keyboard-response,13,268844,0.0-13.0,null,,,<div class='center'><p><img src='../static/images/tutorial/blue_win.png' height='500'></p></div>,null,,,,,,,,,,,
,html-keyboard-response,14,269628,0.0-14.0,780,,,<div class='center'><img src='../static/images/tutorial/blue.png' height='500'></p></div>,49,,,,,,,,,,,
,html-keyboard-response,15,271319,0.0-15.0,null,,,<div class='center'><p><img src='../static/images/tutorial/blue_no_win.png' height='500'></p></div>,null,,,,,,,,,,,
,html-keyboard-response,16,271979,0.0-16.0,658,,,<div class='center'><img src='../static/images/tutorial/blue.png' height='500'></p></div>,49,,,,,,,,,,,
,html-keyboard-response,17,273587,0.0-17.0,null,,,<div class='center'><p><img src='../static/images/tutorial/blue_win.png' height='500'></p></div>,null,,,,,,,,,,,
,html-keyboard-response,18,274175,0.0-18.0,583,,,<div class='center'><img src='../static/images/tutorial/blue.png' height='500'></p></div>,49,,,,,,,,,,,
,html-keyboard-response,19,275845,0.0-19.0,null,,,<div class='center'><p><img src='../static/images/tutorial/blue_win.png' height='500'></p></div>,null,,,,,,,,,,,
,html-keyboard-response,20,276357,0.0-20.0,505,,,<div class='center'><img src='../static/images/tutorial/blue.png' height='500'></p></div>,49,,,,,,,,,,,
,html-keyboard-response,21,278048,0.0-21.0,null,,,<div class='center'><p><img src='../static/images/tutorial/blue_win.png' height='500'></p></div>,null,,,,,,,,,,,
,html-keyboard-response,22,278856,0.0-22.0,807,,,<div class='center'><img src='../static/images/tutorial/blue.png' height='500'></p></div>,49,,,,,,,,,,,
,html-keyboard-response,23,280548,0.0-23.0,null,,,<div class='center'><p><img src='../static/images/tutorial/blue_no_win.png' height='500'></p></div>,null,,,,,,,,,,,
,html-keyboard-response,24,281353,0.0-24.0,795,,,<div class='center'><img src='../static/images/tutorial/blue.png' height='500'></p></div>,49,,,,,,,,,,,
,html-keyboard-response,25,283053,0.0-25.0,null,,,<div class='center'><p><img src='../static/images/tutorial/blue_win.png' height='500'></p></div>,null,,,,,,,,,,,
,html-keyboard-response,26,283613,0.0-26.0,558,,,<div class='center'><img src='../static/images/tutorial/blue.png' height='500'></p></div>,49,,,,,,,,,,,
,html-keyboard-response,27,285322,0.0-27.0,null,,,<div class='center'><p><img src='../static/images/tutorial/blue_win.png' height='500'></p></div>,null,,,,,,,,,,,
,instruc6,28,287588,0.0-28.0,null,,,<div class='center'><p> See, he succeeded in robbing the ships most of the time but not every time. </p></div>,null,<div class='center'><p> See, he succeeded in robbing the ships most of the time but not every time. </p></div>,,,,,,,,,,
,html-keyboard-response,29,290722,0.0-29.0,3133,,,<div class='center'><p> See, he succeeded in robbing the ships most of the time but not every time. </p><p><b>[Press the space bar to continue]</b></p></div>,32,,,,,,,,,,,
,html-keyboard-response,30,307966,0.0-30.0,17241,,,<div class='center'><p>From these three pirates, you will get to choose which one you want to rob the next ship. <p>Press the <b>'1'</b> key on your keyboard to pick the pirate with the red beard.</p><p> Press <b>'2'</b> to pick the pirate with the white beard.</p><p> Press <b>'3'</b> to pick the pirate with the black beard.</p><p>Try picking a pirate now!</p><p><img src='../static/images/tutorial/all_pirates.png' height='500'></p></div>,50,,,,,,,,,,,
,html-keyboard-response,31,313097,0.0-31.0-0.0,5076,,,<div class='center'><p>Yay! This pirate succeeded in robbing the ship!</p><p><img src='../static/images/tutorial/white_win.png' height='500'></p><p><b>[Press the space bar to continue]</b></p></div>,32,,,,,,,,,,,
,html-keyboard-response,32,317440,0.0-31.0-1.0,4341,,,<div class='center'><p>Now try choosing another.</p><p><img src='../static/images/tutorial/all_pirates.png' height='500'></p></div>,51,,,,,,,,,,,
,html-keyboard-response,33,320039,0.0-32.0-0.0,2594,,,<div class='center'><p>Oh no! This pirate did not succeed in robbing the ship.</p><p><img src='../static/images/tutorial/black_no_win.png' height='500'></p><p><b>[Press the space bar to continue]</b></p></div>,32,,,,,,,,,,,
,instruc9,34,322290,0.0-33.0-0.0,null,,,<div class='center'><p>If you don't make your choice fast enough, you'll have to wait a few seconds before you can make another one. </p><p><img src='../static/images/miscellaneous/hurry_up.png' height='500'></p></div>,null,<div class='center'><p>If you don't make your choice fast enough, you'll have to wait a few seconds before you can make another one. </p><p><img src='../static/images/miscellaneous/hurry_up.png' height='500'></p></div>,,,,,,,,,,
,html-keyboard-response,35,325031,0.0-33.0-1.0,2738,,,<div class='center'><p>If you don't make your choice fast enough, you'll have to wait a few seconds before you can make another one. </p><p><img src='../static/images/miscellaneous/hurry_up.png' height='500'></p><p><b>[Press the space bar to continue]</b></p></div>,32,,,,,,,,,,,
,instruc11,36,327283,0.0-33.0-2.0,null,,,<div class='center'><p>How successful a pirate is at robbing ships will depend on the island you're on.</p><p> A pirate may have visited this island many times before and gained a lot of practice robbing ships there.</p><p>So, they're more likely to be successful than a pirate who has never visited the island before.</p></div>,null,<div class='center'><p>How successful a pirate is at robbing ships will depend on the island you're on.</p><p> A pirate may have visited this island many times before and gained a lot of practice robbing ships there.</p><p>So, they're more likely to be successful than a pirate who has never visited the island before.</p></div>,,,,,,,,,,
,html-keyboard-response,37,342572,0.0-33.0-3.0,15287,,,<div class='center'><p>How successful a pirate is at robbing ships will depend on the island you're on.</p><p> A pirate may have visited this island many times before and gained a lot of practice robbing ships there.</p><p>So, they're more likely to be successful than a pirate who has never visited the island before.</p><p><b>[Press the space bar to continue]</b></p></div>,32,,,,,,,,,,,
,instruc12,38,344830,0.0-33.0-4.0,null,,,<div class='center'><p>How successful a pirate is at robbing ships can also change over the time spent on the island. </p><p> Ships may hear from islanders about the pirates coming and will improve their protections against the attack. This may make it harder to rob them.</p><p> Ships may also become lazy and weaken the strength of their protections. This may make it easier to rob them.</p><br><p>Things are always changing on the high seas! So, try your best to pay attention!</p><p><img src='../static/images/tutorial/contingency.png' height='500'></p></div>,null,<div class='center'><p>How successful a pirate is at robbing ships can also change over the time spent on the island. </p><p> Ships may hear from islanders about the pirates coming and will improve their protections against the attack. This may make it harder to rob them.</p><p> Ships may also become lazy and weaken the strength of their protections. This may make it easier to rob them.</p><br><p>Things are always changing on the high seas! So, try your best to pay attention!</p><p><img src='../static/images/tutorial/contingency.png' height='500'></p></div>,,,,,,,,,,
,html-keyboard-response,39,380425,0.0-33.0-5.0,35577,,,<div class='center'><p>How successful a pirate is at robbing ships can also change over the time spent on the island. </p><p> Ships may hear from islanders about the pirates coming and will improve their protections against the attack. This may make it harder to rob them.</p><p> Ships may also become lazy and weaken the strength of their protections. This may make it easier to rob them.</p><br><p>Things are always changing on the high seas! So, try your best to pay attention!</p><p><img src='../static/images/tutorial/contingency.png' height='500'></p><p><b>[Press the space bar to continue]</b></p></div>,32,,,,,,,,,,,
,instruc13,40,382716,0.0-33.0-6.0,null,,,<div class='center'><p>Let's go over the instructions quickly again. You have one thing to do: </p><p><b>Pick the pirate who is the best at robbing ships on the current island.</b></p><p>The amount of bonus money you win depends on it.</p><br><p>Let's try a practice game. The game will start by showing you an island. Pick a pirate using the <b>1, 2, 3</b> keys on your keyboard to get it to try and rob one of the ships leaving the island.</p><p>This is just a practice game, so you're not playing for money.</p><p>Good luck! This game will be very difficult but try your best!</p></div>,null,<div class='center'><p>Let's go over the instructions quickly again. You have one thing to do: </p><p><b>Pick the pirate who is the best at robbing ships on the current island.</b></p><p>The amount of bonus money you win depends on it.</p><br><p>Let's try a practice game. The game will start by showing you an island. Pick a pirate using the <b>1, 2, 3</b> keys on your keyboard to get it to try and rob one of the ships leaving the island.</p><p>This is just a practice game, so you're not playing for money.</p><p>Good luck! This game will be very difficult but try your best!</p></div>,,,,,,,,,,
,html-keyboard-response,41,403176,0.0-33.0-7.0,20455,,,<div class='center'><p>Let's go over the instructions quickly again. You have one thing to do: </p><p><b>Pick the pirate who is the best at robbing ships on the current island.</b></p><p>The amount of bonus money you win depends on it.</p><br><p>Let's try a practice game. The game will start by showing you an island. Pick a pirate using the <b>1, 2, 3</b> keys on your keyboard to get it to try and rob one of the ships leaving the island.</p><p>This is just a practice game, so you're not playing for money.</p><p>Good luck! This game will be very difficult but try your best!</p><p><b>[Press the space bar to continue]</b></p></div>,32,,,,,,,,,,,
,do_welcome,42,407427,0.0-33.0-8.0,null,,,,,,null,,,,,,,,,
,do_trial,43,412563,0.0-33.0-9.0,2430,,,,,,49,1,0,0,,,,,,,,
,html-keyboard-response,44,413699,0.0-34.0-0.0,null,,,<p></p>,null,,,,,,,,,,,
,do_trial,45,418442,0.0-34.0-1.0,2074,,,,,,49,1,1,0,,,,,,,,
,html-keyboard-response,46,419526,0.0-35.0-0.0,null,,,<p></p>,null,,,,,,,,,,,
,do_trial,47,422954,0.0-35.0-1.0,888,,,,,,49,1,0,1,,,,,,,,
,html-keyboard-response,48,424086,0.0-36.0-0.0,null,,,<p></p>,null,,,,,,,,,,,
,do_trial,49,427455,0.0-36.0-1.0,829,,,,,,49,0,1,0,,,,,,,,
,html-keyboard-response,50,428588,0.0-37.0-0.0,null,,,<p></p>,null,,,,,,,,,,,
,do_trial,51,432216,0.0-37.0-1.0,1063,,,,,,49,1,0,0,,,,,,,,
,do_bye,52,433923,0.0-38.0-0.0,null,,,,,,null,,,,,,,,,
,do_travel,53,443033,0.0-38.0-1.0,null,,,,,,null,,,,,,,,,
,do_welcome,54,447558,0.0-38.0-2.0,null,,,,,,null,,,,,,,,,
,do_trial,55,454324,0.0-38.0-3.0,null,,,,,,null,1,0,0,,,,,,,,
,do_bye,56,456031,0.0-39.0-0.0,null,,,,,,null,,,,,,,,,
,do_travel,57,465216,0.0-39.0-1.0,null,,,,,,null,,,,,,,,,
,do_welcome,58,469742,0.0-39.0-2.0,null,,,,,,null,,,,,,,,,
,do_trial,59,473455,0.0-39.0-3.0,1132,,,,,,50,1,0,0,,,,,,,,
,html-keyboard-response,60,474508,0.0-40.0-0.0,null,,,<p></p>,null,,,,,,,,,,,
,do_trial,61,478463,0.0-40.0-1.0,1358,,,,,,51,1,0,1,,,,,,,,
,html-keyboard-response,62,480127,0.0-41.0-0.0,null,,,<p></p>,null,,,,,,,,,,,
,do_trial,63,483304,0.0-41.0-1.0,615,,,,,,51,1,1,0,,,,,,,,
,html-keyboard-response,64,484437,0.0-42.0-0.0,null,,,<p></p>,null,,,,,,,,,,,
,do_trial,65,487824,0.0-42.0-1.0,777,,,,,,49,0,0,1,,,,,,,,
,html-keyboard-response,66,488957,0.0-43.0-0.0,null,,,<p></p>,null,,,,,,,,,,,
,do_trial,67,492384,0.0-43.0-1.0,881,,,,,,50,1,0,1,,,,,,,,
,html-keyboard-response,68,495397,0.0-44.0-0.0,3004,,,<div class='center'><p><img src='../static/images/tutorial/prac_best_pirate.png' height='500'></p></div>,51,,,,,,,,,,,
,html-keyboard-response,69,496519,0.0-45.0-0.0,1120,,,<div class='center'><p>That's incorrect! Red beard was the best.</p><p><b>[Press the space bar to continue]</b></p></div>,32,,,,,,,,,,,
,quiz_beginning,70,498773,0.0-45.0-1.0,null,,,<div class='center'><p>Good job on the practice game! Now, you will be asked some true or false questions to make sure you really understand the rules of the game.</p><p> Press <b>'1'</b> on the keyboard for true and press <b>'2'</b> for false.</p></div>,null,<div class='center'><p>Good job on the practice game! Now, you will be asked some true or false questions to make sure you really understand the rules of the game.</p><p> Press <b>'1'</b> on the keyboard for true and press <b>'2'</b> for false.</p></div>,,,,,,,,,,
,html-keyboard-response,71,503618,0.0-45.0-2.0,4843,,,<div class='center'><p>You win bonus money by collecting gold coins.</p><p>Press 1 for true and press  2 for false.</p></div>,49,,,,,,,,,,,
,correct,72,505883,0.0-46.0-0.0,null,,,<div class='center'><p>That's correct!</p></div>,null,<div class='center'><p>That's correct!</p></div>,,,,,,,,,,
,html-keyboard-response,73,507761,0.0-46.0-1.0,1872,,,<div class='center'><p>That's correct!</p><p><b>[Press the space bar to continue]</b></p></div>,32,,,,,,,,,,,
,html-keyboard-response,74,518226,0.0-46.0-2.0,10465,,,<div class='center'><p>The pirate who is the best at robbing ships when you first arrive on the island will definitely still be the best when you leave the island. </p><p>Press 1 for true and press  2 for false.</p></div>,50,,,,,,,,,,,
,correct,75,520485,0.0-47.0-0.0,null,,,<div class='center'><p>That's correct!</p></div>,null,<div class='center'><p>That's correct!</p></div>,,,,,,,,,,
,html-keyboard-response,76,520637,0.0-47.0-1.0,152,,,<div class='center'><p>That's correct!</p><p><b>[Press the space bar to continue]</b></p></div>,32,,,,,,,,,,,
,html-keyboard-response,77,528541,0.0-47.0-2.0,7903,,,<div class='center'><p>The pirate who is the best at robbing ships on the first island will be the best on every other island.</p><p>Press 1 for true and press  2 for false.</p></div>,50,,,,,,,,,,,
,correct,78,530802,0.0-48.0-0.0,null,,,<div class='center'><p>That's correct!</p></div>,null,<div class='center'><p>That's correct!</p></div>,,,,,,,,,,
,html-keyboard-response,79,532412,0.0-48.0-1.0,1607,,,<div class='center'><p>That's correct!</p><p><b>[Press the space bar to continue]</b></p></div>,32,,,,,,,,,,,
,html-keyboard-response,80,541306,0.0-48.0-2.0,8892,,,<div class='center'><p>You should remember the island where a pirate robbed a ship.</p><p>Press 1 for true and press  2 for false.</p></div>,49,,,,,,,,,,,
,correct,81,543570,0.0-49.0-0.0,null,,,<div class='center'><p>That's correct!</p></div>,null,<div class='center'><p>That's correct!</p></div>,,,,,,,,,,
,html-keyboard-response,82,544659,0.0-49.0-1.0,1087,,,<div class='center'><p>That's correct!</p><p><b>[Press the space bar to continue]</b></p></div>,32,,,,,,,,,,,
,q_all_corr,83,546911,0.0-50.0-0.0,null,,,<div class='center'><p>Good job! You’re now ready to move on to the real game! Remember this game will be difficult but don't get discouraged and try your best!</p></div>,null,<div class='center'><p>Good job! You’re now ready to move on to the real game! Remember this game will be difficult but don't get discouraged and try your best!</p></div>,,,,,,,,,,
,html-keyboard-response,84,556533,0.0-50.0-1.0,9616,,,<div class='center'><p>Good job! You’re now ready to move on to the real game! Remember this game will be difficult but don't get discouraged and try your best!</p><p><b>[Press the space bar to continue]</b></p></div>,32,,,,,,,,,,,
,do_welcome,85,561044,0.0-51.0-0.0,null,,,,,,null,,,,,,,,,
,do_trial,86,564714,0.0-52.0-0.0,1088,,,,,,49,1,1,0,0,highway,0,0.6,0.3,0.1,1,learn
,html-keyboard-response,87,565847,0.0-52.0-1.0,null,,,<p></p>,null,,,,,,,,,,,
,do_trial,88,569224,0.0-53.0-0.0,833,,,,,,49,1,0,0,0,highway,1,0.7600958528157179,0.28492312494953254,0.11441374345223858,1,learn
,html-keyboard-response,89,570364,0.0-53.0-1.0,null,,,<p></p>,null,,,,,,,,,,,
,do_trial,90,573871,0.0-54.0-0.0,949,,,,,,49,1,0,1,0,highway,2,0.8475005466277553,0.22335987435958263,0.20444991708197127,1,learn
,html-keyboard-response,91,575012,0.0-54.0-1.0,null,,,<p></p>,null,,,,,,,,,,,
,do_trial,92,578230,0.0-55.0-0.0,714,,,,,,49,0,0,0,0,highway,3,0.7342517754668638,0.29964848203649214,0.11053917103364029,0,learn
,html-keyboard-response,93,579368,0.0-55.0-1.0,null,,,<p></p>,null,,,,,,,,,,,
,do_trial,94,582566,0.0-56.0-0.0,696,,,,,,49,1,1,0,0,highway,4,0.7609959567900272,0.33990900937212537,0.06798344810741262,1,learn
,html-keyboard-response,95,583706,0.0-56.0-1.0,null,,,<p></p>,null,,,,,,,,,,,
,do_trial,96,586933,0.0-57.0-0.0,721,,,,,,49,0,0,0,0,highway,5,0.692463970820379,0.33613917992412423,0.18556483339119895,0,learn
,html-keyboard-response,97,588113,0.0-57.0-1.0,null,,,<p></p>,null,,,,,,,,,,,
,do_trial,98,591831,0.0-58.0-0.0,1151,,,,,,49,0,0,0,0,highway,6,0.7106426074902461,0.3341215512724461,0.1064084695517609,0,learn
,html-keyboard-response,99,592964,0.0-58.0-1.0,null,,,<p></p>,null,,,,,,,,,,,
,do_trial,100,596315,0.0-59.0-0.0,811,,,,,,50,1,1,0,0,highway,7,0.6185039694030328,0.3436134356022624,0.111432823606104,1,learn
,html-keyboard-response,101,597446,0.0-59.0-1.0,null,,,<p></p>,null,,,,,,,,,,,
,do_trial,102,600624,0.0-60.0-0.0,583,,,,,,50,1,0,0,0,highway,8,0.5639308688100967,0.37849888130102044,0.08196216479486847,0,learn
,html-keyboard-response,103,601765,0.0-60.0-1.0,null,,,<p></p>,null,,,,,,,,,,,
,do_trial,104,605513,0.0-61.0-0.0,1169,,,,,,49,1,1,0,0,highway,9,0.5651578563257666,0.36952118314372084,0.22844766787081053,1,learn
,html-keyboard-response,105,606648,0.0-61.0-1.0,null,,,<p></p>,null,,,,,,,,,,,
,do_trial,106,611163,0.0-62.0-0.0,1832,,,,,,50,1,0,0,0,highway,10,0.6082818257642081,0.23398767093728373,0.1432519728232535,0,learn
,html-keyboard-response,107,612293,0.0-62.0-1.0,null,,,<p></p>,null,,,,,,,,,,,
,do_trial,108,615455,0.0-63.0-0.0,587,,,,,,49,0,0,0,0,highway,11,0.6459113415288716,0.4233827180290128,0.1609996777964386,0,learn
,html-keyboard-response,109,616589,0.0-63.0-1.0,null,,,<p></p>,null,,,,,,,,,,,
,do_trial,110,619767,0.0-64.0-0.0,531,,,,,,49,0,1,0,0,highway,12,0.532397489905121,0.46465916458651335,0.20528518862635292,0,learn
,html-keyboard-response,111,620899,0.0-64.0-1.0,null,,,<p></p>,null,,,,,,,,,,,
,do_trial,112,624275,0.0-65.0-0.0,834,,,,,,50,0,0,0,0,highway,13,0.555293827105916,0.39066650316313195,0.22662726642560724,0,learn
,html-keyboard-response,113,625410,0.0-65.0-1.0,null,,,<p></p>,null,,,,,,,,,,,
,do_trial,114,628499,0.0-66.0-0.0,435,,,,,,50,1,0,0,0,highway,14,0.7111227657278549,0.35140916916664133,0.20850842111138207,0,learn
,html-keyboard-response,115,629632,0.0-66.0-1.0,null,,,<p></p>,null,,,,,,,,,,,
,do_trial,116,632782,0.0-67.0-0.0,468,,,,,,51,1,1,0,0,highway,15,0.7052109962696578,0.2527415338134254,0.1179620670896583,0,learn
,html-keyboard-response,117,633914,0.0-67.0-1.0,null,,,<p></p>,null,,,,,,,,,,,
,do_trial,118,637300,0.0-68.0-0.0,600,,,,,,51,1,0,0,0,highway,16,0.7803966818476454,0.3084601004966173,0.13186123564724045,0,learn
,html-keyboard-response,119,638434,0.0-68.0-1.0,null,,,<p></p>,null,,,,,,,,,,,
,do_trial,120,641820,0.0-69.0-0.0,543,,,,,,49,1,1,0,0,highway,17,0.6940824732237099,0.29205383140762314,0.07154900934117009,1,learn
,html-keyboard-response,121,642956,0.0-69.0-1.0,null,,,<p></p>,null,,,,,,,,,,,
,do_trial,122,646125,0.0-70.0-0.0,625,,,,,,49,0,1,0,0,highway,18,0.7460581158513117,0.2554762431676914,0.13366962762655762,0,learn
,html-keyboard-response,123,647259,0.0-70.0-1.0,null,,,<p></p>,null,,,,,,,,,,,
,do_trial,124,651279,0.0-71.0-0.0,1406,,,,,,49,1,0,1,0,highway,19,0.6450035256657346,0.3783733339100704,0.27070373900411854,1,learn
,html-keyboard-response,125,652412,0.0-71.0-1.0,null,,,<p></p>,null,,,,,,,,,,,
,do_trial,126,655603,0.0-72.0-0.0,687,,,,,,49,1,0,0,0,highway,20,0.677199232520925,0.42805941456649294,0.22081627823306196,1,learn
,html-keyboard-response,127,656733,0.0-72.0-1.0,null,,,<p></p>,null,,,,,,,,,,,
,do_trial,128,660121,0.0-73.0-0.0,483,,,,,,49,0,1,0,0,highway,21,0.5615438289986256,0.31233925095806275,0.27831321313131385,0,learn
,html-keyboard-response,129,661253,0.0-73.0-1.0,null,,,<p></p>,null,,,,,,,,,,,
,do_trial,130,664653,0.0-74.0-0.0,506,,,,,,49,1,0,1,0,highway,22,0.5889059518275717,0.31316252207600753,0.1372350147081598,1,learn
,html-keyboard-response,131,665754,0.0-74.0-1.0,null,,,<p></p>,null,,,,,,,,,,,
,do_trial,132,668977,0.0-75.0-0.0,718,,,,,,49,0,0,0,0,highway,23,0.5809525656557951,0.44596584554522295,0.10300638030135684,0,learn
,html-keyboard-response,133,670109,0.0-75.0-1.0,null,,,<p></p>,null,,,,,,,,,,,
,do_trial,134,676150,0.0-76.0-0.0,3366,,,,,,51,0,1,0,0,highway,24,0.5334865625294817,0.3435258159797496,0.14130337813453717,0,learn
,html-keyboard-response,135,677284,0.0-76.0-1.0,null,,,<p></p>,null,,,,,,,,,,,
,do_trial,136,680466,0.0-77.0-0.0,679,,,,,,51,1,0,0,0,highway,25,0.5216795268033998,0.36717380374016595,0.10616898131514069,0,learn
,html-keyboard-response,137,681604,0.0-77.0-1.0,null,,,<p></p>,null,,,,,,,,,,,
,do_trial,138,684748,0.0-78.0-0.0,511,,,,,,50,0,1,0,0,highway,26,0.43628544290456533,0.44611985595773446,0.10493595153032999,1,learn
,html-keyboard-response,139,685879,0.0-78.0-1.0,null,,,<p></p>,null,,,,,,,,,,,
,do_trial,140,689025,0.0-79.0-0.0,462,,,,,,50,1,1,0,0,highway,27,0.5364529023352744,0.41830952925862946,0.1492904915126001,1,learn
,html-keyboard-response,141,690158,0.0-79.0-1.0,null,,,<p></p>,null,,,,,,,,,,,
,do_trial,142,693324,0.0-80.0-0.0,482,,,,,,50,1,0,1,0,highway,28,0.6571666860259551,0.41628031261878873,0.29020982333756207,0,learn
,html-keyboard-response,143,694458,0.0-80.0-1.0,null,,,<p></p>,null,,,,,,,,,,,
,do_trial,144,697507,0.0-81.0-0.0,374,,,,,,50,0,0,0,0,highway,29,0.7381846685487391,0.2601556952896671,0.14869197420058697,0,learn
,html-keyboard-response,145,698641,0.0-81.0-1.0,null,,,<p></p>,null,,,,,,,,,,,
,do_bye,146,700345,0.0-82.0-0.0,null,,,,,,null,,,,,,,,,
,do_travel,147,709573,0.0-83.0-0.0,null,,,,,,null,,,,,,,,,
,do_welcome,148,714141,0.0-83.0-1.0,null,,,,,,null,,,,,,,,,
,do_trial,149,719810,0.0-84.0-0.0,2960,,,,,,51,1,1,0,1,coast,30,1,0.2315601843065349,0.10376935125900891,0,learn
,html-keyboard-response,150,720949,0.0-84.0-1.0,null,,,<p></p>,null,,,,,,,,,,,
,do_trial,151,724632,0.0-85.0-0.0,1177,,,,,,50,1,1,0,1,coast,31,1,0.29009424967577796,0.15950342045684193,1,learn
,html-keyboard-response,152,725760,0.0-85.0-1.0,null,,,<p></p>,null,,,,,,,,,,,
,do_trial,153,728930,0.0-86.0-0.0,606,,,,,,49,1,1,1,1,coast,32,1,0.25890636699858993,0.07052242763948197,1,learn
,html-keyboard-response,154,730056,0.0-86.0-1.0,null,,,<p></p>,null,,,,,,,,,,,
,do_trial,155,733423,0.0-87.0-0.0,834,,,,,,50,1,0,0,1,coast,33,0.8876177369442307,0.2864057580869936,0.07235649412757834,0,learn
,html-keyboard-response,156,734557,0.0-87.0-1.0,null,,,<p></p>,null,,,,,,,,,,,
,do_trial,157,737652,0.0-88.0-0.0,419,,,,,,49,1,0,0,1,coast,34,0.7899593193903792,0.3884327216218347,0.2118760765759356,1,learn
,html-keyboard-response,158,738786,0.0-88.0-1.0,null,,,<p></p>,null,,,,,,,,,,,
,do_trial,159,741950,0.0-89.0-0.0,477,,,,,,51,1,0,0,1,coast,35,0.8455302215757492,0.3536737724025032,0.06851136810507728,0,learn
,html-keyboard-response,160,743083,0.0-89.0-1.0,null,,,<p></p>,null,,,,,,,,,,,
,do_trial,161,746409,0.0-90.0-0.0,785,,,,,,49,1,0,0,1,coast,36,0.745003606693339,0.32081530335761604,0.07353994203090733,1,learn
,html-keyboard-response,162,747539,0.0-90.0-1.0,null,,,<p></p>,null,,,,,,,,,,,
,do_trial,163,750714,0.0-91.0-0.0,604,,,,,,49,1,0,0,1,coast,37,0.7819620979754558,0.2883632712082744,0.10698642771712645,1,learn
,html-keyboard-response,164,751845,0.0-91.0-1.0,null,,,<p></p>,null,,,,,,,,,,,
,do_trial,165,755023,0.0-92.0-0.0,676,,,,,,49,1,0,0,1,coast,38,0.8239081479347334,0.14092329307385426,0.13396500381288223,1,learn
,html-keyboard-response,166,756151,0.0-92.0-1.0,null,,,<p></p>,null,,,,,,,,,,,
,do_trial,167,759706,0.0-93.0-0.0,997,,,,,,49,1,0,0,1,coast,39,0.6519022805104393,0.20992370960280865,0.11264492585266338,1,learn
,html-keyboard-response,168,760838,0.0-93.0-1.0,null,,,<p></p>,null,,,,,,,,,,,
,do_trial,169,764256,0.0-94.0-0.0,855,,,,,,49,1,0,0,1,coast,40,0.5759205355147224,0.17095450440164375,0.10818472680815852,1,learn
,html-keyboard-response,170,765390,0.0-94.0-1.0,null,,,<p></p>,null,,,,,,,,,,,
,do_trial,171,769735,0.0-95.0-0.0,1679,,,,,,51,0,0,0,1,coast,41,0.6235459527183789,0.19706523684895938,0.1819147792782977,0,learn
,html-keyboard-response,172,770867,0.0-95.0-1.0,null,,,<p></p>,null,,,,,,,,,,,
,do_trial,173,774038,0.0-96.0-0.0,664,,,,,,50,1,0,0,1,coast,42,0.6597890834186717,0.12419355531392537,0.3133189801946654,0,learn
,html-keyboard-response,174,775116,0.0-96.0-1.0,null,,,<p></p>,null,,,,,,,,,,,
,do_trial,175,778280,0.0-97.0-0.0,604,,,,,,49,0,0,1,1,coast,43,0.526144626549265,0.22283783624758016,0.45261665752929015,0,learn
,html-keyboard-response,176,779410,0.0-97.0-1.0,null,,,<p></p>,null,,,,,,,,,,,
,do_trial,177,782589,0.0-98.0-0.0,546,,,,,,49,0,0,1,1,coast,44,0.37001059436796785,0.28250830103363195,0.5028540434221486,0,learn
,html-keyboard-response,178,783724,0.0-98.0-1.0,null,,,<p></p>,null,,,,,,,,,,,
,do_trial,179,786897,0.0-99.0-0.0,601,,,,,,49,0,0,1,1,coast,45,0.1258775719636928,0.4161995298241473,0.5606134212012581,0,learn
,html-keyboard-response,180,788029,0.0-99.0-1.0,null,,,<p></p>,null,,,,,,,,,,,
,do_trial,181,791622,0.0-100.0-0.0,396,,,,,,50,1,0,1,1,coast,46,0.3304585454606179,0.38654520831453965,0.6291897731293825,0,learn
,html-keyboard-response,182,792757,0.0-100.0-1.0,null,,,<p></p>,null,,,,,,,,,,,
,do_trial,183,795928,0.0-101.0-0.0,545,,,,,,51,0,1,0,1,coast,47,0.17208740369846687,0.2442723593524844,0.5879888683633102,0,learn
,html-keyboard-response,184,797063,0.0-101.0-1.0,null,,,<p></p>,null,,,,,,,,,,,
,do_trial,185,800239,0.0-102.0-0.0,487,,,,,,51,0,0,0,1,coast,48,0.26039860906118006,0.2629547976379572,0.5831455757085171,0,learn
,html-keyboard-response,186,801371,0.0-102.0-1.0,null,,,<p></p>,null,,,,,,,,,,,
,do_trial,187,804549,0.0-103.0-0.0,549,,,,,,49,0,0,1,1,coast,49,0.3486553608921461,0.09993007513356185,0.5110669433827191,0,learn
,html-keyboard-response,188,805684,0.0-103.0-1.0,null,,,<p></p>,null,,,,,,,,,,,
,do_trial,189,808836,0.0-104.0-0.0,546,,,,,,49,0,0,0,1,coast,50,0.29718736555213765,0.17361492793729918,0.5330279465889326,0,learn
,html-keyboard-response,190,809965,0.0-104.0-1.0,null,,,<p></p>,null,,,,,,,,,,,
,do_trial,191,813185,0.0-105.0-0.0,481,,,,,,49,0,0,0,1,coast,51,0.5111507831752075,0.07100582598727946,0.6249816156021243,0,learn
,html-keyboard-response,192,814318,0.0-105.0-1.0,null,,,<p></p>,null,,,,,,,,,,,
,do_trial,193,817636,0.0-106.0-0.0,792,,,,,,50,0,0,1,1,coast,52,0.3283863824030486,0.10199991519745304,0.5678838668457176,0,learn
,html-keyboard-response,194,818819,0.0-106.0-1.0,null,,,<p></p>,null,,,,,,,,,,,
,do_trial,195,821824,0.0-107.0-0.0,329,,,,,,49,0,1,0,1,coast,53,0.35036168919778504,0.1282529213670005,0.46627841604819686,0,learn
,html-keyboard-response,196,822956,0.0-107.0-1.0,null,,,<p></p>,null,,,,,,,,,,,
,do_trial,197,826047,0.0-108.0-0.0,405,,,,,,49,0,0,0,1,coast,54,0.3285688366223977,0.07225118786356338,0.36255486572804074,0,learn
,html-keyboard-response,198,827177,0.0-108.0-1.0,null,,,<p></p>,null,,,,,,,,,,,
,do_trial,199,830342,0.0-109.0-0.0,611,,,,,,51,0,0,1,1,coast,55,0.3559734542096048,0.09974974984966536,0.6075990692408199,1,learn
,html-keyboard-response,200,831475,0.0-109.0-1.0,null,,,<p></p>,null,,,,,,,,,,,
,do_trial,201,834623,0.0-110.0-0.0,459,,,,,,51,1,0,1,1,coast,56,0.16911482091635563,0.07676181945796554,0.6299323268218505,1,learn
,html-keyboard-response,202,835723,0.0-110.0-1.0,null,,,<p></p>,null,,,,,,,,,,,
,do_trial,203,838891,0.0-111.0-0.0,579,,,,,,51,0,0,1,1,coast,57,0.19911146788072948,0.1403290555900862,0.6797144346395259,1,learn
,html-keyboard-response,204,840023,0.0-111.0-1.0,null,,,<p></p>,null,,,,,,,,,,,
,do_trial,205,843203,0.0-112.0-0.0,557,,,,,,51,0,0,1,1,coast,58,0.20855260336917944,0.1475342425639901,0.7324306486040314,1,learn
,html-keyboard-response,206,844337,0.0-112.0-1.0,null,,,<p></p>,null,,,,,,,,,,,
,do_trial,207,847889,0.0-113.0-0.0,996,,,,,,51,1,0,1,1,coast,59,0.2178505546099742,0.2051705511276976,0.8459786040330323,1,learn
,html-keyboard-response,208,849029,0.0-113.0-1.0,null,,,<p></p>,null,,,,,,,,,,,
,do_trial,209,852097,0.0-114.0-0.0,484,,,,,,51,0,1,0,1,coast,60,0.205351605812495,0.07714143031734931,0.7124397437103334,0,learn
,html-keyboard-response,210,853228,0.0-114.0-1.0,null,,,<p></p>,null,,,,,,,,,,,
,do_trial,211,857462,0.0-115.0-0.0,1573,,,,,,49,0,1,1,1,coast,61,0.2993404370754208,0.20768999279383438,0.66486438112106,0,learn
,html-keyboard-response,212,858593,0.0-115.0-1.0,null,,,<p></p>,null,,,,,,,,,,,
,do_trial,213,862375,0.0-116.0-0.0,1201,,,,,,51,0,0,1,1,coast,62,0.3367295869039924,0.2432661366222928,0.7897474568111271,1,learn
,html-keyboard-response,214,863510,0.0-116.0-1.0,null,,,<p></p>,null,,,,,,,,,,,
,do_trial,215,866716,0.0-117.0-0.0,701,,,,,,51,0,0,1,1,coast,63,0.40220094950757135,0.17685809140131384,0.6965060621322587,1,learn
,html-keyboard-response,216,867842,0.0-117.0-1.0,null,,,<p></p>,null,,,,,,,,,,,
,do_trial,217,871351,0.0-118.0-0.0,958,,,,,,51,0,0,0,1,coast,64,0.4579798840031249,0.10725206834492475,0.6792836859119243,0,learn
,html-keyboard-response,218,872484,0.0-118.0-1.0,null,,,<p></p>,null,,,,,,,,,,,
,do_trial,219,875632,0.0-119.0-0.0,638,,,,,,51,0,0,1,1,coast,65,0.2860927460392078,0.16884731216488683,0.5967214014152517,1,learn
,html-keyboard-response,220,876766,0.0-119.0-1.0,null,,,<p></p>,null,,,,,,,,,,,
,do_trial,221,880263,0.0-120.0-0.0,957,,,,,,51,0,0,0,1,coast,66,0.28934708218868915,0.12004833150702746,0.6003120918771542,0,learn
,html-keyboard-response,222,881399,0.0-120.0-1.0,null,,,<p></p>,null,,,,,,,,,,,
,do_trial,223,884560,0.0-121.0-0.0,643,,,,,,51,0,0,0,1,coast,67,0.24547706293374924,0.15312355870676017,0.46817471074135436,0,learn
,html-keyboard-response,224,885647,0.0-121.0-1.0,null,,,<p></p>,null,,,,,,,,,,,
,do_trial,225,888826,0.0-122.0-0.0,491,,,,,,51,0,0,0,1,coast,68,0.30748805371753485,0.217979211825052,0.5111060554329806,0,learn
,html-keyboard-response,226,889958,0.0-122.0-1.0,null,,,<p></p>,null,,,,,,,,,,,
,do_trial,227,893059,0.0-123.0-0.0,425,,,,,,49,0,0,0,1,coast,69,0.33732370412885604,0.14319648949686942,0.5781730625394643,0,learn
,html-keyboard-response,228,894194,0.0-123.0-1.0,null,,,<p></p>,null,,,,,,,,,,,
,do_bye,229,895899,0.0-124.0-0.0,null,,,,,,null,,,,,,,,,
,do_travel,230,905100,0.0-125.0-0.0,null,,,,,,null,,,,,,,,,
,do_welcome,231,909326,0.0-125.0-1.0,null,,,,,,null,,,,,,,,,
,do_trial,232,916094,0.0-126.0-0.0,null,,,,,,null,1,1,1,2,city,70,0.45746062922769726,0.20484742330467054,1,,learn
,html-keyboard-response,233,917227,0.0-126.0-1.0,null,,,<p></p>,null,,,,,,,,,,,
,do_trial,234,920481,0.0-127.0-0.0,750,,,,,,51,0,0,1,2,city,71,0.510980024428868,0.16403439742214712,1,1,learn
,html-keyboard-response,235,921619,0.0-127.0-1.0,null,,,<p></p>,null,,,,,,,,,,,
,do_trial,236,924853,0.0-128.0-0.0,731,,,,,,51,1,0,1,2,city,72,0.37254130245061995,0.11587222832340632,0.8755412841990396,1,learn
,html-keyboard-response,237,925992,0.0-128.0-1.0,null,,,<p></p>,null,,,,,,,,,,,
,do_trial,238,929152,0.0-129.0-0.0,475,,,,,,51,0,0,0,2,city,73,0.2928651337928471,0.0866841494040772,0.7355740452825811,0,learn
,html-keyboard-response,239,930285,0.0-129.0-1.0,null,,,<p></p>,null,,,,,,,,,,,
,do_trial,240,933459,0.0-130.0-0.0,579,,,,,,51,0,0,0,2,city,74,0.23483073497593357,0.11262600770201435,0.6393981821079587,0,learn
,html-keyboard-response,241,934593,0.0-130.0-1.0,null,,,<p></p>,null,,,,,,,,,,,
,do_trial,242,937765,0.0-131.0-0.0,492,,,,,,50,1,0,1,2,city,75,0.4120620540704393,0.1465013447892709,0.6641636232811498,0,learn
,html-keyboard-response,243,938899,0.0-131.0-1.0,null,,,<p></p>,null,,,,,,,,,,,
,do_trial,244,941996,0.0-132.0-0.0,401,,,,,,49,0,0,1,2,city,76,0.3240301391186862,0.0505665784464225,0.6814471492569838,0,learn
,html-keyboard-response,245,943129,0.0-132.0-1.0,null,,,<p></p>,null,,,,,,,,,,,
,do_trial,246,946289,0.0-133.0-0.0,646,,,,,,49,1,0,0,2,city,77,0.2181953410130292,0.08161711795015897,0.6253054304728646,1,learn
,html-keyboard-response,247,947421,0.0-133.0-1.0,null,,,<p></p>,null,,,,,,,,,,,
,do_trial,248,950537,0.0-134.0-0.0,513,,,,,,49,1,0,1,2,city,78,0.3687361668886014,0.09066818138468893,0.5088639651443092,1,learn
,html-keyboard-response,249,951667,0.0-134.0-1.0,null,,,<p></p>,null,,,,,,,,,,,
,do_trial,250,954833,0.0-135.0-0.0,662,,,,,,49,0,1,0,2,city,79,0.35785819076773245,0.07754882598165824,0.5230021628352648,0,learn
,html-keyboard-response,251,955959,0.0-135.0-1.0,null,,,<p></p>,null,,,,,,,,,,,
,do_trial,252,959035,0.0-136.0-0.0,395,,,,,,50,1,1,0,2,city,80,0.34037119033270785,0.2644781275838002,0.48158920873736594,1,learn
,html-keyboard-response,253,960169,0.0-136.0-1.0,null,,,<p></p>,null,,,,,,,,,,,
,do_trial,254,963343,0.0-137.0-0.0,556,,,,,,51,1,1,1,2,city,81,0.2726921538872158,0.17920051127326328,0.5410217372550503,1,learn
,html-keyboard-response,255,964474,0.0-137.0-1.0,null,,,<p></p>,null,,,,,,,,,,,
,do_trial,256,967652,0.0-138.0-0.0,526,,,,,,49,0,0,1,2,city,82,0.26044229556980997,0.2966798965978908,0.3079614297702252,0,learn
,html-keyboard-response,257,968782,0.0-138.0-1.0,null,,,<p></p>,null,,,,,,,,,,,
,do_trial,258,972376,0.0-139.0-0.0,899,,,,,,50,1,0,0,2,city,83,0.12984569039893018,0.419763314606108,0.1830843872819142,0,learn
,html-keyboard-response,259,973505,0.0-139.0-1.0,null,,,<p></p>,null,,,,,,,,,,,
,do_trial,260,976637,0.0-140.0-0.0,450,,,,,,49,0,1,0,2,city,84,0.09776870279548519,0.5260247123116895,0.15994197401609472,0,learn
,html-keyboard-response,261,978009,0.0-140.0-1.0,null,,,<p></p>,null,,,,,,,,,,,
,do_trial,262,981135,0.0-141.0-0.0,438,,,,,,51,1,0,0,2,city,85,0.2674764433473271,0.6001075838953228,0.1464069636927756,0,learn
,html-keyboard-response,263,982263,0.0-141.0-1.0,null,,,<p></p>,null,,,,,,,,,,,
,do_trial,264,985434,0.0-142.0-0.0,559,,,,,,49,0,1,0,2,city,86,0.37622703986485806,0.6736683582826506,0.05554567034616822,0,learn
,html-keyboard-response,265,986566,0.0-142.0-1.0,null,,,<p></p>,null,,,,,,,,,,,
,do_trial,266,989645,0.0-143.0-0.0,398,,,,,,50,1,1,0,2,city,87,0.3410320204801854,0.5692572441577025,0.2034926341813714,1,learn
,html-keyboard-response,267,990780,0.0-143.0-1.0,null,,,<p></p>,null,,,,,,,,,,,
,do_trial,268,993945,0.0-144.0-0.0,472,,,,,,50,0,0,0,2,city,88,0.3282244170639816,0.6593910400478323,0.18571594532662475,0,learn
,html-keyboard-response,269,995077,0.0-144.0-1.0,null,,,<p></p>,null,,,,,,,,,,,
,do_trial,270,998105,0.0-145.0-0.0,348,,,,,,50,0,0,0,2,city,89,0.3459507513293976,0.5749192395434432,0.05713575277569067,0,learn
,html-keyboard-response,271,999241,0.0-145.0-1.0,null,,,<p></p>,null,,,,,,,,,,,
,do_trial,272,1002417,0.0-146.0-0.0,531,,,,,,50,0,1,0,2,city,90,0.4675065003626473,0.5516323927941941,0.1277071273784352,1,learn
,html-keyboard-response,273,1003547,0.0-146.0-1.0,null,,,<p></p>,null,,,,,,,,,,,
,do_trial,274,1006722,0.0-147.0-0.0,521,,,,,,50,0,0,0,2,city,91,0.5346584104937832,0.5081823231974969,0.0669217658905875,0,learn
,html-keyboard-response,275,1007858,0.0-147.0-1.0,null,,,<p></p>,null,,,,,,,,,,,
,do_trial,276,1010971,0.0-148.0-0.0,435,,,,,,50,0,0,0,2,city,92,0.5716805426793111,0.507955171583616,0.06703776672539634,0,learn
,html-keyboard-response,277,1012105,0.0-148.0-1.0,null,,,<p></p>,null,,,,,,,,,,,
,do_trial,278,1016067,0.0-149.0-0.0,1347,,,,,,50,0,0,0,2,city,93,0.4950137817723052,0.5155452699172081,0.13582342020046131,0,learn
,html-keyboard-response,279,1017194,0.0-149.0-1.0,null,,,<p></p>,null,,,,,,,,,,,
,do_trial,280,1020369,0.0-150.0-0.0,536,,,,,,49,0,0,0,2,city,94,0.5786218446146866,0.49653190295374416,0.10590337886943585,0,learn
,html-keyboard-response,281,1021508,0.0-150.0-1.0,null,,,<p></p>,null,,,,,,,,,,,
,do_trial,282,1024683,0.0-151.0-0.0,514,,,,,,49,0,1,0,2,city,95,0.543331208123446,0.41025874101685594,0.21443452244103156,0,learn
,html-keyboard-response,283,1025812,0.0-151.0-1.0,null,,,<p></p>,null,,,,,,,,,,,
,do_trial,284,1028939,0.0-152.0-0.0,442,,,,,,49,1,0,1,2,city,96,0.5752971823260287,0.48392374801058063,0.44841932616065466,1,learn
,html-keyboard-response,285,1030079,0.0-152.0-1.0,null,,,<p></p>,null,,,,,,,,,,,
,do_trial,286,1033327,0.0-153.0-0.0,742,,,,,,49,1,1,0,2,city,97,0.5508696713565948,0.5144870941849233,0.44077967638799875,1,learn
,html-keyboard-response,287,1034467,0.0-153.0-1.0,null,,,<p></p>,null,,,,,,,,,,,
,do_trial,288,1039743,0.0-154.0-0.0,2023,,,,,,51,0,1,0,2,city,98,0.3792116431616958,0.5365846117344116,0.17851582284590936,0,learn
,html-keyboard-response,289,1040876,0.0-154.0-1.0,null,,,<p></p>,null,,,,,,,,,,,
,do_trial,290,1043894,0.0-155.0-0.0,328,,,,,,49,1,1,0,2,city,99,0.4338380857750616,0.5456595403204062,0.06209126899654015,1,learn
,html-keyboard-response,291,1045378,0.0-155.0-1.0,null,,,<p></p>,null,,,,,,,,,,,
,do_trial,292,1048581,0.0-156.0-0.0,693,,,,,,51,1,1,0,2,city,100,0.4269365467732209,0.5088169307302604,0.05818569126375417,0,learn
,html-keyboard-response,293,1049715,0.0-156.0-1.0,null,,,<p></p>,null,,,,,,,,,,,
,do_trial,294,1052901,0.0-157.0-0.0,498,,,,,,49,0,0,0,2,city,101,0.32661245293093133,0.5813374402974455,0.07494676828795042,0,learn
,html-keyboard-response,295,1054041,0.0-157.0-1.0,null,,,<p></p>,null,,,,,,,,,,,
,do_trial,296,1056770,0.0-158.0-0.0,53,,,,,,49,0,1,0,2,city,102,0.3594218403392193,0.42054028451599196,0.09797534595227161,0,learn
,html-keyboard-response,297,1057874,0.0-158.0-1.0,null,,,<p></p>,null,,,,,,,,,,,
,do_trial,298,1061210,0.0-159.0-0.0,807,,,,,,49,0,1,0,2,city,103,0.23759754428811572,0.5304749279771749,0.22104901324755122,0,learn
,html-keyboard-response,299,1062338,0.0-159.0-1.0,null,,,<p></p>,null,,,,,,,,,,,
,do_trial,300,1065501,0.0-160.0-0.0,477,,,,,,49,0,0,0,2,city,104,0.2869910340553147,0.5348079519383009,0.2327508938002017,0,learn
,html-keyboard-response,301,1066633,0.0-160.0-1.0,null,,,<p></p>,null,,,,,,,,,,,
,do_trial,302,1069367,0.0-161.0-0.0,20,,,,,,49,0,1,0,2,city,105,0.2019404591219588,0.5207577741904624,0.20481789754624874,0,learn
,html-keyboard-response,303,1070450,0.0-161.0-1.0,null,,,<p></p>,null,,,,,,,,,,,
,do_trial,304,1073482,0.0-162.0-0.0,344,,,,,,51,0,0,0,2,city,106,0.2059237738589349,0.5566842691770508,0.34459071807472114,0,learn
,html-keyboard-response,305,1074617,0.0-162.0-1.0,null,,,<p></p>,null,,,,,,,,,,,
,do_trial,306,1077717,0.0-163.0-0.0,438,,,,,,51,0,1,0,2,city,107,0.2582846059561902,0.5128713164991885,0.20131932398182403,0,learn
,html-keyboard-response,307,1078847,0.0-163.0-1.0,null,,,<p></p>,null,,,,,,,,,,,
,do_trial,308,1081880,0.0-164.0-0.0,353,,,,,,49,0,1,1,2,city,108,0.16200246168415117,0.4298416270800791,0.12969374214155577,0,learn
,html-keyboard-response,309,1083356,0.0-164.0-1.0,null,,,<p></p>,null,,,,,,,,,,,
,do_trial,310,1086488,0.0-165.0-0.0,449,,,,,,50,0,0,0,2,city,109,0.46650740816463454,0.5500744467877307,0.14788350718575807,0,learn
,html-keyboard-response,311,1087625,0.0-165.0-1.0,null,,,<p></p>,null,,,,,,,,,,,
,do_bye,312,1089339,0.0-166.0-0.0,null,,,,,,null,,,,,,,,,
,do_travel,313,1098654,0.0-167.0-0.0,null,,,,,,null,,,,,,,,,
,do_welcome,314,1103199,0.0-167.0-1.0,null,,,,,,null,,,,,,,,,
,do_trial,315,1107253,0.0-168.0-0.0,1437,,,,,,49,1,1,0,3,mountain,110,0.5567470500895857,1,0.20101098687997274,1,learn
,html-keyboard-response,316,1108394,0.0-168.0-1.0,null,,,<p></p>,null,,,,,,,,,,,
,do_trial,317,1111580,0.0-169.0-0.0,510,,,,,,51,0,1,0,3,mountain,111,0.3903452902581799,1,0.0977349080127485,0,learn
,html-keyboard-response,318,1112709,0.0-169.0-1.0,null,,,<p></p>,null,,,,,,,,,,,
,do_trial,319,1115828,0.0-170.0-0.0,459,,,,,,50,1,1,0,3,mountain,112,0.26652551319472556,0.822476588306838,0.061214441483128275,1,learn
,html-keyboard-response,320,1116959,0.0-170.0-1.0,null,,,<p></p>,null,,,,,,,,,,,
,do_trial,321,1119993,0.0-171.0-0.0,353,,,,,,50,0,1,0,3,mountain,113,0.3991262093194265,0.6985403291941988,0.09531617575287879,1,learn
,html-keyboard-response,322,1121125,0.0-171.0-1.0,null,,,<p></p>,null,,,,,,,,,,,
,do_trial,323,1124284,0.0-172.0-0.0,484,,,,,,50,0,1,0,3,mountain,114,0.14485506817639535,0.7599742222365636,0.17118734522849122,1,learn
,html-keyboard-response,324,1125413,0.0-172.0-1.0,null,,,<p></p>,null,,,,,,,,,,,
,do_trial,325,1128589,0.0-173.0-0.0,514,,,,,,50,0,1,0,3,mountain,115,0.3077564953542982,0.7406001036606723,0.2979256932398737,1,learn
,html-keyboard-response,326,1129722,0.0-173.0-1.0,null,,,<p></p>,null,,,,,,,,,,,
,do_trial,327,1132900,0.0-174.0-0.0,526,,,,,,50,0,1,1,3,mountain,116,0.36340020975703985,0.7288100046055245,0.2311026970720662,1,learn
,html-keyboard-response,328,1134032,0.0-174.0-1.0,null,,,<p></p>,null,,,,,,,,,,,
,do_trial,329,1137284,0.0-175.0-0.0,749,,,,,,50,0,1,0,3,mountain,117,0.34191210019412616,0.7725587675650196,0.1779541391573519,1,learn
,html-keyboard-response,330,1138420,0.0-175.0-1.0,null,,,<p></p>,null,,,,,,,,,,,
,do_trial,331,1142550,0.0-176.0-0.0,1499,,,,,,50,0,1,0,3,mountain,118,0.25127213387402836,0.6869429644551511,0.07264886916061594,1,learn
,html-keyboard-response,332,1143654,0.0-176.0-1.0,null,,,<p></p>,null,,,,,,,,,,,
,do_trial,333,1147005,0.0-177.0-0.0,814,,,,,,50,0,1,0,3,mountain,119,0.09367983558129364,0.6835356611542447,0.14527679055453924,1,learn
,html-keyboard-response,334,1148136,0.0-177.0-1.0,null,,,<p></p>,null,,,,,,,,,,,
,do_trial,335,1152593,0.0-178.0-0.0,1790,,,,,,50,0,1,0,3,mountain,120,0.21069307831015718,0.6115562307220342,0.11182107041865294,1,learn
,html-keyboard-response,336,1153728,0.0-178.0-1.0,null,,,<p></p>,null,,,,,,,,,,,
,do_trial,337,1157145,0.0-179.0-0.0,876,,,,,,50,0,1,0,3,mountain,121,0.19294102548461886,0.6793893888154938,0.1292958036511832,1,learn
,html-keyboard-response,338,1158276,0.0-179.0-1.0,null,,,<p></p>,null,,,,,,,,,,,
,do_trial,339,1162120,0.0-180.0-0.0,1257,,,,,,50,0,1,1,3,mountain,122,0.39068516153345384,0.4595227250389163,0.2571982732413847,1,learn
,html-keyboard-response,340,1163251,0.0-180.0-1.0,null,,,<p></p>,null,,,,,,,,,,,
,do_trial,341,1166413,0.0-181.0-0.0,634,,,,,,50,1,0,0,3,mountain,123,0.30524326243373784,0.2781355859371259,0.41313018522613554,0,learn
,html-keyboard-response,342,1167548,0.0-181.0-1.0,null,,,<p></p>,null,,,,,,,,,,,
,do_trial,343,1171760,0.0-182.0-0.0,1575,,,,,,49,0,0,1,3,mountain,124,0.10418253109852721,0.20834925531582196,0.45903306296145674,0,learn
,html-keyboard-response,344,1172894,0.0-182.0-1.0,null,,,<p></p>,null,,,,,,,,,,,
,do_trial,345,1176078,0.0-183.0-0.0,530,,,,,,50,1,1,1,3,mountain,125,0.19200515008666166,0.2424119378614616,0.6215035977966602,1,learn
,html-keyboard-response,346,1177209,0.0-183.0-1.0,null,,,<p></p>,null,,,,,,,,,,,
,do_trial,347,1180384,0.0-184.0-0.0,495,,,,,,50,0,0,0,3,mountain,126,0.3167631211016989,0.1344092815982097,0.6386399424428768,0,learn
,html-keyboard-response,348,1181520,0.0-184.0-1.0,null,,,<p></p>,null,,,,,,,,,,,
,do_trial,349,1184874,0.0-185.0-0.0,814,,,,,,50,0,1,1,3,mountain,127,0.34323103003993605,0.0812033501443559,0.4980596899493389,1,learn
,html-keyboard-response,350,1186008,0.0-185.0-1.0,null,,,<p></p>,null,,,,,,,,,,,
,do_trial,351,1189136,0.0-186.0-0.0,567,,,,,,51,0,0,0,3,mountain,128,0.28734671434257864,0.0713416324601627,0.5626802368640341,0,learn
,html-keyboard-response,352,1190365,0.0-186.0-1.0,null,,,<p></p>,null,,,,,,,,,,,
,do_trial,353,1194098,0.0-187.0-0.0,1185,,,,,,50,1,0,1,3,mountain,129,0.27846883526776484,0.06154795836304129,0.4509497008283485,0,learn
,html-keyboard-response,354,1195234,0.0-187.0-1.0,null,,,<p></p>,null,,,,,,,,,,,
,do_trial,355,1199368,0.0-188.0-0.0,1087,,,,,,50,0,1,1,3,mountain,130,0.27167899847281485,0.14901667347677447,0.5059336791086544,1,learn
,html-keyboard-response,356,1200506,0.0-188.0-1.0,null,,,<p></p>,null,,,,,,,,,,,
,do_trial,357,1203689,0.0-189.0-0.0,520,,,,,,50,0,0,1,3,mountain,131,0.20289409049683482,0.08939022864819268,0.6067560823337196,0,learn
,html-keyboard-response,358,1204997,0.0-189.0-1.0,null,,,<p></p>,null,,,,,,,,,,,
,do_trial,359,1208206,0.0-190.0-0.0,705,,,,,,50,1,0,0,3,mountain,132,0.3303930454085075,0.06475384112083907,0.7003299151596477,0,learn
,html-keyboard-response,360,1209335,0.0-190.0-1.0,null,,,<p></p>,null,,,,,,,,,,,
,do_trial,361,1212506,0.0-191.0-0.0,490,,,,,,50,0,0,1,3,mountain,133,0.411505481648963,0.09909396553328169,0.7099870972449845,0,learn
,html-keyboard-response,362,1213631,0.0-191.0-1.0,null,,,<p></p>,null,,,,,,,,,,,
,do_trial,363,1216764,0.0-192.0-0.0,453,,,,,,50,0,0,1,3,mountain,134,0.3489839481000256,0.06692359955367902,0.6417581097113874,0,learn
,html-keyboard-response,364,1217895,0.0-192.0-1.0,null,,,<p></p>,null,,,,,,,,,,,
,do_trial,365,1223739,0.0-193.0-0.0,3153,,,,,,49,0,0,0,3,mountain,135,0.40951833805938165,0.16140563028283744,0.6215772909063745,0,learn
,html-keyboard-response,366,1224873,0.0-193.0-1.0,null,,,<p></p>,null,,,,,,,,,,,
,do_trial,367,1228049,0.0-194.0-0.0,505,,,,,,49,0,0,1,3,mountain,136,0.4534156996847642,0.0674507392453396,0.7543175285457462,0,learn
,html-keyboard-response,368,1229179,0.0-194.0-1.0,null,,,<p></p>,null,,,,,,,,,,,
,do_trial,369,1232149,0.0-195.0-0.0,467,,,,,,49,0,0,1,3,mountain,137,0.39263879324458884,0.16858526501242924,0.7585639431266061,0,learn
,html-keyboard-response,370,1233273,0.0-195.0-1.0,null,,,<p></p>,null,,,,,,,,,,,
,do_trial,371,1236461,0.0-196.0-0.0,519,,,,,,50,0,1,0,3,mountain,138,0.0979901815681976,0.22549707079358036,0.5595640652520125,1,learn
,html-keyboard-response,372,1237593,0.0-196.0-1.0,null,,,<p></p>,null,,,,,,,,,,,
,do_trial,373,1240750,0.0-197.0-0.0,473,,,,,,50,0,0,0,3,mountain,139,0.27083847956610163,0.3512561542812551,0.5842773337165279,0,learn
,html-keyboard-response,374,1241882,0.0-197.0-1.0,null,,,<p></p>,null,,,,,,,,,,,
,do_trial,375,1245097,0.0-198.0-0.0,712,,,,,,50,1,0,0,3,mountain,140,0.4234972181699849,0.13348777737418765,0.5297375242655943,0,learn
,html-keyboard-response,376,1246234,0.0-198.0-1.0,null,,,<p></p>,null,,,,,,,,,,,
,do_trial,377,1249395,0.0-199.0-0.0,617,,,,,,50,0,0,0,3,mountain,141,0.3954562653742063,0.12989501942929227,0.5206921124385796,0,learn
,html-keyboard-response,378,1250529,0.0-199.0-1.0,null,,,<p></p>,null,,,,,,,,,,,
,do_trial,379,1253705,0.0-200.0-0.0,670,,,,,,51,0,0,0,3,mountain,142,0.3647225907243787,0.15462393648081751,0.5440882340388083,0,learn
,html-keyboard-response,380,1254846,0.0-200.0-1.0,null,,,<p></p>,null,,,,,,,,,,,
,do_trial,381,1257973,0.0-201.0-0.0,448,,,,,,50,1,1,0,3,mountain,143,0.46851634076515836,0.26033197272502634,0.6119805855286528,1,learn
,html-keyboard-response,382,1259108,0.0-201.0-1.0,null,,,<p></p>,null,,,,,,,,,,,
,do_trial,383,1262185,0.0-202.0-0.0,392,,,,,,50,0,0,1,3,mountain,144,0.34897920175163877,0.08180205214960416,0.5502165417629734,0,learn
,html-keyboard-response,384,1263317,0.0-202.0-1.0,null,,,<p></p>,null,,,,,,,,,,,
,do_trial,385,1266399,0.0-203.0-0.0,392,,,,,,50,0,0,1,3,mountain,145,0.3800015900990724,0.0630439750025331,0.5682656902756612,0,learn
,html-keyboard-response,386,1267538,0.0-203.0-1.0,null,,,<p></p>,null,,,,,,,,,,,
,do_trial,387,1270599,0.0-204.0-0.0,374,,,,,,50,1,0,0,3,mountain,146,0.4873481715384357,0.0631075899710331,0.517202416889916,0,learn
,html-keyboard-response,388,1271731,0.0-204.0-1.0,null,,,<p></p>,null,,,,,,,,,,,
,do_trial,389,1275043,0.0-205.0-0.0,785,,,,,,50,0,0,1,3,mountain,147,0.5153552829675561,0.11880356329788237,0.5570699583798654,0,learn
,html-keyboard-response,390,1276175,0.0-205.0-1.0,null,,,<p></p>,null,,,,,,,,,,,
,do_trial,391,1279701,0.0-206.0-0.0,977,,,,,,49,1,0,0,3,mountain,148,0.39088523147180027,0.0763334881846618,0.3629777388436402,1,learn
,html-keyboard-response,392,1280833,0.0-206.0-1.0,null,,,<p></p>,null,,,,,,,,,,,
,do_trial,393,1283966,0.0-207.0-0.0,455,,,,,,49,0,0,0,3,mountain,149,0.16846339132137575,0.08177934490409357,0.4239720126522402,0,learn
,html-keyboard-response,394,1285098,0.0-207.0-1.0,null,,,<p></p>,null,,,,,,,,,,,
,do_bye,395,1287271,0.0-208.0-0.0,null,,,,,,null,,,,,,,,,
,do_travel,396,1296578,0.0-209.0-0.0,null,,,,,,null,,,,,,,,,
,do_welcome,397,1301178,0.0-209.0-1.0,null,,,,,,null,,,,,,,,,
,do_trial,398,1306172,0.0-210.0-0.0,2296,,,,,,51,0,1,1,4,countryside,150,0.26048383664181424,0.06102355256912887,1,1,learn
,html-keyboard-response,399,1307304,0.0-210.0-1.0,null,,,<p></p>,null,,,,,,,,,,,
,do_trial,400,1310237,0.0-211.0-0.0,405,,,,,,51,0,0,1,4,countryside,151,0.35913207610192005,0.1957736360792108,1,1,learn
,html-keyboard-response,401,1311356,0.0-211.0-1.0,null,,,<p></p>,null,,,,,,,,,,,
,do_trial,402,1314432,0.0-212.0-0.0,400,,,,,,51,0,0,1,4,countryside,152,0.31476721428351173,0.17705907366714185,0.8791203038377026,1,learn
,html-keyboard-response,403,1315572,0.0-212.0-1.0,null,,,<p></p>,null,,,,,,,,,,,
,do_trial,404,1321521,0.0-213.0-0.0,3267,,,,,,51,0,0,1,4,countryside,153,0.2311719118450163,0.20443627610032117,0.8170602077296483,1,learn
,html-keyboard-response,405,1322653,0.0-213.0-1.0,null,,,<p></p>,null,,,,,,,,,,,
,do_trial,406,1325829,0.0-214.0-0.0,558,,,,,,50,1,1,1,4,countryside,154,0.26495353997233495,0.2869844607063142,0.8582017541797149,1,learn
,html-keyboard-response,407,1326961,0.0-214.0-1.0,null,,,<p></p>,null,,,,,,,,,,,
,do_trial,408,1330237,0.0-215.0-0.0,769,,,,,,50,0,0,1,4,countryside,155,0.14042942725908172,0.18374628172821644,0.4318881425851154,0,learn
,html-keyboard-response,409,1331369,0.0-215.0-1.0,null,,,<p></p>,null,,,,,,,,,,,
,do_trial,410,1334483,0.0-216.0-0.0,430,,,,,,51,0,0,1,4,countryside,156,0.3345550174302013,0.0660006164647871,0.4292710379003289,1,learn
,html-keyboard-response,411,1335616,0.0-216.0-1.0,null,,,<p></p>,null,,,,,,,,,,,
,do_trial,412,1338712,0.0-217.0-0.0,415,,,,,,51,0,0,1,4,countryside,157,0.20803116419675335,0.14661658540380373,0.4883239122599681,1,learn
,html-keyboard-response,413,1339845,0.0-217.0-1.0,null,,,<p></p>,null,,,,,,,,,,,
,do_trial,414,1343368,0.0-218.0-0.0,972,,,,,,49,0,0,0,4,countryside,158,0.23455337665033876,0.05807040104163342,0.6321815599706764,0,learn
,html-keyboard-response,415,1344372,0.0-218.0-1.0,null,,,<p></p>,null,,,,,,,,,,,
,do_trial,416,1347548,0.0-219.0-0.0,489,,,,,,50,0,0,1,4,countryside,159,0.33165604373912716,0.1507291592032582,0.686667713800533,0,learn
,html-keyboard-response,417,1348680,0.0-219.0-1.0,null,,,<p></p>,null,,,,,,,,,,,
,do_trial,418,1351378,0.0-220.0-0.0,15,,,,,,51,1,0,0,4,countryside,160,0.21673845441750053,0.14747561753755026,0.6266949036530568,0,learn
,html-keyboard-response,419,1352464,0.0-220.0-1.0,null,,,<p></p>,null,,,,,,,,,,,
,do_trial,420,1355655,0.0-221.0-0.0,519,,,,,,51,0,0,1,4,countryside,161,0.15078749062301153,0.13336219351747025,0.6368781258640955,1,learn
,html-keyboard-response,421,1356789,0.0-221.0-1.0,null,,,<p></p>,null,,,,,,,,,,,
,do_trial,422,1359869,0.0-222.0-0.0,406,,,,,,51,0,1,1,4,countryside,162,0.14589614018871133,0.47715118823409036,0.5342114578626861,1,learn
,html-keyboard-response,423,1361017,0.0-222.0-1.0,null,,,<p></p>,null,,,,,,,,,,,
,do_trial,424,1364194,0.0-223.0-0.0,561,,,,,,51,0,0,1,4,countryside,163,0.057393256351020855,0.5163215031073919,0.3253341693962099,1,learn
,html-keyboard-response,425,1365327,0.0-223.0-1.0,null,,,<p></p>,null,,,,,,,,,,,
,do_trial,426,1369114,0.0-224.0-0.0,1206,,,,,,51,0,0,0,4,countryside,164,0.06801820397305583,0.5959320978738257,0.1721002013422862,0,learn
,html-keyboard-response,427,1370248,0.0-224.0-1.0,null,,,<p></p>,null,,,,,,,,,,,
,do_trial,428,1373967,0.0-225.0-0.0,1138,,,,,,51,1,1,0,4,countryside,165,0.17221637509407522,0.6144139980628102,0.2174353842235288,0,learn
,html-keyboard-response,429,1375102,0.0-225.0-1.0,null,,,<p></p>,null,,,,,,,,,,,
,do_trial,430,1378283,0.0-226.0-0.0,490,,,,,,51,0,0,0,4,countryside,166,0.2499548183905947,0.6043235584021379,0.2353001717359401,0,learn
,html-keyboard-response,431,1379413,0.0-226.0-1.0,null,,,<p></p>,null,,,,,,,,,,,
,do_trial,432,1382594,0.0-227.0-0.0,516,,,,,,50,0,1,1,4,countryside,167,0.09623260741143343,0.5309555154592746,0.3709327086197514,1,learn
,html-keyboard-response,433,1383729,0.0-227.0-1.0,null,,,<p></p>,null,,,,,,,,,,,
,do_trial,434,1386903,0.0-228.0-0.0,485,,,,,,50,0,1,1,4,countryside,168,0.1510150066373271,0.6088169622441632,0.3304941108714662,1,learn
,html-keyboard-response,435,1388043,0.0-228.0-1.0,null,,,<p></p>,null,,,,,,,,,,,
,do_trial,436,1391143,0.0-229.0-0.0,415,,,,,,50,0,1,1,4,countryside,169,0.225427140676411,0.6157379043110259,0.3613350596468211,1,learn
,html-keyboard-response,437,1392275,0.0-229.0-1.0,null,,,<p></p>,null,,,,,,,,,,,
,do_trial,438,1395506,0.0-230.0-0.0,726,,,,,,50,0,0,1,4,countryside,170,0.12949370317645706,0.5736864969615837,0.3512986721505324,0,learn
,html-keyboard-response,439,1396633,0.0-230.0-1.0,null,,,<p></p>,null,,,,,,,,,,,
,do_trial,440,1399809,0.0-231.0-0.0,510,,,,,,50,0,1,1,4,countryside,171,0.1339516421374914,0.5172961655488355,0.29397638803524057,1,learn
,html-keyboard-response,441,1400943,0.0-231.0-1.0,null,,,<p></p>,null,,,,,,,,,,,
,do_trial,442,1404111,0.0-232.0-0.0,624,,,,,,50,0,1,0,4,countryside,172,0.07093640982111589,0.567869487258812,0.3231983935715788,1,learn
,html-keyboard-response,443,1405240,0.0-232.0-1.0,null,,,<p></p>,null,,,,,,,,,,,
,do_trial,444,1408383,0.0-233.0-0.0,494,,,,,,50,1,1,0,4,countryside,173,0.20021838607163056,0.48811038980154453,0.18603465333749697,1,learn
,html-keyboard-response,445,1409513,0.0-233.0-1.0,null,,,<p></p>,null,,,,,,,,,,,
,do_trial,446,1412834,0.0-234.0-0.0,645,,,,,,50,0,0,1,4,countryside,174,0.25125220674606114,0.44893858072067516,0.2940753079355404,0,learn
,html-keyboard-response,447,1413967,0.0-234.0-1.0,null,,,<p></p>,null,,,,,,,,,,,
,do_trial,448,1417143,0.0-235.0-0.0,538,,,,,,50,0,0,0,4,countryside,175,0.31147655211404823,0.421983464317545,0.24518192048333684,0,learn
,html-keyboard-response,449,1418470,0.0-235.0-1.0,null,,,<p></p>,null,,,,,,,,,,,
,do_trial,450,1421599,0.0-236.0-0.0,454,,,,,,50,1,1,0,4,countryside,176,0.36236688038542475,0.5223464401799499,0.32873909546079505,1,learn
,html-keyboard-response,451,1422734,0.0-236.0-1.0,null,,,<p></p>,null,,,,,,,,,,,
,do_trial,452,1425861,0.0-237.0-0.0,452,,,,,,50,0,1,0,4,countryside,177,0.19185198517328125,0.5760038908124024,0.23273164221671777,1,learn
,html-keyboard-response,453,1426996,0.0-237.0-1.0,null,,,<p></p>,null,,,,,,,,,,,
,do_trial,454,1430175,0.0-238.0-0.0,522,,,,,,50,0,0,0,4,countryside,178,0.24881954114543522,0.48308607684332316,0.3418026557131657,0,learn
,html-keyboard-response,455,1431308,0.0-238.0-1.0,null,,,<p></p>,null,,,,,,,,,,,
,do_trial,456,1434469,0.0-239.0-0.0,483,,,,,,50,0,1,0,4,countryside,179,0.23181406491583417,0.5442511674916679,0.4361733782030235,1,learn
,html-keyboard-response,457,1435601,0.0-239.0-1.0,null,,,<p></p>,null,,,,,,,,,,,
,do_trial,458,1438763,0.0-240.0-0.0,485,,,,,,50,0,1,0,4,countryside,180,0.16940891666317337,0.5241391991803893,0.3161276483231898,1,learn
,html-keyboard-response,459,1439900,0.0-240.0-1.0,null,,,<p></p>,null,,,,,,,,,,,
,do_trial,460,1443079,0.0-241.0-0.0,511,,,,,,50,0,1,1,4,countryside,181,0.11182223650114052,0.47501524436624837,0.2777364557549424,1,learn
,html-keyboard-response,461,1444214,0.0-241.0-1.0,null,,,<p></p>,null,,,,,,,,,,,
,do_trial,462,1447280,0.0-242.0-0.0,390,,,,,,50,0,0,0,4,countryside,182,0.07806729044401667,0.5510373416470239,0.2703325505010246,0,learn
,html-keyboard-response,463,1448410,0.0-242.0-1.0,null,,,<p></p>,null,,,,,,,,,,,
,do_trial,464,1451587,0.0-243.0-0.0,579,,,,,,50,0,0,1,4,countryside,183,0.06775739650744522,0.49183171132544473,0.3536532447359541,0,learn
,html-keyboard-response,465,1452719,0.0-243.0-1.0,null,,,<p></p>,null,,,,,,,,,,,
,do_trial,466,1455862,0.0-244.0-0.0,469,,,,,,50,0,0,0,4,countryside,184,0.05593655838218545,0.5156510987062931,0.40586328174774494,0,learn
,html-keyboard-response,467,1456994,0.0-244.0-1.0,null,,,<p></p>,null,,,,,,,,,,,
,do_trial,468,1460139,0.0-245.0-0.0,455,,,,,,51,0,0,1,4,countryside,185,0.07629319906393463,0.4471676615242404,0.3545177114733389,1,learn
,html-keyboard-response,469,1461272,0.0-245.0-1.0,null,,,<p></p>,null,,,,,,,,,,,
,do_trial,470,1465045,0.0-246.0-0.0,1185,,,,,,51,0,1,0,4,countryside,186,0.17026836743675872,0.5712218146863576,0.32778465646459537,0,learn
,html-keyboard-response,471,1466179,0.0-246.0-1.0,null,,,<p></p>,null,,,,,,,,,,,
,do_trial,472,1469358,0.0-247.0-0.0,512,,,,,,51,0,0,1,4,countryside,187,0.07859379865454992,0.4228374568605605,0.3228139398420993,1,learn
,html-keyboard-response,473,1470491,0.0-247.0-1.0,null,,,<p></p>,null,,,,,,,,,,,
,do_trial,474,1473659,0.0-248.0-0.0,593,,,,,,50,0,1,1,4,countryside,188,0.12267381539534901,0.5259276758862353,0.29892753474368206,1,learn
,html-keyboard-response,475,1474795,0.0-248.0-1.0,null,,,<p></p>,null,,,,,,,,,,,
,do_trial,476,1478387,0.0-249.0-0.0,508,,,,,,51,1,0,0,4,countryside,189,0.2586336518977582,0.6018932137658342,0.18338782090744002,0,learn
,html-keyboard-response,477,1479516,0.0-249.0-1.0,null,,,<p></p>,null,,,,,,,,,,,
,do_bye,478,1481208,0.0-250.0-0.0,null,,,,,,null,,,,,,,,,
,do_travel,479,1490414,0.0-251.0-0.0,null,,,,,,null,,,,,,,,,
