success,trial_type,trial_index,time_elapsed,internal_node_id,rt,responses,subject_id,stimulus,key_press,prompt,response,choice_outcomes,context_n,context_img_id,trial_n,pR_red,pR_white,pR_black,outcome,phase
true,fullscreen,0,3413,0.0-0.0,,,,,,,,,,,,,,,,
,survey-html-form,1,8817,0.0-1.0,5399.200000286102,{worker_id:69838c967c78c6ef18426fba},69838c967c78c6ef18426fba,,,,,,,,,,,,,
,instruc1,2,10823,0.0-2.0,null,,69838c967c78c6ef18426fba,<div class='center'><p>Welcome! This study will last ~30 minutes. After the instructions there will be a practice game and quiz to make sure you understand the task. Today you will be the head captain of a pirate ship traveling around the world to different islands. Here is an overview of what you will be doing:</p><br><p> 1. Try to find the most successful pirate on 6 different islands</p><p> 2. Recall which pirates did the best on each island</p><br><p>,null,<div class='center'><p>Welcome! This study will last ~30 minutes. After the instructions there will be a practice game and quiz to make sure you understand the task. Today you will be the head captain of a pirate ship traveling around the world to different islands. Here is an overview of what you will be doing:</p><br><p> 1. Try to find the most successful pirate on 6 different islands</p><p> 2. Recall which pirates did the best on each island</p><br><p>,,,,,,,,,,
,html-keyboard-response,3,21245,0.0-3.0,10418.799999713898,,,<div class='center'><p>Welcome! This study will last ~30 minutes. After the instructions there will be a practice game and quiz to make sure you understand the task. Today you will be the head captain of a pirate ship traveling around the world to different islands. Here is an overview of what you will be doing:</p><br><p> 1. Try to find the most successful pirate on 6 different islands</p><p> 2. Recall which pirates did the best on each island</p><br><p><p><b>[Press the space bar to continue]</b></p></div>,32,,,,,,,,,,,
,instruc2,4,23248,0.0-4.0,null,,,<div class='center'><p>You are going to visit these 6 islands on your journey. You'll be able to see these islands from your ship.</p><p><img src='../static/images/contexts/all_contexts.png' height='500'></p></div>,null,<div class='center'><p>You are going to visit these 6 islands on your journey. You'll be able to see these islands from your ship.</p><p><img src='../static/images/contexts/all_contexts.png' height='500'></p></div>,,,,,,,,,,
,html-keyboard-response,5,31555,0.0-5.0,8304.60000038147,,,<div class='center'><p>You are going to visit these 6 islands on your journey. You'll be able to see these islands from your ship.</p><p><img src='../static/images/contexts/all_contexts.png' height='500'></p><p><b>[Press the space bar to continue]</b></p></div>,32,,,,,,,,,,,
,instruc4,6,33557,0.0-6.0,null,,,<div class='center'><p>As the head captain, you do not have to rob any ships yourself. Another pirate will be doing the robbing for you. First, you will choose a pirate to rob the next ship.</p><p><img src='../static/images/tutorial/pirates_all_crop.png' height='200'></p><p>Then, you'll see if the pirate successfully robbed the ship of their gold. If they were successful, then you'll get a stack of gold coins like this:</p><p><img src='../static/images/tutorial/reward.png' height='150'></p><p> If they were <b>not</b> successful, then you'll get no gold coins, and you'll see a big red x like this: </p><p><img src='../static/images/tutorial/reward_no.png' height='150'></p><p> How much bonus money you make is based on how many gold coins you collect.</p><div>,null,<div class='center'><p>As the head captain, you do not have to rob any ships yourself. Another pirate will be doing the robbing for you. First, you will choose a pirate to rob the next ship.</p><p><img src='../static/images/tutorial/pirates_all_crop.png' height='200'></p><p>Then, you'll see if the pirate successfully robbed the ship of their gold. If they were successful, then you'll get a stack of gold coins like this:</p><p><img src='../static/images/tutorial/reward.png' height='150'></p><p> If they were <b>not</b> successful, then you'll get no gold coins, and you'll see a big red x like this: </p><p><img src='../static/images/tutorial/reward_no.png' height='150'></p><p> How much bonus money you make is based on how many gold coins you collect.</p><div>,,,,,,,,,,
,html-keyboard-response,7,52029,0.0-7.0,18469.699999809265,,,<div class='center'><p>As the head captain, you do not have to rob any ships yourself. Another pirate will be doing the robbing for you. First, you will choose a pirate to rob the next ship.</p><p><img src='../static/images/tutorial/pirates_all_crop.png' height='200'></p><p>Then, you'll see if the pirate successfully robbed the ship of their gold. If they were successful, then you'll get a stack of gold coins like this:</p><p><img src='../static/images/tutorial/reward.png' height='150'></p><p> If they were <b>not</b> successful, then you'll get no gold coins, and you'll see a big red x like this: </p><p><img src='../static/images/tutorial/reward_no.png' height='150'></p><p> How much bonus money you make is based on how many gold coins you collect.</p><div><p><b>[Press the space bar to continue]</b></p></div>,32,,,,,,,,,,,
,instruc5,8,72984,0.0-8.0,20953,,,<div class='center'><p>Even the most skilled pirate can not rob EVERY ship.</p><p> Some ships will have very strong protections against pirate attacks.</p><p> Blue beard, here, is very, very good at robbing ships, but he won't be successful every time he tries to rob one.</p><p> You can press the <b>'1'</b> key on the keyboard to choose him.</p><p> Try choosing him 10 times to see how often he succeeds at robbing a ship. </p><p><img src='../static/images/tutorial/blue.png' height='500'></p></div>,49,<div class='center'><p>Even the most skilled pirate can not rob EVERY ship.</p><p> Some ships will have very strong protections against pirate attacks.</p><p> Blue beard, here, is very, very good at robbing ships, but he won't be successful every time he tries to rob one.</p><p> You can press the <b>'1'</b> key on the keyboard to choose him.</p><p> Try choosing him 10 times to see how often he succeeds at robbing a ship. </p><p><img src='../static/images/tutorial/blue.png' height='500'></p></div>,,,,,,,,,,
,html-keyboard-response,9,74488,0.0-9.0,null,,,<div class='center'><p><img src='../static/images/tutorial/blue_win.png' height='500'></p></div>,null,,,,,,,,,,,
,html-keyboard-response,10,75401,0.0-10.0,911.5999999046326,,,<div class='center'><img src='../static/images/tutorial/blue.png' height='500'></p></div>,49,,,,,,,,,,,
,html-keyboard-response,11,76904,0.0-11.0,null,,,<div class='center'><p><img src='../static/images/tutorial/blue_win.png' height='500'></p></div>,null,,,,,,,,,,,
,html-keyboard-response,12,77290,0.0-12.0,384.80000019073486,,,<div class='center'><img src='../static/images/tutorial/blue.png' height='500'></p></div>,49,,,,,,,,,,,
,html-keyboard-response,13,78792,0.0-13.0,null,,,<div class='center'><p><img src='../static/images/tutorial/blue_win.png' height='500'></p></div>,null,,,,,,,,,,,
,html-keyboard-response,14,79147,0.0-14.0,353.59999990463257,,,<div class='center'><img src='../static/images/tutorial/blue.png' height='500'></p></div>,49,,,,,,,,,,,
,html-keyboard-response,15,80650,0.0-15.0,null,,,<div class='center'><p><img src='../static/images/tutorial/blue_no_win.png' height='500'></p></div>,null,,,,,,,,,,,
,html-keyboard-response,16,81009,0.0-16.0,357.40000009536743,,,<div class='center'><img src='../static/images/tutorial/blue.png' height='500'></p></div>,49,,,,,,,,,,,
,html-keyboard-response,17,82511,0.0-17.0,null,,,<div class='center'><p><img src='../static/images/tutorial/blue_win.png' height='500'></p></div>,null,,,,,,,,,,,
,html-keyboard-response,18,82881,0.0-18.0,368.5,,,<div class='center'><img src='../static/images/tutorial/blue.png' height='500'></p></div>,49,,,,,,,,,,,
,html-keyboard-response,19,84384,0.0-19.0,null,,,<div class='center'><p><img src='../static/images/tutorial/blue_win.png' height='500'></p></div>,null,,,,,,,,,,,
,html-keyboard-response,20,84748,0.0-20.0,362.5,,,<div class='center'><img src='../static/images/tutorial/blue.png' height='500'></p></div>,49,,,,,,,,,,,
,html-keyboard-response,21,86250,0.0-21.0,null,,,<div class='center'><p><img src='../static/images/tutorial/blue_win.png' height='500'></p></div>,null,,,,,,,,,,,
,html-keyboard-response,22,86628,0.0-22.0,376.30000019073486,,,<div class='center'><img src='../static/images/tutorial/blue.png' height='500'></p></div>,49,,,,,,,,,,,
,html-keyboard-response,23,88130,0.0-23.0,null,,,<div class='center'><p><img src='../static/images/tutorial/blue_no_win.png' height='500'></p></div>,null,,,,,,,,,,,
,html-keyboard-response,24,88423,0.0-24.0,291.40000009536743,,,<div class='center'><img src='../static/images/tutorial/blue.png' height='500'></p></div>,49,,,,,,,,,,,
,html-keyboard-response,25,89925,0.0-25.0,null,,,<div class='center'><p><img src='../static/images/tutorial/blue_win.png' height='500'></p></div>,null,,,,,,,,,,,
,html-keyboard-response,26,90251,0.0-26.0,324.7000002861023,,,<div class='center'><img src='../static/images/tutorial/blue.png' height='500'></p></div>,49,,,,,,,,,,,
,html-keyboard-response,27,91753,0.0-27.0,null,,,<div class='center'><p><img src='../static/images/tutorial/blue_win.png' height='500'></p></div>,null,,,,,,,,,,,
,instruc6,28,93755,0.0-28.0,null,,,<div class='center'><p> See, he succeeded in robbing the ships most of the time but not every time. </p></div>,null,<div class='center'><p> See, he succeeded in robbing the ships most of the time but not every time. </p></div>,,,,,,,,,,
,html-keyboard-response,29,94841,0.0-29.0,1085.1999998092651,,,<div class='center'><p> See, he succeeded in robbing the ships most of the time but not every time. </p><p><b>[Press the space bar to continue]</b></p></div>,32,,,,,,,,,,,
,html-keyboard-response,30,104217,0.0-30.0,9373.800000190735,,,<div class='center'><p>From these three pirates, you will get to choose which one you want to rob the next ship. <p>Press the <b>'1'</b> key on your keyboard to pick the pirate with the red beard.</p><p> Press <b>'2'</b> to pick the pirate with the white beard.</p><p> Press <b>'3'</b> to pick the pirate with the black beard.</p><p>Try picking a pirate now!</p><p><img src='../static/images/tutorial/all_pirates.png' height='500'></p></div>,51,,,,,,,,,,,
,html-keyboard-response,31,106754,0.0-31.0-0.0,2533.5999999046326,,,<div class='center'><p>Yay! This pirate succeeded in robbing the ship!</p><p><img src='../static/images/tutorial/black_win.png' height='500'></p><p><b>[Press the space bar to continue]</b></p></div>,32,,,,,,,,,,,
,html-keyboard-response,32,108797,0.0-31.0-1.0,2041.0999999046326,,,<div class='center'><p>Now try choosing another.</p><p><img src='../static/images/tutorial/all_pirates.png' height='500'></p></div>,50,,,,,,,,,,,
,html-keyboard-response,33,110632,0.0-32.0-0.0,1831.7000002861023,,,<div class='center'><p>Oh no! This pirate did not succeed in robbing the ship.</p><p><img src='../static/images/tutorial/white_no_win.png' height='500'></p><p><b>[Press the space bar to continue]</b></p></div>,32,,,,,,,,,,,
,instruc9,34,112634,0.0-33.0-0.0,null,,,<div class='center'><p>If you don't make your choice fast enough, you'll have to wait a few seconds before you can make another one. </p><p><img src='../static/images/miscellaneous/hurry_up.png' height='500'></p></div>,null,<div class='center'><p>If you don't make your choice fast enough, you'll have to wait a few seconds before you can make another one. </p><p><img src='../static/images/miscellaneous/hurry_up.png' height='500'></p></div>,,,,,,,,,,
,html-keyboard-response,35,114500,0.0-33.0-1.0,1864.3999996185303,,,<div class='center'><p>If you don't make your choice fast enough, you'll have to wait a few seconds before you can make another one. </p><p><img src='../static/images/miscellaneous/hurry_up.png' height='500'></p><p><b>[Press the space bar to continue]</b></p></div>,32,,,,,,,,,,,
,instruc11,36,116502,0.0-33.0-2.0,null,,,<div class='center'><p>How successful a pirate is at robbing ships will depend on the island you're on.</p><p> A pirate may have visited this island many times before and gained a lot of practice robbing ships there.</p><p>So, they're more likely to be successful than a pirate who has never visited the island before.</p></div>,null,<div class='center'><p>How successful a pirate is at robbing ships will depend on the island you're on.</p><p> A pirate may have visited this island many times before and gained a lot of practice robbing ships there.</p><p>So, they're more likely to be successful than a pirate who has never visited the island before.</p></div>,,,,,,,,,,
,html-keyboard-response,37,132046,0.0-33.0-3.0,15543.10000038147,,,<div class='center'><p>How successful a pirate is at robbing ships will depend on the island you're on.</p><p> A pirate may have visited this island many times before and gained a lot of practice robbing ships there.</p><p>So, they're more likely to be successful than a pirate who has never visited the island before.</p><p><b>[Press the space bar to continue]</b></p></div>,32,,,,,,,,,,,
,instruc12,38,134048,0.0-33.0-4.0,null,,,<div class='center'><p>How successful a pirate is at robbing ships can also change over the time spent on the island. </p><p> Ships may hear from islanders about the pirates coming and will improve their protections against the attack. This may make it harder to rob them.</p><p> Ships may also become lazy and weaken the strength of their protections. This may make it easier to rob them.</p><br><p>Things are always changing on the high seas! So, try your best to pay attention!</p><p><img src='../static/images/tutorial/contingency.png' height='500'></p></div>,null,<div class='center'><p>How successful a pirate is at robbing ships can also change over the time spent on the island. </p><p> Ships may hear from islanders about the pirates coming and will improve their protections against the attack. This may make it harder to rob them.</p><p> Ships may also become lazy and weaken the strength of their protections. This may make it easier to rob them.</p><br><p>Things are always changing on the high seas! So, try your best to pay attention!</p><p><img src='../static/images/tutorial/contingency.png' height='500'></p></div>,,,,,,,,,,
,html-keyboard-response,39,152623,0.0-33.0-5.0,18572.699999809265,,,<div class='center'><p>How successful a pirate is at robbing ships can also change over the time spent on the island. </p><p> Ships may hear from islanders about the pirates coming and will improve their protections against the attack. This may make it harder to rob them.</p><p> Ships may also become lazy and weaken the strength of their protections. This may make it easier to rob them.</p><br><p>Things are always changing on the high seas! So, try your best to pay attention!</p><p><img src='../static/images/tutorial/contingency.png' height='500'></p><p><b>[Press the space bar to continue]</b></p></div>,32,,,,,,,,,,,
,instruc13,40,154625,0.0-33.0-6.0,null,,,<div class='center'><p>Let's go over the instructions quickly again. You have one thing to do: </p><p><b>Pick the pirate who is the best at robbing ships on the current island.</b></p><p>The amount of bonus money you win depends on it.</p><br><p>Let's try a practice game. The game will start by showing you an island. Pick a pirate using the <b>1, 2, 3</b> keys on your keyboard to get it to try and rob one of the ships leaving the island.</p><p>This is just a practice game, so you're not playing for money.</p><p>Good luck! This game will be very difficult but try your best!</p></div>,null,<div class='center'><p>Let's go over the instructions quickly again. You have one thing to do: </p><p><b>Pick the pirate who is the best at robbing ships on the current island.</b></p><p>The amount of bonus money you win depends on it.</p><br><p>Let's try a practice game. The game will start by showing you an island. Pick a pirate using the <b>1, 2, 3</b> keys on your keyboard to get it to try and rob one of the ships leaving the island.</p><p>This is just a practice game, so you're not playing for money.</p><p>Good luck! This game will be very difficult but try your best!</p></div>,,,,,,,,,,
,html-keyboard-response,41,165574,0.0-33.0-7.0,10947.099999904633,,,<div class='center'><p>Let's go over the instructions quickly again. You have one thing to do: </p><p><b>Pick the pirate who is the best at robbing ships on the current island.</b></p><p>The amount of bonus money you win depends on it.</p><br><p>Let's try a practice game. The game will start by showing you an island. Pick a pirate using the <b>1, 2, 3</b> keys on your keyboard to get it to try and rob one of the ships leaving the island.</p><p>This is just a practice game, so you're not playing for money.</p><p>Good luck! This game will be very difficult but try your best!</p><p><b>[Press the space bar to continue]</b></p></div>,32,,,,,,,,,,,
,do_welcome,42,169584,0.0-33.0-8.0,null,,,,,,null,,,,,,,,,
,do_trial,43,175594,0.0-33.0-9.0,null,,,,,,null,1,0,0,,,,,,,,
,html-keyboard-response,44,176596,0.0-34.0-0.0,null,,,<p></p>,null,,,,,,,,,,,
,do_trial,45,179639,0.0-34.0-1.0,535.9000000953674,,,,,,49,1,0,0,,,,,,,,
,html-keyboard-response,46,180642,0.0-35.0-0.0,null,,,<p></p>,null,,,,,,,,,,,
,do_trial,47,184586,0.0-35.0-1.0,1437.1999998092651,,,,,,49,1,1,0,,,,,,,,
,html-keyboard-response,48,185588,0.0-36.0-0.0,null,,,<p></p>,null,,,,,,,,,,,
,do_trial,49,188847,0.0-36.0-1.0,752.0999999046326,,,,,,50,1,0,1,,,,,,,,
,html-keyboard-response,50,189849,0.0-37.0-0.0,null,,,<p></p>,null,,,,,,,,,,,
,do_trial,51,192625,0.0-37.0-1.0,273.30000019073486,,,,,,51,0,1,0,,,,,,,,
,html-keyboard-response,52,193627,0.0-38.0-0.0,null,,,<p></p>,null,,,,,,,,,,,
,do_trial,53,196444,0.0-38.0-1.0,311.59999990463257,,,,,,51,1,0,0,,,,,,,,
,do_bye,54,197953,0.0-39.0-0.0,null,,,,,,null,,,,,,,,,
,do_travel,55,206959,0.0-39.0-1.0,null,,,,,,null,,,,,,,,,
,do_welcome,56,210969,0.0-39.0-2.0,null,,,,,,null,,,,,,,,,
,do_trial,57,213988,0.0-39.0-3.0,511.69999980926514,,,,,,51,1,0,0,,,,,,,,
,html-keyboard-response,58,214990,0.0-40.0-0.0,null,,,<p></p>,null,,,,,,,,,,,
,do_trial,59,217725,0.0-40.0-1.0,227.90000009536743,,,,,,49,1,0,1,,,,,,,,
,html-keyboard-response,60,218728,0.0-41.0-0.0,null,,,<p></p>,null,,,,,,,,,,,
,do_trial,61,221634,0.0-41.0-1.0,400.09999990463257,,,,,,49,1,1,0,,,,,,,,
,html-keyboard-response,62,222636,0.0-42.0-0.0,null,,,<p></p>,null,,,,,,,,,,,
,do_trial,63,225465,0.0-42.0-1.0,322.5,,,,,,50,0,0,1,,,,,,,,
,html-keyboard-response,64,226467,0.0-43.0-0.0,null,,,<p></p>,null,,,,,,,,,,,
,do_trial,65,229348,0.0-43.0-1.0,375.80000019073486,,,,,,49,1,0,1,,,,,,,,
,html-keyboard-response,66,231519,0.0-44.0-0.0,2168.199999809265,,,<div class='center'><p><img src='../static/images/tutorial/prac_best_pirate.png' height='500'></p></div>,49,,,,,,,,,,,
,html-keyboard-response,67,232886,0.0-45.0-0.0,1364.5999999046326,,,<div class='center'><p>That's correct! Red beard was the best.</p><p><b>[Press the space bar to continue]</b></p></div>,32,,,,,,,,,,,
,quiz_beginning,68,234887,0.0-45.0-1.0,null,,,<div class='center'><p>Good job on the practice game! Now, you will be asked some true or false questions to make sure you really understand the rules of the game.</p><p> Press <b>'1'</b> on the keyboard for true and press <b>'2'</b> for false.</p></div>,null,<div class='center'><p>Good job on the practice game! Now, you will be asked some true or false questions to make sure you really understand the rules of the game.</p><p> Press <b>'1'</b> on the keyboard for true and press <b>'2'</b> for false.</p></div>,,,,,,,,,,
,html-keyboard-response,69,239631,0.0-45.0-2.0,4742.900000095367,,,<div class='center'><p>You win bonus money by collecting gold coins.</p><p>Press 1 for true and press  2 for false.</p></div>,49,,,,,,,,,,,
,correct,70,241634,0.0-46.0-0.0,null,,,<div class='center'><p>That's correct!</p></div>,null,<div class='center'><p>That's correct!</p></div>,,,,,,,,,,
,html-keyboard-response,71,242631,0.0-46.0-1.0,995.2999997138977,,,<div class='center'><p>That's correct!</p><p><b>[Press the space bar to continue]</b></p></div>,32,,,,,,,,,,,
,html-keyboard-response,72,249172,0.0-46.0-2.0,6540,,,<div class='center'><p>The pirate who is the best at robbing ships when you first arrive on the island will definitely still be the best when you leave the island. </p><p>Press 1 for true and press  2 for false.</p></div>,49,,,,,,,,,,,
,q2_err,73,251176,0.0-47.0-0.0,null,,,<div class='center'><p>That’s incorrect. Which pirate is the best may change during your time on the island.</p></div>,null,<div class='center'><p>That’s incorrect. Which pirate is the best may change during your time on the island.</p></div>,,,,,,,,,,
,html-keyboard-response,74,253219,0.0-47.0-1.0,2040.9000000953674,,,<div class='center'><p>That’s incorrect. Which pirate is the best may change during your time on the island.</p><p><b>[Press the space bar to continue]</b></p></div>,32,,,,,,,,,,,
,html-keyboard-response,75,257417,0.0-47.0-2.0,4197.300000190735,,,<div class='center'><p>The pirate who is the best at robbing ships on the first island will be the best on every other island.</p><p>Press 1 for true and press  2 for false.</p></div>,50,,,,,,,,,,,
,correct,76,259420,0.0-48.0-0.0,null,,,<div class='center'><p>That's correct!</p></div>,null,<div class='center'><p>That's correct!</p></div>,,,,,,,,,,
,html-keyboard-response,77,260027,0.0-48.0-1.0,605.5,,,<div class='center'><p>That's correct!</p><p><b>[Press the space bar to continue]</b></p></div>,32,,,,,,,,,,,
,html-keyboard-response,78,264342,0.0-48.0-2.0,4313.799999713898,,,<div class='center'><p>You should remember the island where a pirate robbed a ship.</p><p>Press 1 for true and press  2 for false.</p></div>,49,,,,,,,,,,,
,correct,79,266344,0.0-49.0-0.0,null,,,<div class='center'><p>That's correct!</p></div>,null,<div class='center'><p>That's correct!</p></div>,,,,,,,,,,
,html-keyboard-response,80,267457,0.0-49.0-1.0,1111.7999997138977,,,<div class='center'><p>That's correct!</p><p><b>[Press the space bar to continue]</b></p></div>,32,,,,,,,,,,,
,q_all_err,81,269459,0.0-50.0-0.0,null,,,<div class='center'><p>Oops, you missed some questions. Now that you’ve heard the correct answers. Try the quiz again! </p></div>,null,<div class='center'><p>Oops, you missed some questions. Now that you’ve heard the correct answers. Try the quiz again! </p></div>,,,,,,,,,,
,html-keyboard-response,82,271459,0.0-50.0-1.0,1998.5999999046326,,,<div class='center'><p>Oops, you missed some questions. Now that you’ve heard the correct answers. Try the quiz again! </p><p><b>[Press the space bar to continue]</b></p></div>,32,,,,,,,,,,,
,html-keyboard-response,83,273345,0.0-50.0-2.0,1885.5,,,<div class='center'><p>You win bonus money by collecting gold coins.</p><p>Press 1 for true and press  2 for false.</p></div>,49,,,,,,,,,,,
,correct,84,275347,0.0-51.0-0.0,null,,,<div class='center'><p>That's correct!</p></div>,null,<div class='center'><p>That's correct!</p></div>,,,,,,,,,,
,html-keyboard-response,85,276288,0.0-51.0-1.0,939.8999996185303,,,<div class='center'><p>That's correct!</p><p><b>[Press the space bar to continue]</b></p></div>,32,,,,,,,,,,,
,html-keyboard-response,86,281896,0.0-51.0-2.0,5607.199999809265,,,<div class='center'><p>The pirate who is the best at robbing ships when you first arrive on the island will definitely still be the best when you leave the island. </p><p>Press 1 for true and press  2 for false.</p></div>,50,,,,,,,,,,,
,correct,87,283898,0.0-52.0-0.0,null,,,<div class='center'><p>That's correct!</p></div>,null,<div class='center'><p>That's correct!</p></div>,,,,,,,,,,
,html-keyboard-response,88,284616,0.0-52.0-1.0,717.3999996185303,,,<div class='center'><p>That's correct!</p><p><b>[Press the space bar to continue]</b></p></div>,32,,,,,,,,,,,
,html-keyboard-response,89,287270,0.0-52.0-2.0,2652.0999999046326,,,<div class='center'><p>The pirate who is the best at robbing ships on the first island will be the best on every other island.</p><p>Press 1 for true and press  2 for false.</p></div>,50,,,,,,,,,,,
,correct,90,289271,0.0-53.0-0.0,null,,,<div class='center'><p>That's correct!</p></div>,null,<div class='center'><p>That's correct!</p></div>,,,,,,,,,,
,html-keyboard-response,91,290078,0.0-53.0-1.0,805.1999998092651,,,<div class='center'><p>That's correct!</p><p><b>[Press the space bar to continue]</b></p></div>,32,,,,,,,,,,,
,html-keyboard-response,92,292260,0.0-53.0-2.0,2181.0999999046326,,,<div class='center'><p>You should remember the island where a pirate robbed a ship.</p><p>Press 1 for true and press  2 for false.</p></div>,49,,,,,,,,,,,
,correct,93,294286,0.0-54.0-0.0,null,,,<div class='center'><p>That's correct!</p></div>,null,<div class='center'><p>That's correct!</p></div>,,,,,,,,,,
,html-keyboard-response,94,295153,0.0-54.0-1.0,864.7999997138977,,,<div class='center'><p>That's correct!</p><p><b>[Press the space bar to continue]</b></p></div>,32,,,,,,,,,,,
,q_all_corr,95,297155,0.0-55.0-0.0,null,,,<div class='center'><p>Good job! You’re now ready to move on to the real game! Remember this game will be difficult but don't get discouraged and try your best!</p></div>,null,<div class='center'><p>Good job! You’re now ready to move on to the real game! Remember this game will be difficult but don't get discouraged and try your best!</p></div>,,,,,,,,,,
,html-keyboard-response,96,301784,0.0-55.0-1.0,4626.900000095367,,,<div class='center'><p>Good job! You’re now ready to move on to the real game! Remember this game will be difficult but don't get discouraged and try your best!</p><p><b>[Press the space bar to continue]</b></p></div>,32,,,,,,,,,,,
,do_welcome,97,305798,0.0-56.0-0.0,null,,,,,,null,,,,,,,,,
,do_trial,98,309993,0.0-57.0-0.0,1687.5999999046326,,,,,,49,1,0,0,0,city,0,0.6,0.3,0.1,1,learn
,html-keyboard-response,99,310997,0.0-57.0-1.0,null,,,<p></p>,null,,,,,,,,,,,
,do_trial,100,313907,0.0-58.0-0.0,402.59999990463257,,,,,,49,1,0,1,0,city,1,0.5738972224395171,0.34488567032818734,0.12527906546378043,1,learn
,html-keyboard-response,101,314909,0.0-58.0-1.0,null,,,<p></p>,null,,,,,,,,,,,
,do_trial,102,318279,0.0-59.0-0.0,863.5,,,,,,49,0,0,0,0,city,2,0.6156506253317668,0.3306523628847116,0.11555761581152812,0,learn
,html-keyboard-response,103,319281,0.0-59.0-1.0,null,,,<p></p>,null,,,,,,,,,,,
,do_trial,104,322258,0.0-60.0-0.0,470.1000003814697,,,,,,49,0,0,0,0,city,3,0.5248290411150276,0.24489207321356943,0.08813844306620042,0,learn
,html-keyboard-response,105,323260,0.0-60.0-1.0,null,,,<p></p>,null,,,,,,,,,,,
,do_trial,106,326201,0.0-61.0-0.0,437.90000009536743,,,,,,49,1,1,0,0,city,4,0.585863088197536,0.36532293673812904,0.14879421071435256,1,learn
,html-keyboard-response,107,327203,0.0-61.0-1.0,null,,,<p></p>,null,,,,,,,,,,,
,do_trial,108,330290,0.0-62.0-0.0,580,,,,,,49,0,0,0,0,city,5,0.6037049454959587,0.3118047988368092,0.16931053337157204,0,learn
,html-keyboard-response,109,331292,0.0-62.0-1.0,null,,,<p></p>,null,,,,,,,,,,,
,do_trial,110,334260,0.0-63.0-0.0,460.2000002861023,,,,,,51,1,0,0,0,city,6,0.5612473604519006,0.3318054792238172,0.11600635972103998,0,learn
,html-keyboard-response,111,335263,0.0-63.0-1.0,null,,,<p></p>,null,,,,,,,,,,,
,do_trial,112,337990,0.0-64.0-0.0,220.40000009536743,,,,,,49,0,0,0,0,city,7,0.5792711896350052,0.3642403694296704,0.22583253400858588,0,learn
,html-keyboard-response,113,338993,0.0-64.0-1.0,null,,,<p></p>,null,,,,,,,,,,,
,do_trial,114,341786,0.0-65.0-0.0,286.30000019073486,,,,,,50,0,0,0,0,city,8,0.4297210614228603,0.39246462180625385,0.23253767517751378,0,learn
,html-keyboard-response,115,342789,0.0-65.0-1.0,null,,,<p></p>,null,,,,,,,,,,,
,do_trial,116,345529,0.0-66.0-0.0,232.80000019073486,,,,,,50,1,1,0,0,city,9,0.4833371321062094,0.3351381892872145,0.20978197115124514,1,learn
,html-keyboard-response,117,346531,0.0-66.0-1.0,null,,,<p></p>,null,,,,,,,,,,,
,do_trial,118,349282,0.0-67.0-0.0,243.2999997138977,,,,,,50,0,0,1,0,city,10,0.4426005010874347,0.1946131101737384,0.32233797622963517,0,learn
,html-keyboard-response,119,350285,0.0-67.0-1.0,null,,,<p></p>,null,,,,,,,,,,,
,do_trial,120,353006,0.0-68.0-0.0,213.69999980926514,,,,,,49,0,1,0,0,city,11,0.3496783547423935,0.40029719825912113,0.2021353190336332,0,learn
,html-keyboard-response,121,354008,0.0-68.0-1.0,null,,,<p></p>,null,,,,,,,,,,,
,do_trial,122,356545,0.0-69.0-0.0,28.699999809265137,,,,,,49,1,0,0,0,city,12,0.34235137333034926,0.4739909134675333,0.16733269835725179,1,learn
,html-keyboard-response,123,357547,0.0-69.0-1.0,null,,,<p></p>,null,,,,,,,,,,,
,do_trial,124,360365,0.0-70.0-0.0,310.30000019073486,,,,,,51,1,1,1,0,city,13,0.44347904020821816,0.49543141147566766,0.1118381018231984,1,learn
,html-keyboard-response,125,361368,0.0-70.0-1.0,null,,,<p></p>,null,,,,,,,,,,,
,do_trial,126,364239,0.0-71.0-0.0,364.59999990463257,,,,,,51,1,1,1,0,city,14,0.5366995992491571,0.49959236383564093,0.2407141024392547,1,learn
,html-keyboard-response,127,365242,0.0-71.0-1.0,null,,,<p></p>,null,,,,,,,,,,,
,do_trial,128,368133,0.0-72.0-0.0,384.2999997138977,,,,,,51,1,0,1,0,city,15,0.541322390014133,0.4372165842725594,0.0945801531412209,1,learn
,html-keyboard-response,129,369136,0.0-72.0-1.0,null,,,<p></p>,null,,,,,,,,,,,
,do_trial,130,371905,0.0-73.0-0.0,261.5,,,,,,51,0,1,0,0,city,16,0.4489533433305228,0.49408800717078766,0.08129686090571973,0,learn
,html-keyboard-response,131,372908,0.0-73.0-1.0,null,,,<p></p>,null,,,,,,,,,,,
,do_trial,132,375919,0.0-74.0-0.0,503.5,,,,,,50,0,1,0,0,city,17,0.6108680820140584,0.38094677764166596,0.06193462225206711,1,learn
,html-keyboard-response,133,376922,0.0-74.0-1.0,null,,,<p></p>,null,,,,,,,,,,,
,do_trial,134,379671,0.0-75.0-0.0,242.5,,,,,,50,0,1,0,0,city,18,0.7235399494768768,0.4067181749620856,0.21474299002087172,1,learn
,html-keyboard-response,135,380673,0.0-75.0-1.0,null,,,<p></p>,null,,,,,,,,,,,
,do_trial,136,383450,0.0-76.0-0.0,268.80000019073486,,,,,,49,1,0,1,0,city,19,0.755810766541855,0.39077754999675607,0.23886099690586346,1,learn
,html-keyboard-response,137,384452,0.0-76.0-1.0,null,,,<p></p>,null,,,,,,,,,,,
,do_trial,138,387210,0.0-77.0-0.0,250.90000009536743,,,,,,51,0,1,0,0,city,20,0.567490051532803,0.2407097041454689,0.16458002918422185,0,learn
,html-keyboard-response,139,388212,0.0-77.0-1.0,null,,,<p></p>,null,,,,,,,,,,,
,do_trial,140,391152,0.0-78.0-0.0,430.5,,,,,,50,1,0,0,0,city,21,0.6492415719462786,0.35606252544358113,0.05328681596748632,0,learn
,html-keyboard-response,141,392154,0.0-78.0-1.0,null,,,<p></p>,null,,,,,,,,,,,
,do_trial,142,394914,0.0-79.0-0.0,252.59999990463257,,,,,,50,0,0,0,0,city,22,0.7073355382371014,0.3429558317674673,0.1806562003659224,0,learn
,html-keyboard-response,143,395916,0.0-79.0-1.0,null,,,<p></p>,null,,,,,,,,,,,
,do_trial,144,398642,0.0-80.0-0.0,219.2999997138977,,,,,,49,1,0,0,0,city,23,0.6366107507957313,0.2969238410078688,0.11245625185382771,1,learn
,html-keyboard-response,145,399645,0.0-80.0-1.0,null,,,<p></p>,null,,,,,,,,,,,
,do_trial,146,402469,0.0-81.0-0.0,316.7999997138977,,,,,,51,0,1,1,0,city,24,0.544449112047922,0.4108081923017904,0.14630805891090048,1,learn
,html-keyboard-response,147,403471,0.0-81.0-1.0,null,,,<p></p>,null,,,,,,,,,,,
,do_trial,148,406221,0.0-82.0-0.0,242.2000002861023,,,,,,50,1,0,0,0,city,25,0.5226900956674306,0.3923058394010467,0.06434223082880232,0,learn
,html-keyboard-response,149,407223,0.0-82.0-1.0,null,,,<p></p>,null,,,,,,,,,,,
,do_trial,150,409956,0.0-83.0-0.0,225.40000009536743,,,,,,50,1,1,0,0,city,26,0.5057973190541537,0.3238454930605084,0.15175195327055885,1,learn
,html-keyboard-response,151,410958,0.0-83.0-1.0,null,,,<p></p>,null,,,,,,,,,,,
,do_trial,152,413864,0.0-84.0-0.0,398.5,,,,,,50,0,0,0,0,city,27,0.5619384889980663,0.21164244934078716,0.298739027709399,0,learn
,html-keyboard-response,153,414867,0.0-84.0-1.0,null,,,<p></p>,null,,,,,,,,,,,
,do_trial,154,417600,0.0-85.0-0.0,225.2000002861023,,,,,,50,0,0,0,0,city,28,0.6415255229135751,0.302490551176176,0.23753844654353973,0,learn
,html-keyboard-response,155,418602,0.0-85.0-1.0,null,,,<p></p>,null,,,,,,,,,,,
,do_trial,156,421118,0.0-86.0-0.0,8.300000190734863,,,,,,50,0,0,0,0,city,29,0.6004179124809486,0.21001201042615578,0.1791640537481664,0,learn
,html-keyboard-response,157,422120,0.0-86.0-1.0,null,,,<p></p>,null,,,,,,,,,,,
,do_bye,158,423629,0.0-87.0-0.0,null,,,,,,null,,,,,,,,,
,do_travel,159,432634,0.0-88.0-0.0,null,,,,,,null,,,,,,,,,
,do_welcome,160,436644,0.0-88.0-1.0,null,,,,,,null,,,,,,,,,
,do_trial,161,439971,0.0-89.0-0.0,819.7000002861023,,,,,,49,1,0,1,1,countryside,30,1,0.21017292190824508,0.19045618553271054,1,learn
,html-keyboard-response,162,440973,0.0-89.0-1.0,null,,,<p></p>,null,,,,,,,,,,,
,do_trial,163,443886,0.0-90.0-0.0,409.59999990463257,,,,,,49,1,0,0,1,countryside,31,1,0.09288393721990845,0.18266437410015748,1,learn
,html-keyboard-response,164,444888,0.0-90.0-1.0,null,,,<p></p>,null,,,,,,,,,,,
,do_trial,165,447704,0.0-91.0-0.0,309.19999980926514,,,,,,49,1,0,0,1,countryside,32,1,0.20928587387559724,0.06725277861760227,1,learn
,html-keyboard-response,166,448706,0.0-91.0-1.0,null,,,<p></p>,null,,,,,,,,,,,
,do_trial,167,451453,0.0-92.0-0.0,240.09999990463257,,,,,,49,1,0,0,1,countryside,33,0.9342449454595447,0.22595127827810385,0.14880761278176854,1,learn
,html-keyboard-response,168,452455,0.0-92.0-1.0,null,,,<p></p>,null,,,,,,,,,,,
,do_trial,169,455341,0.0-93.0-0.0,380.80000019073486,,,,,,49,1,0,0,1,countryside,34,0.7599736160645432,0.15958929883123182,0.24536900989767152,1,learn
,html-keyboard-response,170,456343,0.0-93.0-1.0,null,,,<p></p>,null,,,,,,,,,,,
,do_trial,171,459034,0.0-94.0-0.0,183.59999990463257,,,,,,49,1,0,0,1,countryside,35,0.5626515020470686,0.3033283923827398,0.10934861171659681,1,learn
,html-keyboard-response,172,460036,0.0-94.0-1.0,null,,,<p></p>,null,,,,,,,,,,,
,do_trial,173,464532,0.0-95.0-0.0,1988.8000001907349,,,,,,49,1,0,0,1,countryside,36,0.6700522166846757,0.3593225488146846,0.09652821853148,1,learn
,html-keyboard-response,174,465534,0.0-95.0-1.0,null,,,<p></p>,null,,,,,,,,,,,
,do_trial,175,468576,0.0-96.0-0.0,536.4000000953674,,,,,,49,1,0,0,1,countryside,37,0.7647411126537556,0.25497104591257697,0.06990316421007059,1,learn
,html-keyboard-response,176,469578,0.0-96.0-1.0,null,,,<p></p>,null,,,,,,,,,,,
,do_trial,177,473019,0.0-97.0-0.0,934.5,,,,,,49,1,0,0,1,countryside,38,0.7432866641992553,0.2812487918133893,0.14586701099172134,1,learn
,html-keyboard-response,178,474022,0.0-97.0-1.0,null,,,<p></p>,null,,,,,,,,,,,
,do_trial,179,477025,0.0-98.0-0.0,497.2000002861023,,,,,,49,1,1,0,1,countryside,39,0.5382624722749312,0.3430000723574361,0.1200673824855013,1,learn
,html-keyboard-response,180,478028,0.0-98.0-1.0,null,,,<p></p>,null,,,,,,,,,,,
,do_trial,181,480829,0.0-99.0-0.0,294.80000019073486,,,,,,49,1,0,0,1,countryside,40,0.6161561371182901,0.34439084800007785,0.1822043522679099,1,learn
,html-keyboard-response,182,481832,0.0-99.0-1.0,null,,,<p></p>,null,,,,,,,,,,,
,do_trial,183,484667,0.0-100.0-0.0,328.59999990463257,,,,,,49,0,0,0,1,countryside,41,0.6167839492630537,0.5425350015448969,0.19908767884477438,0,learn
,html-keyboard-response,184,485669,0.0-100.0-1.0,null,,,<p></p>,null,,,,,,,,,,,
,do_trial,185,488536,0.0-101.0-0.0,360.7999997138977,,,,,,49,0,1,0,1,countryside,42,0.40577054881612973,0.486750023889579,0.05101057317918151,0,learn
,html-keyboard-response,186,489539,0.0-101.0-1.0,null,,,<p></p>,null,,,,,,,,,,,
,do_trial,187,492821,0.0-102.0-0.0,775.1999998092651,,,,,,50,1,1,1,1,countryside,43,0.2980963794757335,0.4328274331729637,0.09199935080108272,1,learn
,html-keyboard-response,188,493824,0.0-102.0-1.0,null,,,<p></p>,null,,,,,,,,,,,
,do_trial,189,496814,0.0-103.0-0.0,483.90000009536743,,,,,,50,0,0,0,1,countryside,44,0.23833446565981306,0.4072607745737817,0.05089119017677479,0,learn
,html-keyboard-response,190,497816,0.0-103.0-1.0,null,,,<p></p>,null,,,,,,,,,,,
,do_trial,191,501429,0.0-104.0-0.0,1106.7999997138977,,,,,,49,0,0,0,1,countryside,45,0.37098062702034945,0.6295931892030651,0.14398493210306626,0,learn
,html-keyboard-response,192,502431,0.0-104.0-1.0,null,,,<p></p>,null,,,,,,,,,,,
,do_trial,193,505296,0.0-105.0-0.0,357.30000019073486,,,,,,49,1,1,0,1,countryside,46,0.3899166472868031,0.5549830025430811,0.11832537937997986,1,learn
,html-keyboard-response,194,506298,0.0-105.0-1.0,null,,,<p></p>,null,,,,,,,,,,,
,do_trial,195,509178,0.0-106.0-0.0,374.19999980926514,,,,,,49,0,0,0,1,countryside,47,0.21715180393138758,0.5428082844850585,0.11962954111605574,0,learn
,html-keyboard-response,196,510181,0.0-106.0-1.0,null,,,<p></p>,null,,,,,,,,,,,
,do_trial,197,513766,0.0-107.0-0.0,1078.9000000953674,,,,,,49,0,0,0,1,countryside,48,0.2981200820687522,0.5468708587266525,0.3222393055659456,0,learn
,html-keyboard-response,198,514768,0.0-107.0-1.0,null,,,<p></p>,null,,,,,,,,,,,
,do_trial,199,517778,0.0-108.0-0.0,502.19999980926514,,,,,,51,0,1,1,1,countryside,49,0.44364596304448806,0.5038042403622764,0.1720989803690032,1,learn
,html-keyboard-response,200,518780,0.0-108.0-1.0,null,,,<p></p>,null,,,,,,,,,,,
,do_trial,201,521755,0.0-109.0-0.0,468.30000019073486,,,,,,51,0,1,0,1,countryside,50,0.3950915519937459,0.6098312704897694,0.1323268481379254,0,learn
,html-keyboard-response,202,522757,0.0-109.0-1.0,null,,,<p></p>,null,,,,,,,,,,,
,do_trial,203,525561,0.0-110.0-0.0,297.19999980926514,,,,,,49,0,0,0,1,countryside,51,0.37512536615218317,0.629751778741366,0.10245350476562237,0,learn
,html-keyboard-response,204,526563,0.0-110.0-1.0,null,,,<p></p>,null,,,,,,,,,,,
,do_trial,205,529374,0.0-111.0-0.0,303.19999980926514,,,,,,50,0,1,0,1,countryside,52,0.3998787936555901,0.6484073750433785,0.1149425275213491,1,learn
,html-keyboard-response,206,530376,0.0-111.0-1.0,null,,,<p></p>,null,,,,,,,,,,,
,do_trial,207,533237,0.0-112.0-0.0,354.40000009536743,,,,,,51,1,1,0,1,countryside,53,0.3522646785361507,0.852110280292055,0.0981640561831609,0,learn
,html-keyboard-response,208,534239,0.0-112.0-1.0,null,,,<p></p>,null,,,,,,,,,,,
,do_trial,209,537068,0.0-113.0-0.0,321.59999990463257,,,,,,51,1,0,1,1,countryside,54,0.34991442732086614,0.7214232671464034,0.18755690550749204,1,learn
,html-keyboard-response,210,538070,0.0-113.0-1.0,null,,,<p></p>,null,,,,,,,,,,,
,do_trial,211,540601,0.0-114.0-0.0,24.5,,,,,,50,0,0,0,1,countryside,55,0.29059380942617435,0.6642854419420569,0.07075774902711736,0,learn
,html-keyboard-response,212,541603,0.0-114.0-1.0,null,,,<p></p>,null,,,,,,,,,,,
,do_trial,213,544662,0.0-115.0-0.0,552,,,,,,50,0,1,0,1,countryside,56,0.1388094166926379,0.5262097739749476,0.20799901208217325,1,learn
,html-keyboard-response,214,545665,0.0-115.0-1.0,null,,,<p></p>,null,,,,,,,,,,,
,do_trial,215,548437,0.0-116.0-0.0,263.59999990463257,,,,,,50,0,1,1,1,countryside,57,0.14885993811002074,0.5894266712909826,0.23022184345592556,1,learn
,html-keyboard-response,216,549439,0.0-116.0-1.0,null,,,<p></p>,null,,,,,,,,,,,
,do_trial,217,553438,0.0-117.0-0.0,1490.9000000953674,,,,,,50,1,1,0,1,countryside,58,0.19425075854947968,0.575781238221349,0.3223620178235926,1,learn
,html-keyboard-response,218,554441,0.0-117.0-1.0,null,,,<p></p>,null,,,,,,,,,,,
,do_trial,219,557393,0.0-118.0-0.0,444.5,,,,,,51,1,0,0,1,countryside,59,0.20419584044814282,0.5689351814177114,0.17335920900209753,0,learn
,html-keyboard-response,220,558395,0.0-118.0-1.0,null,,,<p></p>,null,,,,,,,,,,,
,do_trial,221,561247,0.0-119.0-0.0,346.40000009536743,,,,,,51,0,1,1,1,countryside,60,0.18398146918249508,0.6026123409327295,0.15493854075775837,1,learn
,html-keyboard-response,222,562250,0.0-119.0-1.0,null,,,<p></p>,null,,,,,,,,,,,
,do_trial,223,565071,0.0-120.0-0.0,316.2000002861023,,,,,,51,0,1,0,1,countryside,61,0.22081655168556072,0.6191163417496519,0.13568821555814714,0,learn
,html-keyboard-response,224,566073,0.0-120.0-1.0,null,,,<p></p>,null,,,,,,,,,,,
,do_trial,225,569033,0.0-121.0-0.0,451.30000019073486,,,,,,51,0,0,0,1,countryside,62,0.27767761460092855,0.6788929607008031,0.15954020063819613,0,learn
,html-keyboard-response,226,570036,0.0-121.0-1.0,null,,,<p></p>,null,,,,,,,,,,,
,do_trial,227,572882,0.0-122.0-0.0,339.90000009536743,,,,,,51,0,1,0,1,countryside,63,0.2997459135670275,0.4907862028466559,0.1257452524879218,0,learn
,html-keyboard-response,228,573884,0.0-122.0-1.0,null,,,<p></p>,null,,,,,,,,,,,
,do_trial,229,576703,0.0-123.0-0.0,311.19999980926514,,,,,,50,1,0,0,1,countryside,64,0.5471390455771357,0.43962445740252065,0.08519310207185958,0,learn
,html-keyboard-response,230,577707,0.0-123.0-1.0,null,,,<p></p>,null,,,,,,,,,,,
,do_trial,231,580699,0.0-124.0-0.0,486.5,,,,,,51,0,1,0,1,countryside,65,0.4325370052245281,0.6040127648543597,0.10944895577080534,0,learn
,html-keyboard-response,232,581701,0.0-124.0-1.0,null,,,<p></p>,null,,,,,,,,,,,
,do_trial,233,584242,0.0-125.0-0.0,32.59999990463257,,,,,,51,1,1,0,1,countryside,66,0.24281960891722354,0.6137212455180183,0.16441244795686594,0,learn
,html-keyboard-response,234,585244,0.0-125.0-1.0,null,,,<p></p>,null,,,,,,,,,,,
,do_trial,235,588265,0.0-126.0-0.0,513.6999998092651,,,,,,50,0,1,0,1,countryside,67,0.28224296248315744,0.743396466085583,0.12546941536353182,1,learn
,html-keyboard-response,236,589268,0.0-126.0-1.0,null,,,<p></p>,null,,,,,,,,,,,
,do_trial,237,592043,0.0-127.0-0.0,267.40000009536743,,,,,,49,1,1,0,1,countryside,68,0.13524038799044188,0.7475991792318435,0.15557837033645683,1,learn
,html-keyboard-response,238,593045,0.0-127.0-1.0,null,,,<p></p>,null,,,,,,,,,,,
,do_trial,239,595830,0.0-128.0-0.0,277.2999997138977,,,,,,49,0,0,1,1,countryside,69,0.09662942201144185,0.7135520545197405,0.24606250768213106,0,learn
,html-keyboard-response,240,596832,0.0-128.0-1.0,null,,,<p></p>,null,,,,,,,,,,,
,do_bye,241,598341,0.0-129.0-0.0,null,,,,,,null,,,,,,,,,
,do_travel,242,607346,0.0-130.0-0.0,null,,,,,,null,,,,,,,,,
