success,trial_type,trial_index,time_elapsed,internal_node_id,rt,responses,subject_id,stimulus,key_press,prompt,response,choice_outcomes,context_n,context_img_id,trial_n,pR_red,pR_white,pR_black,outcome,phase
true,fullscreen,0,13476,0.0-0.0,,,,,,,,,,,,,,,,
,survey-html-form,1,20141,0.0-1.0,6658.800000071526,{worker_id:69991d70dd2583a349d03468},69991d70dd2583a349d03468,,,,,,,,,,,,,
,instruc1,2,22145,0.0-2.0,null,,69991d70dd2583a349d03468,<div class='center'><p>Welcome! This study will last ~30 minutes. After the instructions there will be a practice game and quiz to make sure you understand the task. Today you will be the head captain of a pirate ship traveling around the world to different islands. Here is an overview of what you will be doing:</p><br><p> 1. Try to find the most successful pirate on 6 different islands</p><p> 2. Recall which pirates did the best on each island</p><br><p>,null,<div class='center'><p>Welcome! This study will last ~30 minutes. After the instructions there will be a practice game and quiz to make sure you understand the task. Today you will be the head captain of a pirate ship traveling around the world to different islands. Here is an overview of what you will be doing:</p><br><p> 1. Try to find the most successful pirate on 6 different islands</p><p> 2. Recall which pirates did the best on each island</p><br><p>,,,,,,,,,,
,html-keyboard-response,3,24783,0.0-3.0,2637.2000000476837,,,<div class='center'><p>Welcome! This study will last ~30 minutes. After the instructions there will be a practice game and quiz to make sure you understand the task. Today you will be the head captain of a pirate ship traveling around the world to different islands. Here is an overview of what you will be doing:</p><br><p> 1. Try to find the most successful pirate on 6 different islands</p><p> 2. Recall which pirates did the best on each island</p><br><p><p><b>[Press the space bar to continue]</b></p></div>,32,,,,,,,,,,,
,instruc2,4,26794,0.0-4.0,null,,,<div class='center'><p>You are going to visit these 6 islands on your journey. You'll be able to see these islands from your ship.</p><p><img src='../static/images/contexts/all_contexts.png' height='500'></p></div>,null,<div class='center'><p>You are going to visit these 6 islands on your journey. You'll be able to see these islands from your ship.</p><p><img src='../static/images/contexts/all_contexts.png' height='500'></p></div>,,,,,,,,,,
,html-keyboard-response,5,27301,0.0-5.0,506.89999997615814,,,<div class='center'><p>You are going to visit these 6 islands on your journey. You'll be able to see these islands from your ship.</p><p><img src='../static/images/contexts/all_contexts.png' height='500'></p><p><b>[Press the space bar to continue]</b></p></div>,32,,,,,,,,,,,
,instruc4,6,29308,0.0-6.0,null,,,<div class='center'><p>As the head captain, you do not have to rob any ships yourself. Another pirate will be doing the robbing for you. First, you will choose a pirate to rob the next ship.</p><p><img src='../static/images/tutorial/pirates_all_crop.png' height='200'></p><p>Then, you'll see if the pirate successfully robbed the ship of their gold. If they were successful, then you'll get a stack of gold coins like this:</p><p><img src='../static/images/tutorial/reward.png' height='150'></p><p> If they were <b>not</b> successful, then you'll get no gold coins, and you'll see a big red x like this: </p><p><img src='../static/images/tutorial/reward_no.png' height='150'></p><p> How much bonus money you make is based on how many gold coins you collect.</p><div>,null,<div class='center'><p>As the head captain, you do not have to rob any ships yourself. Another pirate will be doing the robbing for you. First, you will choose a pirate to rob the next ship.</p><p><img src='../static/images/tutorial/pirates_all_crop.png' height='200'></p><p>Then, you'll see if the pirate successfully robbed the ship of their gold. If they were successful, then you'll get a stack of gold coins like this:</p><p><img src='../static/images/tutorial/reward.png' height='150'></p><p> If they were <b>not</b> successful, then you'll get no gold coins, and you'll see a big red x like this: </p><p><img src='../static/images/tutorial/reward_no.png' height='150'></p><p> How much bonus money you make is based on how many gold coins you collect.</p><div>,,,,,,,,,,
,html-keyboard-response,7,30327,0.0-7.0,1018.2999999523163,,,<div class='center'><p>As the head captain, you do not have to rob any ships yourself. Another pirate will be doing the robbing for you. First, you will choose a pirate to rob the next ship.</p><p><img src='../static/images/tutorial/pirates_all_crop.png' height='200'></p><p>Then, you'll see if the pirate successfully robbed the ship of their gold. If they were successful, then you'll get a stack of gold coins like this:</p><p><img src='../static/images/tutorial/reward.png' height='150'></p><p> If they were <b>not</b> successful, then you'll get no gold coins, and you'll see a big red x like this: </p><p><img src='../static/images/tutorial/reward_no.png' height='150'></p><p> How much bonus money you make is based on how many gold coins you collect.</p><div><p><b>[Press the space bar to continue]</b></p></div>,32,,,,,,,,,,,
,instruc5,8,47558,0.0-8.0,17229.300000071526,,,<div class='center'><p>Even the most skilled pirate can not rob EVERY ship.</p><p> Some ships will have very strong protections against pirate attacks.</p><p> Blue beard, here, is very, very good at robbing ships, but he won't be successful every time he tries to rob one.</p><p> You can press the <b>'1'</b> key on the keyboard to choose him.</p><p> Try choosing him 10 times to see how often he succeeds at robbing a ship. </p><p><img src='../static/images/tutorial/blue.png' height='500'></p></div>,49,<div class='center'><p>Even the most skilled pirate can not rob EVERY ship.</p><p> Some ships will have very strong protections against pirate attacks.</p><p> Blue beard, here, is very, very good at robbing ships, but he won't be successful every time he tries to rob one.</p><p> You can press the <b>'1'</b> key on the keyboard to choose him.</p><p> Try choosing him 10 times to see how often he succeeds at robbing a ship. </p><p><img src='../static/images/tutorial/blue.png' height='500'></p></div>,,,,,,,,,,
,html-keyboard-response,9,49064,0.0-9.0,null,,,<div class='center'><p><img src='../static/images/tutorial/blue_win.png' height='500'></p></div>,null,,,,,,,,,,,
,html-keyboard-response,10,68825,0.0-10.0,19759.700000047684,,,<div class='center'><img src='../static/images/tutorial/blue.png' height='500'></p></div>,49,,,,,,,,,,,
,html-keyboard-response,11,70332,0.0-11.0,null,,,<div class='center'><p><img src='../static/images/tutorial/blue_win.png' height='500'></p></div>,null,,,,,,,,,,,
,html-keyboard-response,12,73457,0.0-12.0,3124,,,<div class='center'><img src='../static/images/tutorial/blue.png' height='500'></p></div>,49,,,,,,,,,,,
,html-keyboard-response,13,74964,0.0-13.0,null,,,<div class='center'><p><img src='../static/images/tutorial/blue_win.png' height='500'></p></div>,null,,,,,,,,,,,
,html-keyboard-response,14,76083,0.0-14.0,1118.5999999046326,,,<div class='center'><img src='../static/images/tutorial/blue.png' height='500'></p></div>,49,,,,,,,,,,,
,html-keyboard-response,15,77588,0.0-15.0,null,,,<div class='center'><p><img src='../static/images/tutorial/blue_no_win.png' height='500'></p></div>,null,,,,,,,,,,,
,html-keyboard-response,16,78334,0.0-16.0,745,,,<div class='center'><img src='../static/images/tutorial/blue.png' height='500'></p></div>,49,,,,,,,,,,,
,html-keyboard-response,17,79839,0.0-17.0,null,,,<div class='center'><p><img src='../static/images/tutorial/blue_win.png' height='500'></p></div>,null,,,,,,,,,,,
,html-keyboard-response,18,81306,0.0-18.0,1466.6999999284744,,,<div class='center'><img src='../static/images/tutorial/blue.png' height='500'></p></div>,49,,,,,,,,,,,
,html-keyboard-response,19,82813,0.0-19.0,null,,,<div class='center'><p><img src='../static/images/tutorial/blue_win.png' height='500'></p></div>,null,,,,,,,,,,,
,html-keyboard-response,20,83223,0.0-20.0,409.6999999284744,,,<div class='center'><img src='../static/images/tutorial/blue.png' height='500'></p></div>,49,,,,,,,,,,,
,html-keyboard-response,21,84729,0.0-21.0,null,,,<div class='center'><p><img src='../static/images/tutorial/blue_win.png' height='500'></p></div>,null,,,,,,,,,,,
,html-keyboard-response,22,85064,0.0-22.0,334.2999999523163,,,<div class='center'><img src='../static/images/tutorial/blue.png' height='500'></p></div>,49,,,,,,,,,,,
,html-keyboard-response,23,86579,0.0-23.0,null,,,<div class='center'><p><img src='../static/images/tutorial/blue_no_win.png' height='500'></p></div>,null,,,,,,,,,,,
,html-keyboard-response,24,86875,0.0-24.0,295.60000002384186,,,<div class='center'><img src='../static/images/tutorial/blue.png' height='500'></p></div>,49,,,,,,,,,,,
,html-keyboard-response,25,88380,0.0-25.0,null,,,<div class='center'><p><img src='../static/images/tutorial/blue_win.png' height='500'></p></div>,null,,,,,,,,,,,
,html-keyboard-response,26,88648,0.0-26.0,266.7999999523163,,,<div class='center'><img src='../static/images/tutorial/blue.png' height='500'></p></div>,49,,,,,,,,,,,
,html-keyboard-response,27,90156,0.0-27.0,null,,,<div class='center'><p><img src='../static/images/tutorial/blue_win.png' height='500'></p></div>,null,,,,,,,,,,,
,instruc6,28,92172,0.0-28.0,null,,,<div class='center'><p> See, he succeeded in robbing the ships most of the time but not every time. </p></div>,null,<div class='center'><p> See, he succeeded in robbing the ships most of the time but not every time. </p></div>,,,,,,,,,,
,html-keyboard-response,29,95432,0.0-29.0,3259.7000000476837,,,<div class='center'><p> See, he succeeded in robbing the ships most of the time but not every time. </p><p><b>[Press the space bar to continue]</b></p></div>,32,,,,,,,,,,,
,html-keyboard-response,30,107174,0.0-30.0,11741.199999928474,,,<div class='center'><p>From these three pirates, you will get to choose which one you want to rob the next ship. <p>Press the <b>'1'</b> key on your keyboard to pick the pirate with the red beard.</p><p> Press <b>'2'</b> to pick the pirate with the white beard.</p><p> Press <b>'3'</b> to pick the pirate with the black beard.</p><p>Try picking a pirate now!</p><p><img src='../static/images/tutorial/all_pirates.png' height='500'></p></div>,51,,,,,,,,,,,
,html-keyboard-response,31,109971,0.0-31.0-0.0,2795.1999999284744,,,<div class='center'><p>Yay! This pirate succeeded in robbing the ship!</p><p><img src='../static/images/tutorial/black_win.png' height='500'></p><p><b>[Press the space bar to continue]</b></p></div>,32,,,,,,,,,,,
,html-keyboard-response,32,111646,0.0-31.0-1.0,1674,,,<div class='center'><p>Now try choosing another.</p><p><img src='../static/images/tutorial/all_pirates.png' height='500'></p></div>,50,,,,,,,,,,,
,html-keyboard-response,33,113314,0.0-32.0-0.0,1667.2999999523163,,,<div class='center'><p>Oh no! This pirate did not succeed in robbing the ship.</p><p><img src='../static/images/tutorial/white_no_win.png' height='500'></p><p><b>[Press the space bar to continue]</b></p></div>,32,,,,,,,,,,,
,instruc9,34,115318,0.0-33.0-0.0,null,,,<div class='center'><p>If you don't make your choice fast enough, you'll have to wait a few seconds before you can make another one. </p><p><img src='../static/images/miscellaneous/hurry_up.png' height='500'></p></div>,null,<div class='center'><p>If you don't make your choice fast enough, you'll have to wait a few seconds before you can make another one. </p><p><img src='../static/images/miscellaneous/hurry_up.png' height='500'></p></div>,,,,,,,,,,
,html-keyboard-response,35,117939,0.0-33.0-1.0,2620.3000000715256,,,<div class='center'><p>If you don't make your choice fast enough, you'll have to wait a few seconds before you can make another one. </p><p><img src='../static/images/miscellaneous/hurry_up.png' height='500'></p><p><b>[Press the space bar to continue]</b></p></div>,32,,,,,,,,,,,
,instruc11,36,119940,0.0-33.0-2.0,null,,,<div class='center'><p>How successful a pirate is at robbing ships will depend on the island you're on.</p><p> A pirate may have visited this island many times before and gained a lot of practice robbing ships there.</p><p>So, they're more likely to be successful than a pirate who has never visited the island before.</p></div>,null,<div class='center'><p>How successful a pirate is at robbing ships will depend on the island you're on.</p><p> A pirate may have visited this island many times before and gained a lot of practice robbing ships there.</p><p>So, they're more likely to be successful than a pirate who has never visited the island before.</p></div>,,,,,,,,,,
,html-keyboard-response,37,127885,0.0-33.0-3.0,7945.200000047684,,,<div class='center'><p>How successful a pirate is at robbing ships will depend on the island you're on.</p><p> A pirate may have visited this island many times before and gained a lot of practice robbing ships there.</p><p>So, they're more likely to be successful than a pirate who has never visited the island before.</p><p><b>[Press the space bar to continue]</b></p></div>,32,,,,,,,,,,,
,instruc12,38,129894,0.0-33.0-4.0,null,,,<div class='center'><p>How successful a pirate is at robbing ships can also change over the time spent on the island. </p><p> Ships may hear from islanders about the pirates coming and will improve their protections against the attack. This may make it harder to rob them.</p><p> Ships may also become lazy and weaken the strength of their protections. This may make it easier to rob them.</p><br><p>Things are always changing on the high seas! So, try your best to pay attention!</p><p><img src='../static/images/tutorial/contingency.png' height='500'></p></div>,null,<div class='center'><p>How successful a pirate is at robbing ships can also change over the time spent on the island. </p><p> Ships may hear from islanders about the pirates coming and will improve their protections against the attack. This may make it harder to rob them.</p><p> Ships may also become lazy and weaken the strength of their protections. This may make it easier to rob them.</p><br><p>Things are always changing on the high seas! So, try your best to pay attention!</p><p><img src='../static/images/tutorial/contingency.png' height='500'></p></div>,,,,,,,,,,
,html-keyboard-response,39,145290,0.0-33.0-5.0,15395,,,<div class='center'><p>How successful a pirate is at robbing ships can also change over the time spent on the island. </p><p> Ships may hear from islanders about the pirates coming and will improve their protections against the attack. This may make it harder to rob them.</p><p> Ships may also become lazy and weaken the strength of their protections. This may make it easier to rob them.</p><br><p>Things are always changing on the high seas! So, try your best to pay attention!</p><p><img src='../static/images/tutorial/contingency.png' height='500'></p><p><b>[Press the space bar to continue]</b></p></div>,32,,,,,,,,,,,
,instruc13,40,147293,0.0-33.0-6.0,null,,,<div class='center'><p>Let's go over the instructions quickly again. You have one thing to do: </p><p><b>Pick the pirate who is the best at robbing ships on the current island.</b></p><p>The amount of bonus money you win depends on it.</p><br><p>Let's try a practice game. The game will start by showing you an island. Pick a pirate using the <b>1, 2, 3</b> keys on your keyboard to get it to try and rob one of the ships leaving the island.</p><p>This is just a practice game, so you're not playing for money.</p><p>Good luck! This game will be very difficult but try your best!</p></div>,null,<div class='center'><p>Let's go over the instructions quickly again. You have one thing to do: </p><p><b>Pick the pirate who is the best at robbing ships on the current island.</b></p><p>The amount of bonus money you win depends on it.</p><br><p>Let's try a practice game. The game will start by showing you an island. Pick a pirate using the <b>1, 2, 3</b> keys on your keyboard to get it to try and rob one of the ships leaving the island.</p><p>This is just a practice game, so you're not playing for money.</p><p>Good luck! This game will be very difficult but try your best!</p></div>,,,,,,,,,,
,html-keyboard-response,41,160067,0.0-33.0-7.0,12772.399999976158,,,<div class='center'><p>Let's go over the instructions quickly again. You have one thing to do: </p><p><b>Pick the pirate who is the best at robbing ships on the current island.</b></p><p>The amount of bonus money you win depends on it.</p><br><p>Let's try a practice game. The game will start by showing you an island. Pick a pirate using the <b>1, 2, 3</b> keys on your keyboard to get it to try and rob one of the ships leaving the island.</p><p>This is just a practice game, so you're not playing for money.</p><p>Good luck! This game will be very difficult but try your best!</p><p><b>[Press the space bar to continue]</b></p></div>,32,,,,,,,,,,,
,do_welcome,42,164211,0.0-33.0-8.0,null,,,,,,null,,,,,,,,,
,do_trial,43,170231,0.0-33.0-9.0,null,,,,,,null,1,0,0,,,,,,,,
,html-keyboard-response,44,171235,0.0-34.0-0.0,null,,,<p></p>,null,,,,,,,,,,,
,do_trial,45,174177,0.0-34.0-1.0,422.40000009536743,,,,,,50,1,0,0,,,,,,,,
,html-keyboard-response,46,175181,0.0-35.0-0.0,null,,,<p></p>,null,,,,,,,,,,,
,do_trial,47,178928,0.0-35.0-1.0,1232.7000000476837,,,,,,49,1,1,0,,,,,,,,
,html-keyboard-response,48,179934,0.0-36.0-0.0,null,,,<p></p>,null,,,,,,,,,,,
,do_trial,49,182742,0.0-36.0-1.0,295.3000000715256,,,,,,49,1,0,1,,,,,,,,
,html-keyboard-response,50,183752,0.0-37.0-0.0,null,,,<p></p>,null,,,,,,,,,,,
,do_trial,51,186858,0.0-37.0-1.0,597.3000000715256,,,,,,49,0,1,0,,,,,,,,
,html-keyboard-response,52,187873,0.0-38.0-0.0,null,,,<p></p>,null,,,,,,,,,,,
,do_trial,53,190640,0.0-38.0-1.0,258.59999990463257,,,,,,51,1,0,0,,,,,,,,
,do_bye,54,192151,0.0-39.0-0.0,null,,,,,,null,,,,,,,,,
,do_travel,55,201158,0.0-39.0-1.0,null,,,,,,null,,,,,,,,,
,do_welcome,56,205164,0.0-39.0-2.0,null,,,,,,null,,,,,,,,,
,do_trial,57,208649,0.0-39.0-3.0,978,,,,,,49,1,0,0,,,,,,,,
,html-keyboard-response,58,209658,0.0-40.0-0.0,null,,,<p></p>,null,,,,,,,,,,,
,do_trial,59,212949,0.0-40.0-1.0,784.6000000238419,,,,,,50,1,0,1,,,,,,,,
,html-keyboard-response,60,213963,0.0-41.0-0.0,null,,,<p></p>,null,,,,,,,,,,,
,do_trial,61,216733,0.0-41.0-1.0,257.6999999284744,,,,,,51,1,1,0,,,,,,,,
,html-keyboard-response,62,217741,0.0-42.0-0.0,null,,,<p></p>,null,,,,,,,,,,,
,do_trial,63,220466,0.0-42.0-1.0,219.89999997615814,,,,,,49,0,0,1,,,,,,,,
,html-keyboard-response,64,221483,0.0-43.0-0.0,null,,,<p></p>,null,,,,,,,,,,,
,do_trial,65,224649,0.0-43.0-1.0,655.7999999523163,,,,,,49,1,0,1,,,,,,,,
,html-keyboard-response,66,226896,0.0-44.0-0.0,2245.399999976158,,,<div class='center'><p><img src='../static/images/tutorial/prac_best_pirate.png' height='500'></p></div>,49,,,,,,,,,,,
,html-keyboard-response,67,228660,0.0-45.0-0.0,1763.7000000476837,,,<div class='center'><p>That's correct! Red beard was the best.</p><p><b>[Press the space bar to continue]</b></p></div>,32,,,,,,,,,,,
,quiz_beginning,68,230673,0.0-45.0-1.0,null,,,<div class='center'><p>Good job on the practice game! Now, you will be asked some true or false questions to make sure you really understand the rules of the game.</p><p> Press <b>'1'</b> on the keyboard for true and press <b>'2'</b> for false.</p></div>,null,<div class='center'><p>Good job on the practice game! Now, you will be asked some true or false questions to make sure you really understand the rules of the game.</p><p> Press <b>'1'</b> on the keyboard for true and press <b>'2'</b> for false.</p></div>,,,,,,,,,,
,html-keyboard-response,69,236058,0.0-45.0-2.0,5384.699999928474,,,<div class='center'><p>You win bonus money by collecting gold coins.</p><p>Press 1 for true and press  2 for false.</p></div>,49,,,,,,,,,,,
,correct,70,238065,0.0-46.0-0.0,null,,,<div class='center'><p>That's correct!</p></div>,null,<div class='center'><p>That's correct!</p></div>,,,,,,,,,,
,html-keyboard-response,71,239369,0.0-46.0-1.0,1303.0999999046326,,,<div class='center'><p>That's correct!</p><p><b>[Press the space bar to continue]</b></p></div>,32,,,,,,,,,,,
,html-keyboard-response,72,249201,0.0-46.0-2.0,9831.400000095367,,,<div class='center'><p>The pirate who is the best at robbing ships when you first arrive on the island will definitely still be the best when you leave the island. </p><p>Press 1 for true and press  2 for false.</p></div>,50,,,,,,,,,,,
,correct,73,251206,0.0-47.0-0.0,null,,,<div class='center'><p>That's correct!</p></div>,null,<div class='center'><p>That's correct!</p></div>,,,,,,,,,,
,html-keyboard-response,74,252526,0.0-47.0-1.0,1319.3000000715256,,,<div class='center'><p>That's correct!</p><p><b>[Press the space bar to continue]</b></p></div>,32,,,,,,,,,,,
,html-keyboard-response,75,256273,0.0-47.0-2.0,3746.3000000715256,,,<div class='center'><p>The pirate who is the best at robbing ships on the first island will be the best on every other island.</p><p>Press 1 for true and press  2 for false.</p></div>,50,,,,,,,,,,,
,correct,76,258278,0.0-48.0-0.0,null,,,<div class='center'><p>That's correct!</p></div>,null,<div class='center'><p>That's correct!</p></div>,,,,,,,,,,
,html-keyboard-response,77,258924,0.0-48.0-1.0,644.8999999761581,,,<div class='center'><p>That's correct!</p><p><b>[Press the space bar to continue]</b></p></div>,32,,,,,,,,,,,
,html-keyboard-response,78,265494,0.0-48.0-2.0,6570.199999928474,,,<div class='center'><p>You should remember the island where a pirate robbed a ship.</p><p>Press 1 for true and press  2 for false.</p></div>,50,,,,,,,,,,,
,q4_err,79,267621,0.0-49.0-0.0,null,,,<div class='center'><p>That’s incorrect. You should remember the island where a pirate robbed a ship. To help you remember, you can make up a story associating the object on the ship with the island.</p></div>,null,<div class='center'><p>That’s incorrect. You should remember the island where a pirate robbed a ship. To help you remember, you can make up a story associating the object on the ship with the island.</p></div>,,,,,,,,,,
,html-keyboard-response,80,272322,0.0-49.0-1.0,4580.899999976158,,,<div class='center'><p>That’s incorrect. You should remember the island where a pirate robbed a ship. To help you remember, you can make up a story associating the object on the ship with the island.</p><p><b>[Press the space bar to continue]</b></p></div>,32,,,,,,,,,,,
,q_all_err,81,274330,0.0-50.0-0.0,null,,,<div class='center'><p>Oops, you missed some questions. Now that you’ve heard the correct answers. Try the quiz again! </p></div>,null,<div class='center'><p>Oops, you missed some questions. Now that you’ve heard the correct answers. Try the quiz again! </p></div>,,,,,,,,,,
,html-keyboard-response,82,275787,0.0-50.0-1.0,1456.1999999284744,,,<div class='center'><p>Oops, you missed some questions. Now that you’ve heard the correct answers. Try the quiz again! </p><p><b>[Press the space bar to continue]</b></p></div>,32,,,,,,,,,,,
,html-keyboard-response,83,277622,0.0-50.0-2.0,1835,,,<div class='center'><p>You win bonus money by collecting gold coins.</p><p>Press 1 for true and press  2 for false.</p></div>,49,,,,,,,,,,,
,correct,84,279630,0.0-51.0-0.0,null,,,<div class='center'><p>That's correct!</p></div>,null,<div class='center'><p>That's correct!</p></div>,,,,,,,,,,
,html-keyboard-response,85,280565,0.0-51.0-1.0,934.8000000715256,,,<div class='center'><p>That's correct!</p><p><b>[Press the space bar to continue]</b></p></div>,32,,,,,,,,,,,
,html-keyboard-response,86,283086,0.0-51.0-2.0,2519.7000000476837,,,<div class='center'><p>The pirate who is the best at robbing ships when you first arrive on the island will definitely still be the best when you leave the island. </p><p>Press 1 for true and press  2 for false.</p></div>,50,,,,,,,,,,,
,correct,87,285088,0.0-52.0-0.0,null,,,<div class='center'><p>That's correct!</p></div>,null,<div class='center'><p>That's correct!</p></div>,,,,,,,,,,
,html-keyboard-response,88,285868,0.0-52.0-1.0,779.8000000715256,,,<div class='center'><p>That's correct!</p><p><b>[Press the space bar to continue]</b></p></div>,32,,,,,,,,,,,
,html-keyboard-response,89,287515,0.0-52.0-2.0,1646.3999999761581,,,<div class='center'><p>The pirate who is the best at robbing ships on the first island will be the best on every other island.</p><p>Press 1 for true and press  2 for false.</p></div>,50,,,,,,,,,,,
,correct,90,289520,0.0-53.0-0.0,null,,,<div class='center'><p>That's correct!</p></div>,null,<div class='center'><p>That's correct!</p></div>,,,,,,,,,,
,html-keyboard-response,91,289961,0.0-53.0-1.0,440.39999997615814,,,<div class='center'><p>That's correct!</p><p><b>[Press the space bar to continue]</b></p></div>,32,,,,,,,,,,,
,html-keyboard-response,92,292364,0.0-53.0-2.0,2401.7000000476837,,,<div class='center'><p>You should remember the island where a pirate robbed a ship.</p><p>Press 1 for true and press  2 for false.</p></div>,49,,,,,,,,,,,
,correct,93,294387,0.0-54.0-0.0,null,,,<div class='center'><p>That's correct!</p></div>,null,<div class='center'><p>That's correct!</p></div>,,,,,,,,,,
,html-keyboard-response,94,294822,0.0-54.0-1.0,433.6999999284744,,,<div class='center'><p>That's correct!</p><p><b>[Press the space bar to continue]</b></p></div>,32,,,,,,,,,,,
,q_all_corr,95,296829,0.0-55.0-0.0,null,,,<div class='center'><p>Good job! You’re now ready to move on to the real game! Remember this game will be difficult but don't get discouraged and try your best!</p></div>,null,<div class='center'><p>Good job! You’re now ready to move on to the real game! Remember this game will be difficult but don't get discouraged and try your best!</p></div>,,,,,,,,,,
,html-keyboard-response,96,297959,0.0-55.0-1.0,1129.2999999523163,,,<div class='center'><p>Good job! You’re now ready to move on to the real game! Remember this game will be difficult but don't get discouraged and try your best!</p><p><b>[Press the space bar to continue]</b></p></div>,32,,,,,,,,,,,
,do_welcome,97,301978,0.0-56.0-0.0,null,,,,,,null,,,,,,,,,
,do_trial,98,306023,0.0-57.0-0.0,1535.5,,,,,,49,1,0,0,0,forest,0,0.6,0.3,0.1,1,learn
,html-keyboard-response,99,307156,0.0-57.0-1.0,null,,,<p></p>,null,,,,,,,,,,,
,do_trial,100,310519,0.0-58.0-0.0,855.8000000715256,,,,,,49,1,1,0,0,forest,1,0.4004790965583379,0.3584284315722182,0.1682344688902159,1,learn
,html-keyboard-response,101,311521,0.0-58.0-1.0,null,,,<p></p>,null,,,,,,,,,,,
,do_trial,102,314343,0.0-59.0-0.0,317.60000002384186,,,,,,49,0,1,0,0,forest,2,0.42490390575412385,0.3670805494946536,0.17012230673778903,0,learn
,html-keyboard-response,103,315354,0.0-59.0-1.0,null,,,<p></p>,null,,,,,,,,,,,
,do_trial,104,318736,0.0-60.0-0.0,878.1999999284744,,,,,,50,0,0,0,0,forest,3,0.4013753805172105,0.40375324085132464,0.09533218773076957,0,learn
,html-keyboard-response,105,319747,0.0-60.0-1.0,null,,,<p></p>,null,,,,,,,,,,,
,do_trial,106,322524,0.0-61.0-0.0,267.09999990463257,,,,,,49,0,0,0,0,forest,4,0.43583008068729356,0.49528803080428274,0.0806387545442994,0,learn
,html-keyboard-response,107,323536,0.0-61.0-1.0,null,,,<p></p>,null,,,,,,,,,,,
,do_trial,108,326286,0.0-62.0-0.0,241.60000002384186,,,,,,49,1,1,0,0,forest,5,0.5056271526807153,0.45654163221522526,0.14965607657252647,1,learn
,html-keyboard-response,109,327289,0.0-62.0-1.0,null,,,<p></p>,null,,,,,,,,,,,
,do_trial,110,330121,0.0-63.0-0.0,327.09999990463257,,,,,,49,1,0,0,0,forest,6,0.531247312697182,0.37489726129399253,0.2480577202101864,1,learn
,html-keyboard-response,111,331123,0.0-63.0-1.0,null,,,<p></p>,null,,,,,,,,,,,
,do_trial,112,333941,0.0-64.0-0.0,309.2999999523163,,,,,,51,1,1,0,0,forest,7,0.6130846635134881,0.26399114768806314,0.06145111535949044,0,learn
,html-keyboard-response,113,334953,0.0-64.0-1.0,null,,,<p></p>,null,,,,,,,,,,,
,do_trial,114,337669,0.0-65.0-0.0,204.90000009536743,,,,,,51,0,0,1,0,forest,8,0.6442067963959349,0.33907234049290397,0.15062641193713708,1,learn
,html-keyboard-response,115,338678,0.0-65.0-1.0,null,,,<p></p>,null,,,,,,,,,,,
,do_trial,116,341785,0.0-66.0-0.0,594.8000000715256,,,,,,50,0,1,0,0,forest,9,0.8132437043449079,0.22008607378933803,0.05367919490371399,1,learn
,html-keyboard-response,117,342792,0.0-66.0-1.0,null,,,<p></p>,null,,,,,,,,,,,
,do_trial,118,345618,0.0-67.0-0.0,321.7999999523163,,,,,,49,0,0,1,0,forest,10,0.7163195821561251,0.1497517052488257,0.11138026632844339,0,learn
,html-keyboard-response,119,346622,0.0-67.0-1.0,null,,,<p></p>,null,,,,,,,,,,,
,do_trial,120,349518,0.0-68.0-0.0,387.60000002384186,,,,,,50,1,0,0,0,forest,11,0.6557197461445088,0.14479721901062012,0.24272180120450643,0,learn
,html-keyboard-response,121,350527,0.0-68.0-1.0,null,,,<p></p>,null,,,,,,,,,,,
,do_trial,122,353232,0.0-69.0-0.0,198.69999992847443,,,,,,49,0,0,0,0,forest,12,0.5378710737608594,0.11305666499235205,0.09787450514478213,0,learn
,html-keyboard-response,123,354233,0.0-69.0-1.0,null,,,<p></p>,null,,,,,,,,,,,
,do_trial,124,356992,0.0-70.0-0.0,244.79999995231628,,,,,,49,0,0,0,0,forest,13,0.6987239216969223,0.2395896089819458,0.06336406282618058,0,learn
,html-keyboard-response,125,358001,0.0-70.0-1.0,null,,,<p></p>,null,,,,,,,,,,,
,do_trial,126,361191,0.0-71.0-0.0,678.5,,,,,,50,1,0,0,0,forest,14,0.7026418858770562,0.2844612089402946,0.17800986527722948,0,learn
,html-keyboard-response,127,362196,0.0-71.0-1.0,null,,,<p></p>,null,,,,,,,,,,,
,do_trial,128,364909,0.0-72.0-0.0,206.5,,,,,,49,1,0,0,0,forest,15,0.7594446396357145,0.40858983852999475,0.12248334874764691,1,learn
,html-keyboard-response,129,365917,0.0-72.0-1.0,null,,,<p></p>,null,,,,,,,,,,,
,do_trial,130,368993,0.0-73.0-0.0,570.3999999761581,,,,,,49,1,0,0,0,forest,16,0.8012215503306228,0.27847685700856195,0.21531784467451823,1,learn
,html-keyboard-response,131,370000,0.0-73.0-1.0,null,,,<p></p>,null,,,,,,,,,,,
,do_trial,132,373783,0.0-74.0-0.0,1271.7999999523163,,,,,,51,1,1,0,0,forest,17,0.74501575219806,0.4868361680524913,0.05948584882061592,0,learn
,html-keyboard-response,133,374793,0.0-74.0-1.0,null,,,<p></p>,null,,,,,,,,,,,
,do_trial,134,377650,0.0-75.0-0.0,348.1999999284744,,,,,,49,1,0,0,0,forest,18,0.6163189898568707,0.5661439988000924,0.10408639552900152,1,learn
,html-keyboard-response,135,378659,0.0-75.0-1.0,null,,,<p></p>,null,,,,,,,,,,,
,do_trial,136,382017,0.0-76.0-0.0,851.5,,,,,,49,0,0,0,0,forest,19,0.6236084097377862,0.46314359885232154,0.12264882743083359,0,learn
,html-keyboard-response,137,383027,0.0-76.0-1.0,null,,,<p></p>,null,,,,,,,,,,,
,do_trial,138,385959,0.0-77.0-0.0,420.7999999523163,,,,,,50,0,1,1,0,forest,20,0.6147938488270769,0.46591671673519697,0.3704884263959714,1,learn
,html-keyboard-response,139,386967,0.0-77.0-1.0,null,,,<p></p>,null,,,,,,,,,,,
,do_trial,140,389700,0.0-78.0-0.0,224.10000002384186,,,,,,49,1,0,0,0,forest,21,0.4963390545248034,0.4012512738101562,0.344957025033726,1,learn
,html-keyboard-response,141,390708,0.0-78.0-1.0,null,,,<p></p>,null,,,,,,,,,,,
,do_trial,142,393632,0.0-79.0-0.0,418.89999997615814,,,,,,51,1,0,1,0,forest,22,0.6037388556481593,0.32599568145369967,0.26889571561751735,1,learn
,html-keyboard-response,143,394643,0.0-79.0-1.0,null,,,<p></p>,null,,,,,,,,,,,
,do_trial,144,397632,0.0-80.0-0.0,479,,,,,,49,0,0,0,0,forest,23,0.5622208259984062,0.30179175306352396,0.23228356610092474,0,learn
,html-keyboard-response,145,398634,0.0-80.0-1.0,null,,,<p></p>,null,,,,,,,,,,,
,do_trial,146,401490,0.0-81.0-0.0,348.7000000476837,,,,,,51,1,0,0,0,forest,24,0.5373169858021841,0.2909931265118417,0.1912867618545047,0,learn
,html-keyboard-response,147,402492,0.0-81.0-1.0,null,,,<p></p>,null,,,,,,,,,,,
,do_trial,148,405231,0.0-82.0-0.0,236.20000004768372,,,,,,50,1,0,0,0,forest,25,0.5594562543107676,0.30389531059705316,0.08371154967357188,0,learn
,html-keyboard-response,149,406241,0.0-82.0-1.0,null,,,<p></p>,null,,,,,,,,,,,
,do_trial,150,408965,0.0-83.0-0.0,215.39999997615814,,,,,,49,0,0,0,0,forest,26,0.39618998061622895,0.37082984997770724,0.06937709095514304,0,learn
,html-keyboard-response,151,409979,0.0-83.0-1.0,null,,,<p></p>,null,,,,,,,,,,,
,do_trial,152,412916,0.0-84.0-0.0,428.7999999523163,,,,,,49,1,0,0,0,forest,27,0.5488437151475599,0.26161052136770174,0.10133324768688479,1,learn
,html-keyboard-response,153,413918,0.0-84.0-1.0,null,,,<p></p>,null,,,,,,,,,,,
,do_trial,154,416755,0.0-85.0-0.0,317.2000000476837,,,,,,49,1,0,0,0,forest,28,0.5196851528395405,0.3513842491107781,0.11109917825533992,1,learn
,html-keyboard-response,155,417765,0.0-85.0-1.0,null,,,<p></p>,null,,,,,,,,,,,
,do_trial,156,421048,0.0-86.0-0.0,766.7999999523163,,,,,,51,0,1,0,0,forest,29,0.510163038331441,0.27475466334622245,0.12302372908190665,0,learn
,html-keyboard-response,157,422057,0.0-86.0-1.0,null,,,<p></p>,null,,,,,,,,,,,
,do_bye,158,423566,0.0-87.0-0.0,null,,,,,,null,,,,,,,,,
,do_travel,159,432580,0.0-88.0-0.0,null,,,,,,null,,,,,,,,,
,do_welcome,160,436610,0.0-88.0-1.0,null,,,,,,null,,,,,,,,,
,do_trial,161,440590,0.0-89.0-0.0,1468.1999999284744,,,,,,50,1,0,0,1,highway,30,1,0.310821810448849,0.1759541907765806,0,learn
,html-keyboard-response,162,441606,0.0-89.0-1.0,null,,,<p></p>,null,,,,,,,,,,,
,do_trial,163,444320,0.0-90.0-0.0,205.89999997615814,,,,,,51,1,0,0,1,highway,31,1,0.3089606343405711,0.1340184690033411,0,learn
,html-keyboard-response,164,445325,0.0-90.0-1.0,null,,,<p></p>,null,,,,,,,,,,,
,do_trial,165,448035,0.0-91.0-0.0,204.5,,,,,,51,1,1,0,1,highway,32,1,0.34062396595279204,0.18041167434312275,0,learn
,html-keyboard-response,166,449039,0.0-91.0-1.0,null,,,<p></p>,null,,,,,,,,,,,
,do_trial,167,451755,0.0-92.0-0.0,209.5,,,,,,51,1,1,0,1,highway,33,0.8735232819661558,0.2803961200905459,0.062179099399456796,0,learn
,html-keyboard-response,168,452772,0.0-92.0-1.0,null,,,<p></p>,null,,,,,,,,,,,
,do_trial,169,456239,0.0-93.0-0.0,955.6000000238419,,,,,,49,0,1,0,1,highway,34,0.7121028204200163,0.2701160380114082,0.1348978561587878,0,learn
,html-keyboard-response,170,457247,0.0-93.0-1.0,null,,,<p></p>,null,,,,,,,,,,,
,do_trial,171,459946,0.0-94.0-0.0,190.79999995231628,,,,,,51,1,1,1,1,highway,35,0.7041904637821688,0.32200438827209643,0.12279161796738,1,learn
,html-keyboard-response,172,460956,0.0-94.0-1.0,null,,,<p></p>,null,,,,,,,,,,,
,do_trial,173,463797,0.0-95.0-0.0,325.2999999523163,,,,,,51,1,1,0,1,highway,36,0.6613801120670607,0.2951289576508455,0.16937837676385706,0,learn
,html-keyboard-response,174,464805,0.0-95.0-1.0,null,,,<p></p>,null,,,,,,,,,,,
,do_trial,175,467469,0.0-96.0-0.0,150.79999995231628,,,,,,50,1,0,0,1,highway,37,0.6835225023113273,0.24351339821342297,0.10643323519368149,0,learn
,html-keyboard-response,176,468475,0.0-96.0-1.0,null,,,<p></p>,null,,,,,,,,,,,
,do_trial,177,471181,0.0-97.0-0.0,197.20000004768372,,,,,,51,1,0,0,1,highway,38,0.7048266822524697,0.2532764988998059,0.21666104082676105,0,learn
,html-keyboard-response,178,472189,0.0-97.0-1.0,null,,,<p></p>,null,,,,,,,,,,,
,do_trial,179,474882,0.0-98.0-0.0,187.60000002384186,,,,,,49,0,1,0,1,highway,39,0.6439814005308189,0.44395573486139556,0.31058824199291174,0,learn
,html-keyboard-response,180,475896,0.0-98.0-1.0,null,,,<p></p>,null,,,,,,,,,,,
,do_trial,181,478480,0.0-99.0-0.0,74.10000002384186,,,,,,51,1,0,0,1,highway,40,0.6244612103120052,0.5183230478743698,0.40714386305228617,0,learn
,html-keyboard-response,182,479489,0.0-99.0-1.0,null,,,<p></p>,null,,,,,,,,,,,
,do_trial,183,482144,0.0-100.0-0.0,148.89999997615814,,,,,,49,1,1,0,1,highway,41,0.8493740829135444,0.5571784551153236,0.4699662384325188,1,learn
,html-keyboard-response,184,483155,0.0-100.0-1.0,null,,,<p></p>,null,,,,,,,,,,,
,do_trial,185,486088,0.0-101.0-0.0,419.2999999523163,,,,,,50,0,1,1,1,highway,42,0.4921702501991689,0.7526795399071149,0.5246445993738823,1,learn
,html-keyboard-response,186,487093,0.0-101.0-1.0,null,,,<p></p>,null,,,,,,,,,,,
,do_trial,187,489954,0.0-102.0-0.0,353.3000000715256,,,,,,51,0,1,1,1,highway,43,0.3854397430261926,0.7626517633533125,0.4932375397505412,1,learn
,html-keyboard-response,188,490962,0.0-102.0-1.0,null,,,<p></p>,null,,,,,,,,,,,
,do_trial,189,493761,0.0-103.0-0.0,292,,,,,,49,0,0,0,1,highway,44,0.12741926877378815,0.5971459639219158,0.29562175107117006,0,learn
,html-keyboard-response,190,494768,0.0-103.0-1.0,null,,,<p></p>,null,,,,,,,,,,,
,do_trial,191,497503,0.0-104.0-0.0,227.30000007152557,,,,,,50,0,1,1,1,highway,45,0.13437462626571978,0.6069852241581647,0.23926837489623126,1,learn
,html-keyboard-response,192,498512,0.0-104.0-1.0,null,,,<p></p>,null,,,,,,,,,,,
,do_trial,193,501370,0.0-105.0-0.0,346.7000000476837,,,,,,49,0,0,0,1,highway,46,0.14903281194643156,0.6156096233109054,0.18325489420603405,0,learn
,html-keyboard-response,194,502378,0.0-105.0-1.0,null,,,<p></p>,null,,,,,,,,,,,
,do_trial,195,505353,0.0-106.0-0.0,464,,,,,,51,0,1,0,1,highway,47,0.05426419690675068,0.6828926302507874,0.21887128467345526,0,learn
,html-keyboard-response,196,506371,0.0-106.0-1.0,null,,,<p></p>,null,,,,,,,,,,,
,do_trial,197,509069,0.0-107.0-0.0,191.19999992847443,,,,,,49,0,0,0,1,highway,48,0.215657344174785,0.5968292739296028,0.3438735230734229,0,learn
,html-keyboard-response,198,510075,0.0-107.0-1.0,null,,,<p></p>,null,,,,,,,,,,,
,do_trial,199,513086,0.0-108.0-0.0,501.5,,,,,,51,1,1,0,1,highway,49,0.07078227933502795,0.5768231458480485,0.3403882663036283,0,learn
,html-keyboard-response,200,514088,0.0-108.0-1.0,null,,,<p></p>,null,,,,,,,,,,,
,do_trial,201,516807,0.0-109.0-0.0,213.5,,,,,,51,0,0,0,1,highway,50,0.06350247260999307,0.5400692588194992,0.36739154826295334,0,learn
,html-keyboard-response,202,517811,0.0-109.0-1.0,null,,,<p></p>,null,,,,,,,,,,,
,do_trial,203,520686,0.0-110.0-0.0,366.2000000476837,,,,,,51,0,1,1,1,highway,51,0.07351280625858023,0.4108365300641221,0.3112045212530227,1,learn
,html-keyboard-response,204,521694,0.0-110.0-1.0,null,,,<p></p>,null,,,,,,,,,,,
,do_trial,205,524523,0.0-111.0-0.0,315.10000002384186,,,,,,50,0,0,0,1,highway,52,0.17272459338166662,0.4750549687940401,0.3877192187698622,0,learn
,html-keyboard-response,206,525527,0.0-111.0-1.0,null,,,<p></p>,null,,,,,,,,,,,
,do_trial,207,528102,0.0-112.0-0.0,63.799999952316284,,,,,,50,0,0,0,1,highway,53,0.11648890620632807,0.3876273075592435,0.43673296111685617,0,learn
,html-keyboard-response,208,529111,0.0-112.0-1.0,null,,,<p></p>,null,,,,,,,,,,,
,do_trial,209,531802,0.0-113.0-0.0,176.09999990463257,,,,,,49,1,1,1,1,highway,54,0.26882079132734765,0.6053741972476883,0.30045353059692076,1,learn
,html-keyboard-response,210,532807,0.0-113.0-1.0,null,,,<p></p>,null,,,,,,,,,,,
,do_trial,211,535510,0.0-114.0-0.0,193.19999992847443,,,,,,49,0,1,1,1,highway,55,0.18855227315899814,0.6661439856334795,0.3573204234044786,0,learn
,html-keyboard-response,212,536527,0.0-114.0-1.0,null,,,<p></p>,null,,,,,,,,,,,
,do_trial,213,539399,0.0-115.0-0.0,356.60000002384186,,,,,,49,0,0,1,1,highway,56,0.1177378497840188,0.5789893875160627,0.4266988846207946,0,learn
,html-keyboard-response,214,540410,0.0-115.0-1.0,null,,,<p></p>,null,,,,,,,,,,,
,do_trial,215,543369,0.0-116.0-0.0,449.60000002384186,,,,,,49,0,1,1,1,highway,57,0.08638679103914106,0.6547731650560583,0.5420839781585415,0,learn
,html-keyboard-response,216,544376,0.0-116.0-1.0,null,,,<p></p>,null,,,,,,,,,,,
,do_trial,217,547109,0.0-117.0-0.0,214.70000004768372,,,,,,51,0,0,0,1,highway,58,0.1564509426563236,0.554048459003109,0.499699723653185,0,learn
,html-keyboard-response,218,548119,0.0-117.0-1.0,null,,,<p></p>,null,,,,,,,,,,,
,do_trial,219,550862,0.0-118.0-0.0,231.69999992847443,,,,,,51,0,0,0,1,highway,59,0.17164615369527128,0.56111395562097,0.3676988557818396,0,learn
,html-keyboard-response,220,551869,0.0-118.0-1.0,null,,,<p></p>,null,,,,,,,,,,,
,do_trial,221,554626,0.0-119.0-0.0,249.5,,,,,,50,0,1,0,1,highway,60,0.16647997217528074,0.6013360112653385,0.15866974539249523,1,learn
,html-keyboard-response,222,555629,0.0-119.0-1.0,null,,,<p></p>,null,,,,,,,,,,,
,do_trial,223,558341,0.0-120.0-0.0,203.10000002384186,,,,,,50,0,1,0,1,highway,61,0.20727301420809782,0.7299928918721809,0.1639124628390582,1,learn
,html-keyboard-response,224,559352,0.0-120.0-1.0,null,,,<p></p>,null,,,,,,,,,,,
,do_trial,225,562257,0.0-121.0-0.0,398.39999997615814,,,,,,50,1,1,0,1,highway,62,0.23168723236034733,0.7312690231596272,0.2862853317321286,1,learn
,html-keyboard-response,226,563259,0.0-121.0-1.0,null,,,<p></p>,null,,,,,,,,,,,
,do_trial,227,566184,0.0-122.0-0.0,419.10000002384186,,,,,,50,0,0,0,1,highway,63,0.27644806841387687,0.5616723049401027,0.273349289280381,0,learn
,html-keyboard-response,228,567192,0.0-122.0-1.0,null,,,<p></p>,null,,,,,,,,,,,
,do_trial,229,569958,0.0-123.0-0.0,252.79999995231628,,,,,,50,1,1,0,1,highway,64,0.2785449777881847,0.6747590286843602,0.23968391318668336,1,learn
,html-keyboard-response,230,570967,0.0-123.0-1.0,null,,,<p></p>,null,,,,,,,,,,,
,do_trial,231,573683,0.0-124.0-0.0,200.5,,,,,,50,0,1,1,1,highway,65,0.15389497463265797,0.7692482600654762,0.1879971804486812,1,learn
,html-keyboard-response,232,574687,0.0-124.0-1.0,null,,,<p></p>,null,,,,,,,,,,,
,do_trial,233,577557,0.0-125.0-0.0,366.3000000715256,,,,,,50,0,0,0,1,highway,66,0.15581712503176137,0.6062527238063984,0.34056244557123566,0,learn
,html-keyboard-response,234,578574,0.0-125.0-1.0,null,,,<p></p>,null,,,,,,,,,,,
,do_trial,235,581290,0.0-126.0-0.0,209.30000007152557,,,,,,50,1,1,0,1,highway,67,0.08253830844804552,0.7035589288932366,0.37648608687310786,1,learn
,html-keyboard-response,236,582300,0.0-126.0-1.0,null,,,<p></p>,null,,,,,,,,,,,
,do_trial,237,585013,0.0-127.0-0.0,202.59999990463257,,,,,,50,0,1,0,1,highway,68,0.1499990582818142,0.6652628701068823,0.23442511578393965,1,learn
,html-keyboard-response,238,586017,0.0-127.0-1.0,null,,,<p></p>,null,,,,,,,,,,,
,do_trial,239,588761,0.0-128.0-0.0,229.69999992847443,,,,,,50,0,1,0,1,highway,69,0.06506840698562674,0.6145971822139873,0.18626354114281893,1,learn
,html-keyboard-response,240,589773,0.0-128.0-1.0,null,,,<p></p>,null,,,,,,,,,,,
,do_bye,241,591281,0.0-129.0-0.0,null,,,,,,null,,,,,,,,,
,do_travel,242,600298,0.0-130.0-0.0,null,,,,,,null,,,,,,,,,
,do_welcome,243,604373,0.0-130.0-1.0,null,,,,,,null,,,,,,,,,
,do_trial,244,608802,0.0-131.0-0.0,1924.2999999523163,,,,,,51,0,1,0,2,countryside,70,0.1326045577249137,1,0.1736691742476807,0,learn
,html-keyboard-response,245,609812,0.0-131.0-1.0,null,,,<p></p>,null,,,,,,,,,,,
,do_trial,246,613323,0.0-132.0-0.0,1007.7000000476837,,,,,,49,0,1,0,2,countryside,71,0.08452714356457496,1,0.3502819492128159,0,learn
,html-keyboard-response,247,614331,0.0-132.0-1.0,null,,,<p></p>,null,,,,,,,,,,,
,do_trial,248,617132,0.0-133.0-0.0,284.3000000715256,,,,,,50,0,1,0,2,countryside,72,0.11031028747873187,0.7708333724100769,0.47400098918563355,1,learn
,html-keyboard-response,249,618149,0.0-133.0-1.0,null,,,<p></p>,null,,,,,,,,,,,
,do_trial,250,620931,0.0-134.0-0.0,275.89999997615814,,,,,,49,0,0,0,2,countryside,73,0.05836689746287443,0.6085083574716119,0.37733354602840025,0,learn
,html-keyboard-response,251,621949,0.0-134.0-1.0,null,,,<p></p>,null,,,,,,,,,,,
,do_trial,252,624672,0.0-135.0-0.0,214.70000004768372,,,,,,50,1,0,0,2,countryside,74,0.09220596567338964,0.7008134893649367,0.2778046897616439,0,learn
,html-keyboard-response,253,625689,0.0-135.0-1.0,null,,,<p></p>,null,,,,,,,,,,,
,do_trial,254,628705,0.0-136.0-0.0,507.7000000476837,,,,,,50,0,1,1,2,countryside,75,0.05966781666831413,0.6539754858781984,0.39031960492678536,1,learn
,html-keyboard-response,255,629711,0.0-136.0-1.0,null,,,<p></p>,null,,,,,,,,,,,
,do_trial,256,634205,0.0-137.0-0.0,1982.1999999284744,,,,,,49,0,1,0,2,countryside,76,0.061142718095847225,0.49399575691160424,0.30400933193469015,0,learn
,html-keyboard-response,257,635210,0.0-137.0-1.0,null,,,<p></p>,null,,,,,,,,,,,
,do_trial,258,637931,0.0-138.0-0.0,209.09999990463257,,,,,,50,0,1,0,2,countryside,77,0.10182936672594525,0.5510242383374454,0.3655575895720688,1,learn
,html-keyboard-response,259,638939,0.0-138.0-1.0,null,,,<p></p>,null,,,,,,,,,,,
,do_trial,260,641938,0.0-139.0-0.0,486.6999999284744,,,,,,50,0,1,0,2,countryside,78,0.14475041059167817,0.7225006334517151,0.4169243262383576,1,learn
,html-keyboard-response,261,642954,0.0-139.0-1.0,null,,,<p></p>,null,,,,,,,,,,,
,do_trial,262,646597,0.0-140.0-0.0,1131.6000000238419,,,,,,50,0,0,0,2,countryside,79,0.10133005470958185,0.7087205051451866,0.33570387684491965,0,learn
,html-keyboard-response,263,647604,0.0-140.0-1.0,null,,,<p></p>,null,,,,,,,,,,,
,do_trial,264,650937,0.0-141.0-0.0,825.5,,,,,,50,0,1,1,2,countryside,80,0.1809144990462934,0.6933721643790131,0.3000279173426608,1,learn
,html-keyboard-response,265,651948,0.0-141.0-1.0,null,,,<p></p>,null,,,,,,,,,,,
,do_trial,266,655604,0.0-142.0-0.0,1145,,,,,,50,0,0,0,2,countryside,81,0.12924705060351413,0.7132062099536206,0.3389252966256807,0,learn
,html-keyboard-response,267,656613,0.0-142.0-1.0,null,,,<p></p>,null,,,,,,,,,,,
,do_trial,268,660313,0.0-143.0-0.0,1184.5,,,,,,50,1,1,0,2,countryside,82,0.25002927484950205,0.5629081641549203,0.2770386056380041,1,learn
,html-keyboard-response,269,661330,0.0-143.0-1.0,null,,,<p></p>,null,,,,,,,,,,,
,do_trial,270,665020,0.0-144.0-0.0,1179.7999999523163,,,,,,50,0,0,0,2,countryside,83,0.5313534729460868,0.4059858332256267,0.2470393376987974,0,learn
,html-keyboard-response,271,666022,0.0-144.0-1.0,null,,,<p></p>,null,,,,,,,,,,,
,do_trial,272,669629,0.0-145.0-0.0,1099.8999999761581,,,,,,50,0,1,0,2,countryside,84,0.5109183421908535,0.49966350702526685,0.28738123930635384,1,learn
,html-keyboard-response,273,670645,0.0-145.0-1.0,null,,,<p></p>,null,,,,,,,,,,,
,do_trial,274,674262,0.0-146.0-0.0,1111.1000000238419,,,,,,50,1,0,0,2,countryside,85,0.5857214351997284,0.4895636107064748,0.2769395849243047,0,learn
,html-keyboard-response,275,675271,0.0-146.0-1.0,null,,,<p></p>,null,,,,,,,,,,,
,do_trial,276,678486,0.0-147.0-0.0,706.8999999761581,,,,,,50,1,0,0,2,countryside,86,0.44116538096007746,0.4412190099084931,0.11955359993154932,0,learn
,html-keyboard-response,277,679496,0.0-147.0-1.0,null,,,<p></p>,null,,,,,,,,,,,
,do_trial,278,682522,0.0-148.0-0.0,505.60000002384186,,,,,,49,1,1,1,2,countryside,87,0.41650639911647075,0.34809949717256905,0.16358764189089392,1,learn
,html-keyboard-response,279,683530,0.0-148.0-1.0,null,,,<p></p>,null,,,,,,,,,,,
,do_trial,280,686419,0.0-149.0-0.0,377.7999999523163,,,,,,50,1,0,0,2,countryside,88,0.5266553911100595,0.35004973449090104,0.20255943894173128,0,learn
,html-keyboard-response,281,687435,0.0-149.0-1.0,null,,,<p></p>,null,,,,,,,,,,,
,do_trial,282,690179,0.0-150.0-0.0,233.60000002384186,,,,,,49,0,1,1,2,countryside,89,0.5875568752096884,0.4805564053042916,0.23248680009798756,0,learn
,html-keyboard-response,283,691183,0.0-150.0-1.0,null,,,<p></p>,null,,,,,,,,,,,
,do_trial,284,694112,0.0-151.0-0.0,409.10000002384186,,,,,,49,1,1,0,2,countryside,90,0.5339614410026311,0.3846248013982615,0.2073817751499716,1,learn
,html-keyboard-response,285,695128,0.0-151.0-1.0,null,,,<p></p>,null,,,,,,,,,,,
,do_trial,286,698253,0.0-152.0-0.0,607.1000000238419,,,,,,49,1,0,0,2,countryside,91,0.5948942800161705,0.16096992106670918,0.08141428668327916,1,learn
,html-keyboard-response,287,699263,0.0-152.0-1.0,null,,,<p></p>,null,,,,,,,,,,,
,do_trial,288,702397,0.0-153.0-0.0,628.1000000238419,,,,,,49,1,1,0,2,countryside,92,0.5686369590865082,0.24078602946941943,0.0758671318741634,1,learn
,html-keyboard-response,289,703411,0.0-153.0-1.0,null,,,<p></p>,null,,,,,,,,,,,
,do_trial,290,707044,0.0-154.0-0.0,1119.8000000715256,,,,,,49,1,0,0,2,countryside,93,0.599335924172881,0.202662232485251,0.12678866881211723,1,learn
,html-keyboard-response,291,708062,0.0-154.0-1.0,null,,,<p></p>,null,,,,,,,,,,,
,do_trial,292,711245,0.0-155.0-0.0,673.6000000238419,,,,,,49,0,1,0,2,countryside,94,0.6425991798849146,0.2637409186043947,0.16732186785021178,0,learn
,html-keyboard-response,293,712252,0.0-155.0-1.0,null,,,<p></p>,null,,,,,,,,,,,
,do_trial,294,715651,0.0-156.0-0.0,892.9000000953674,,,,,,49,0,0,1,2,countryside,95,0.7395909027570174,0.22366725236411122,0.22377602722488676,0,learn
,html-keyboard-response,295,716661,0.0-156.0-1.0,null,,,<p></p>,null,,,,,,,,,,,
,do_trial,296,719668,0.0-157.0-0.0,501.7999999523163,,,,,,49,0,0,0,2,countryside,96,0.6314227717942105,0.06739700974643938,0.2175867850270119,0,learn
,html-keyboard-response,297,720676,0.0-157.0-1.0,null,,,<p></p>,null,,,,,,,,,,,
,do_trial,298,723618,0.0-158.0-0.0,431.89999997615814,,,,,,50,0,0,1,2,countryside,97,0.6883653308776421,0.07958276044952112,0.20939265177309163,0,learn
,html-keyboard-response,299,724627,0.0-158.0-1.0,null,,,<p></p>,null,,,,,,,,,,,
,do_trial,300,727710,0.0-159.0-0.0,572.5,,,,,,50,0,0,0,2,countryside,98,0.6668338275002625,0.14226871889057674,0.09135316811966802,0,learn
,html-keyboard-response,301,728717,0.0-159.0-1.0,null,,,<p></p>,null,,,,,,,,,,,
,do_trial,302,731967,0.0-160.0-0.0,739.6000000238419,,,,,,49,1,0,0,2,countryside,99,0.5663771017811453,0.12747515668631237,0.19837516625378013,1,learn
,html-keyboard-response,303,732984,0.0-160.0-1.0,null,,,<p></p>,null,,,,,,,,,,,
,do_trial,304,735759,0.0-161.0-0.0,261.5,,,,,,49,0,0,0,2,countryside,100,0.5783284031631313,0.13952597902342576,0.09539731870790245,0,learn
,html-keyboard-response,305,736767,0.0-161.0-1.0,null,,,<p></p>,null,,,,,,,,,,,
,do_trial,306,739816,0.0-162.0-0.0,536.2000000476837,,,,,,50,0,0,0,2,countryside,101,0.5765267547646709,0.32631171432730227,0.11501940846851237,0,learn
,html-keyboard-response,307,740827,0.0-162.0-1.0,null,,,<p></p>,null,,,,,,,,,,,
,do_trial,308,743733,0.0-163.0-0.0,390.7000000476837,,,,,,49,0,0,0,2,countryside,102,0.6810201981116153,0.32498682111082916,0.09308581991919883,0,learn
,html-keyboard-response,309,744744,0.0-163.0-1.0,null,,,<p></p>,null,,,,,,,,,,,
,do_trial,310,747716,0.0-164.0-0.0,463.1999999284744,,,,,,51,1,0,1,2,countryside,103,0.659609481178941,0.3348446678318725,0.22654231317975546,1,learn
,html-keyboard-response,311,748726,0.0-164.0-1.0,null,,,<p></p>,null,,,,,,,,,,,
,do_trial,312,752723,0.0-165.0-0.0,1481.6999999284744,,,,,,51,0,0,0,2,countryside,104,0.5824209376559525,0.3804629294175974,0.262480176030636,0,learn
,html-keyboard-response,313,753726,0.0-165.0-1.0,null,,,<p></p>,null,,,,,,,,,,,
,do_trial,314,756828,0.0-166.0-0.0,597.2999999523163,,,,,,49,1,0,0,2,countryside,105,0.5723277005910876,0.351554895397068,0.20057750154432302,1,learn
,html-keyboard-response,315,757830,0.0-166.0-1.0,null,,,<p></p>,null,,,,,,,,,,,
,do_trial,316,760593,0.0-167.0-0.0,254.79999995231628,,,,,,49,1,0,0,2,countryside,106,0.4901781030394463,0.4093365832193829,0.15087359434379935,1,learn
,html-keyboard-response,317,761602,0.0-167.0-1.0,null,,,<p></p>,null,,,,,,,,,,,
,do_trial,318,764113,0.0-168.0-0.0,0.6000000238418579,,,,,,50,1,0,0,2,countryside,107,0.5691715219819315,0.27997126226505736,0.202631624049658,0,learn
,html-keyboard-response,319,765115,0.0-168.0-1.0,null,,,<p></p>,null,,,,,,,,,,,
,do_trial,320,768157,0.0-169.0-0.0,526.8999999761581,,,,,,50,1,0,0,2,countryside,108,0.5582974198172809,0.3644246740215665,0.06682143529779232,0,learn
,html-keyboard-response,321,769159,0.0-169.0-1.0,null,,,<p></p>,null,,,,,,,,,,,
,do_trial,322,772141,0.0-170.0-0.0,475.60000002384186,,,,,,49,1,1,0,2,countryside,109,0.6123619065606232,0.36755956253898986,0.10167938340322243,1,learn
,html-keyboard-response,323,773150,0.0-170.0-1.0,null,,,<p></p>,null,,,,,,,,,,,
,do_bye,324,774657,0.0-171.0-0.0,null,,,,,,null,,,,,,,,,
,do_travel,325,783664,0.0-172.0-0.0,null,,,,,,null,,,,,,,,,
,do_welcome,326,787691,0.0-172.0-1.0,null,,,,,,null,,,,,,,,,
,do_trial,327,790989,0.0-173.0-0.0,790.4000000953674,,,,,,51,1,0,0,3,city,110,1,0.28900995461929396,0.11599685234120058,0,learn
,html-keyboard-response,328,791994,0.0-173.0-1.0,null,,,<p></p>,null,,,,,,,,,,,
,do_trial,329,794906,0.0-174.0-0.0,403.39999997615814,,,,,,51,1,0,0,3,city,111,1,0.3000954745971185,0.0895402713468067,0,learn
,html-keyboard-response,330,795914,0.0-174.0-1.0,null,,,<p></p>,null,,,,,,,,,,,
,do_trial,331,798840,0.0-175.0-0.0,419.60000002384186,,,,,,50,1,0,0,3,city,112,0.6577944138826459,0.36966466660702924,0.09737420295002944,0,learn
,html-keyboard-response,332,799857,0.0-175.0-1.0,null,,,<p></p>,null,,,,,,,,,,,
,do_trial,333,802722,0.0-176.0-0.0,353.2000000476837,,,,,,50,1,1,0,3,city,113,0.7494301911610977,0.41012887507458184,0.06415323444782485,1,learn
,html-keyboard-response,334,803731,0.0-176.0-1.0,null,,,<p></p>,null,,,,,,,,,,,
,do_trial,335,806531,0.0-177.0-0.0,292.10000002384186,,,,,,49,1,0,0,3,city,114,0.7433011957959563,0.37297298140185553,0.0629627012470584,1,learn
,html-keyboard-response,336,807547,0.0-177.0-1.0,null,,,<p></p>,null,,,,,,,,,,,
,do_trial,337,810407,0.0-178.0-0.0,356.1999999284744,,,,,,49,0,0,0,3,city,115,0.5037626691898186,0.47797337559664,0.05626357566037914,0,learn
,html-keyboard-response,338,811412,0.0-178.0-1.0,null,,,<p></p>,null,,,,,,,,,,,
,do_trial,339,815264,0.0-179.0-0.0,1332.8000000715256,,,,,,50,1,0,0,3,city,116,0.6854683122093255,0.3457093015313047,0.0666891355779727,0,learn
,html-keyboard-response,340,816271,0.0-179.0-1.0,null,,,<p></p>,null,,,,,,,,,,,
,do_trial,341,819252,0.0-180.0-0.0,474,,,,,,49,0,0,0,3,city,117,0.6326189903724763,0.3147042580285536,0.11022449369466437,0,learn
,html-keyboard-response,342,820253,0.0-180.0-1.0,null,,,<p></p>,null,,,,,,,,,,,
,do_trial,343,823172,0.0-181.0-0.0,412.7999999523163,,,,,,49,1,0,0,3,city,118,0.5871790185116562,0.16929501516299497,0.0745592067331078,1,learn
,html-keyboard-response,344,824179,0.0-181.0-1.0,null,,,<p></p>,null,,,,,,,,,,,
,do_trial,345,827213,0.0-182.0-0.0,526.7999999523163,,,,,,49,1,1,0,3,city,119,0.6724684771427961,0.2504994194307964,0.07385203291674819,1,learn
,html-keyboard-response,346,828216,0.0-182.0-1.0,null,,,<p></p>,null,,,,,,,,,,,
,do_trial,347,831163,0.0-183.0-0.0,430.8000000715256,,,,,,49,1,0,0,3,city,120,0.6972346236316098,0.275600889327613,0.1628284552679619,1,learn
,html-keyboard-response,348,832172,0.0-183.0-1.0,null,,,<p></p>,null,,,,,,,,,,,
,do_trial,349,835197,0.0-184.0-0.0,514.0999999046326,,,,,,50,0,1,0,3,city,121,0.7667753542255201,0.22579301523863918,0.15128403403652355,1,learn
,html-keyboard-response,350,836214,0.0-184.0-1.0,null,,,<p></p>,null,,,,,,,,,,,
,do_trial,351,839321,0.0-185.0-0.0,593.7999999523163,,,,,,50,0,0,1,3,city,122,0.6117534663541961,0.07129757496904797,0.35153094214592334,0,learn
,html-keyboard-response,352,840331,0.0-185.0-1.0,null,,,<p></p>,null,,,,,,,,,,,
,do_trial,353,843447,0.0-186.0-0.0,608,,,,,,50,1,0,0,3,city,123,0.5619250684034254,0.12283997124342591,0.3775907822735373,0,learn
,html-keyboard-response,354,844450,0.0-186.0-1.0,null,,,<p></p>,null,,,,,,,,,,,
,do_trial,355,847721,0.0-187.0-0.0,758.6000000238419,,,,,,49,1,0,0,3,city,124,0.4337779376127901,0.07449658319867207,0.43037995636752796,1,learn
,html-keyboard-response,356,848731,0.0-187.0-1.0,null,,,<p></p>,null,,,,,,,,,,,
,do_trial,357,851896,0.0-188.0-0.0,661.2000000476837,,,,,,49,1,0,0,3,city,125,0.4196489199575954,0.10413033474612374,0.6851734389323825,1,learn
,html-keyboard-response,358,852913,0.0-188.0-1.0,null,,,<p></p>,null,,,,,,,,,,,
,do_trial,359,855627,0.0-189.0-0.0,207.79999995231628,,,,,,49,0,0,1,3,city,126,0.3803300800649072,0.22939034679970263,0.5389930415977877,0,learn
,html-keyboard-response,360,856638,0.0-189.0-1.0,null,,,<p></p>,null,,,,,,,,,,,
,do_trial,361,859604,0.0-190.0-0.0,454.60000002384186,,,,,,50,0,0,0,3,city,127,0.24847528644159958,0.22176506009307814,0.5895230719882852,0,learn
,html-keyboard-response,362,860621,0.0-190.0-1.0,null,,,<p></p>,null,,,,,,,,,,,
,do_trial,363,863478,0.0-191.0-0.0,348.7999999523163,,,,,,49,0,0,1,3,city,128,0.21356606852716561,0.16901378978776638,0.6295207125861516,0,learn
,html-keyboard-response,364,864488,0.0-191.0-1.0,null,,,<p></p>,null,,,,,,,,,,,
,do_trial,365,867270,0.0-192.0-0.0,275.5,,,,,,51,1,0,1,3,city,129,0.2948317718806366,0.2045768062121676,0.7333981475543533,1,learn
,html-keyboard-response,366,868287,0.0-192.0-1.0,null,,,<p></p>,null,,,,,,,,,,,
,do_trial,367,871278,0.0-193.0-0.0,482.59999990463257,,,,,,51,0,0,1,3,city,130,0.3267309097261812,0.1832552096586437,0.6454642633118585,1,learn
,html-keyboard-response,368,872282,0.0-193.0-1.0,null,,,<p></p>,null,,,,,,,,,,,
,do_trial,369,874936,0.0-194.0-0.0,144.10000002384186,,,,,,49,0,0,1,3,city,131,0.420442920135484,0.11571085756634948,0.6162693375129051,0,learn
,html-keyboard-response,370,875954,0.0-194.0-1.0,null,,,<p></p>,null,,,,,,,,,,,
,do_trial,371,879536,0.0-195.0-0.0,1073.5,,,,,,50,0,0,1,3,city,132,0.2772648998618659,0.1997975363830087,0.5343081385215791,0,learn
,html-keyboard-response,372,880545,0.0-195.0-1.0,null,,,<p></p>,null,,,,,,,,,,,
,do_trial,373,883603,0.0-196.0-0.0,546.3999999761581,,,,,,49,1,0,1,3,city,133,0.29159866866987344,0.07477887950931474,0.5586015776787396,1,learn
,html-keyboard-response,374,884611,0.0-196.0-1.0,null,,,<p></p>,null,,,,,,,,,,,
,do_trial,375,887820,0.0-197.0-0.0,695.8000000715256,,,,,,49,1,0,0,3,city,134,0.3496748722332593,0.08413632427469526,0.5877099428901296,1,learn
,html-keyboard-response,376,888828,0.0-197.0-1.0,null,,,<p></p>,null,,,,,,,,,,,
,do_trial,377,891869,0.0-198.0-0.0,530.3999999761581,,,,,,51,0,0,0,3,city,135,0.4284402288977349,0.17116701672938917,0.6416528363769455,0,learn
,html-keyboard-response,378,892877,0.0-198.0-1.0,null,,,<p></p>,null,,,,,,,,,,,
,do_trial,379,895670,0.0-199.0-0.0,276.3000000715256,,,,,,49,0,0,1,3,city,136,0.3768849474612476,0.20620744036428698,0.6704422294967519,0,learn
,html-keyboard-response,380,896685,0.0-199.0-1.0,null,,,<p></p>,null,,,,,,,,,,,
,do_trial,381,900443,0.0-200.0-0.0,1247.8999999761581,,,,,,49,1,0,0,3,city,137,0.17857263521575026,0.16296489979590928,0.5931491339000927,1,learn
,html-keyboard-response,382,901452,0.0-200.0-1.0,null,,,<p></p>,null,,,,,,,,,,,
,do_trial,383,904302,0.0-201.0-0.0,340.8000000715256,,,,,,49,0,0,0,3,city,138,0.22967205956301112,0.08520751353907652,0.6028334024769452,0,learn
,html-keyboard-response,384,905310,0.0-201.0-1.0,null,,,<p></p>,null,,,,,,,,,,,
,do_trial,385,908195,0.0-202.0-0.0,380,,,,,,50,0,0,0,3,city,139,0.17468420181572955,0.11468903550270014,0.4015375858519458,0,learn
,html-keyboard-response,386,909203,0.0-202.0-1.0,null,,,<p></p>,null,,,,,,,,,,,
,do_trial,387,912111,0.0-203.0-0.0,389.10000002384186,,,,,,49,0,0,0,3,city,140,0.2709930894897105,0.061294073829440306,0.5322041410065511,0,learn
,html-keyboard-response,388,913117,0.0-203.0-1.0,null,,,<p></p>,null,,,,,,,,,,,
,do_trial,389,916193,0.0-204.0-0.0,556.3999999761581,,,,,,51,0,0,1,3,city,141,0.21691538124670268,0.07514624163617321,0.6774146506253595,1,learn
,html-keyboard-response,390,917203,0.0-204.0-1.0,null,,,<p></p>,null,,,,,,,,,,,
,do_trial,391,920177,0.0-205.0-0.0,464.10000002384186,,,,,,51,0,0,0,3,city,142,0.30188194862712947,0.08696032858298229,0.6026337576765398,0,learn
,html-keyboard-response,392,921186,0.0-205.0-1.0,null,,,<p></p>,null,,,,,,,,,,,
,do_trial,393,924132,0.0-206.0-0.0,433.7000000476837,,,,,,49,0,0,1,3,city,143,0.45777926384816026,0.11902455885687577,0.684349076172349,0,learn
,html-keyboard-response,394,925135,0.0-206.0-1.0,null,,,<p></p>,null,,,,,,,,,,,
,do_trial,395,927821,0.0-207.0-0.0,174.70000004768372,,,,,,50,0,1,1,3,city,144,0.364583598750603,0.05809695338255216,0.6747104899687775,1,learn
,html-keyboard-response,396,928825,0.0-207.0-1.0,null,,,<p></p>,null,,,,,,,,,,,
,do_trial,397,931725,0.0-208.0-0.0,390.10000002384186,,,,,,50,0,0,1,3,city,145,0.4889451721943982,0.08087735167126106,0.6378105541242968,0,learn
,html-keyboard-response,398,932734,0.0-208.0-1.0,null,,,<p></p>,null,,,,,,,,,,,
,do_trial,399,935931,0.0-209.0-0.0,692.6999999284744,,,,,,49,0,0,0,3,city,146,0.38128236385170594,0.16161819930266777,0.4934028211425851,0,learn
,html-keyboard-response,400,936934,0.0-209.0-1.0,null,,,<p></p>,null,,,,,,,,,,,
,do_trial,401,940658,0.0-210.0-0.0,1215.1000000238419,,,,,,50,1,0,1,3,city,147,0.24668987783872945,0.15943180699135026,0.5605433489981271,0,learn
,html-keyboard-response,402,941667,0.0-210.0-1.0,null,,,<p></p>,null,,,,,,,,,,,
,do_trial,403,944574,0.0-211.0-0.0,397.2000000476837,,,,,,51,0,0,1,3,city,148,0.28749403841702154,0.08511670633644458,0.6198061064459709,1,learn
,html-keyboard-response,404,945583,0.0-211.0-1.0,null,,,<p></p>,null,,,,,,,,,,,
,do_trial,405,948400,0.0-212.0-0.0,310.7999999523163,,,,,,49,0,0,1,3,city,149,0.2883040301737993,0.16117433826834815,0.6427974649392663,0,learn
,html-keyboard-response,406,949418,0.0-212.0-1.0,null,,,<p></p>,null,,,,,,,,,,,
,do_bye,407,950924,0.0-213.0-0.0,null,,,,,,null,,,,,,,,,
,do_travel,408,959927,0.0-214.0-0.0,null,,,,,,null,,,,,,,,,
