success,trial_type,trial_index,time_elapsed,internal_node_id,rt,responses,subject_id,stimulus,key_press,prompt,response,choice_outcomes,context_n,context_img_id,trial_n,pR_red,pR_white,pR_black,outcome,phase
true,fullscreen,0,6783,0.0-0.0,,,,,,,,,,,,,,,,
,survey-html-form,1,64943,0.0-1.0,58158,{worker_id:69cd4ffc9fce4e55cd3afd86},69cd4ffc9fce4e55cd3afd86,,,,,,,,,,,,,
,instruc1,2,66945,0.0-2.0,null,,69cd4ffc9fce4e55cd3afd86,<div class='center'><p>Welcome! This study will last ~30 minutes. After the instructions there will be a practice game and quiz to make sure you understand the task. Today you will be the head captain of a pirate ship traveling around the world to different islands. Here is an overview of what you will be doing:</p><br><p> 1. Try to find the most successful pirate on 6 different islands</p><p> 2. Recall which pirates did the best on each island</p><br><p>,null,<div class='center'><p>Welcome! This study will last ~30 minutes. After the instructions there will be a practice game and quiz to make sure you understand the task. Today you will be the head captain of a pirate ship traveling around the world to different islands. Here is an overview of what you will be doing:</p><br><p> 1. Try to find the most successful pirate on 6 different islands</p><p> 2. Recall which pirates did the best on each island</p><br><p>,,,,,,,,,,
,html-keyboard-response,3,87325,0.0-3.0,20379.5,,,<div class='center'><p>Welcome! This study will last ~30 minutes. After the instructions there will be a practice game and quiz to make sure you understand the task. Today you will be the head captain of a pirate ship traveling around the world to different islands. Here is an overview of what you will be doing:</p><br><p> 1. Try to find the most successful pirate on 6 different islands</p><p> 2. Recall which pirates did the best on each island</p><br><p><p><b>[Press the space bar to continue]</b></p></div>,32,,,,,,,,,,,
,instruc2,4,89327,0.0-4.0,null,,,<div class='center'><p>You are going to visit these 6 islands on your journey. You'll be able to see these islands from your ship.</p><p><img src='../static/images/contexts/all_contexts.png' height='500'></p></div>,null,<div class='center'><p>You are going to visit these 6 islands on your journey. You'll be able to see these islands from your ship.</p><p><img src='../static/images/contexts/all_contexts.png' height='500'></p></div>,,,,,,,,,,
,html-keyboard-response,5,100656,0.0-5.0,11327.199999928474,,,<div class='center'><p>You are going to visit these 6 islands on your journey. You'll be able to see these islands from your ship.</p><p><img src='../static/images/contexts/all_contexts.png' height='500'></p><p><b>[Press the space bar to continue]</b></p></div>,32,,,,,,,,,,,
,instruc4,6,102658,0.0-6.0,null,,,<div class='center'><p>As the head captain, you do not have to rob any ships yourself. Another pirate will be doing the robbing for you. First, you will choose a pirate to rob the next ship.</p><p><img src='../static/images/tutorial/pirates_all_crop.png' height='200'></p><p>Then, you'll see if the pirate successfully robbed the ship of their gold. If they were successful, then you'll get a stack of gold coins like this:</p><p><img src='../static/images/tutorial/reward.png' height='150'></p><p> If they were <b>not</b> successful, then you'll get no gold coins, and you'll see a big red x like this: </p><p><img src='../static/images/tutorial/reward_no.png' height='150'></p><p> How much bonus money you make is based on how many gold coins you collect.</p><div>,null,<div class='center'><p>As the head captain, you do not have to rob any ships yourself. Another pirate will be doing the robbing for you. First, you will choose a pirate to rob the next ship.</p><p><img src='../static/images/tutorial/pirates_all_crop.png' height='200'></p><p>Then, you'll see if the pirate successfully robbed the ship of their gold. If they were successful, then you'll get a stack of gold coins like this:</p><p><img src='../static/images/tutorial/reward.png' height='150'></p><p> If they were <b>not</b> successful, then you'll get no gold coins, and you'll see a big red x like this: </p><p><img src='../static/images/tutorial/reward_no.png' height='150'></p><p> How much bonus money you make is based on how many gold coins you collect.</p><div>,,,,,,,,,,
,html-keyboard-response,7,127263,0.0-7.0,24603.199999928474,,,<div class='center'><p>As the head captain, you do not have to rob any ships yourself. Another pirate will be doing the robbing for you. First, you will choose a pirate to rob the next ship.</p><p><img src='../static/images/tutorial/pirates_all_crop.png' height='200'></p><p>Then, you'll see if the pirate successfully robbed the ship of their gold. If they were successful, then you'll get a stack of gold coins like this:</p><p><img src='../static/images/tutorial/reward.png' height='150'></p><p> If they were <b>not</b> successful, then you'll get no gold coins, and you'll see a big red x like this: </p><p><img src='../static/images/tutorial/reward_no.png' height='150'></p><p> How much bonus money you make is based on how many gold coins you collect.</p><div><p><b>[Press the space bar to continue]</b></p></div>,32,,,,,,,,,,,
,instruc5,8,145829,0.0-8.0,18564.799999952316,,,<div class='center'><p>Even the most skilled pirate can not rob EVERY ship.</p><p> Some ships will have very strong protections against pirate attacks.</p><p> Blue beard, here, is very, very good at robbing ships, but he won't be successful every time he tries to rob one.</p><p> You can press the <b>'1'</b> key on the keyboard to choose him.</p><p> Try choosing him 10 times to see how often he succeeds at robbing a ship. </p><p><img src='../static/images/tutorial/blue.png' height='500'></p></div>,49,<div class='center'><p>Even the most skilled pirate can not rob EVERY ship.</p><p> Some ships will have very strong protections against pirate attacks.</p><p> Blue beard, here, is very, very good at robbing ships, but he won't be successful every time he tries to rob one.</p><p> You can press the <b>'1'</b> key on the keyboard to choose him.</p><p> Try choosing him 10 times to see how often he succeeds at robbing a ship. </p><p><img src='../static/images/tutorial/blue.png' height='500'></p></div>,,,,,,,,,,
,html-keyboard-response,9,147336,0.0-9.0,null,,,<div class='center'><p><img src='../static/images/tutorial/blue_win.png' height='500'></p></div>,null,,,,,,,,,,,
,html-keyboard-response,10,149826,0.0-10.0,2489.600000023842,,,<div class='center'><img src='../static/images/tutorial/blue.png' height='500'></p></div>,49,,,,,,,,,,,
,html-keyboard-response,11,151327,0.0-11.0,null,,,<div class='center'><p><img src='../static/images/tutorial/blue_win.png' height='500'></p></div>,null,,,,,,,,,,,
,html-keyboard-response,12,151923,0.0-12.0,594.0999999046326,,,<div class='center'><img src='../static/images/tutorial/blue.png' height='500'></p></div>,49,,,,,,,,,,,
,html-keyboard-response,13,153424,0.0-13.0,null,,,<div class='center'><p><img src='../static/images/tutorial/blue_win.png' height='500'></p></div>,null,,,,,,,,,,,
,html-keyboard-response,14,154042,0.0-14.0,617,,,<div class='center'><img src='../static/images/tutorial/blue.png' height='500'></p></div>,49,,,,,,,,,,,
,html-keyboard-response,15,155544,0.0-15.0,null,,,<div class='center'><p><img src='../static/images/tutorial/blue_no_win.png' height='500'></p></div>,null,,,,,,,,,,,
,html-keyboard-response,16,155766,0.0-16.0,221.10000002384186,,,<div class='center'><img src='../static/images/tutorial/blue.png' height='500'></p></div>,49,,,,,,,,,,,
,html-keyboard-response,17,157267,0.0-17.0,null,,,<div class='center'><p><img src='../static/images/tutorial/blue_win.png' height='500'></p></div>,null,,,,,,,,,,,
,html-keyboard-response,18,157678,0.0-18.0,409.6999999284744,,,<div class='center'><img src='../static/images/tutorial/blue.png' height='500'></p></div>,49,,,,,,,,,,,
,html-keyboard-response,19,159180,0.0-19.0,null,,,<div class='center'><p><img src='../static/images/tutorial/blue_win.png' height='500'></p></div>,null,,,,,,,,,,,
,html-keyboard-response,20,159705,0.0-20.0,523.7000000476837,,,<div class='center'><img src='../static/images/tutorial/blue.png' height='500'></p></div>,49,,,,,,,,,,,
,html-keyboard-response,21,161206,0.0-21.0,null,,,<div class='center'><p><img src='../static/images/tutorial/blue_win.png' height='500'></p></div>,null,,,,,,,,,,,
,html-keyboard-response,22,161608,0.0-22.0,400.10000002384186,,,<div class='center'><img src='../static/images/tutorial/blue.png' height='500'></p></div>,49,,,,,,,,,,,
,html-keyboard-response,23,163109,0.0-23.0,null,,,<div class='center'><p><img src='../static/images/tutorial/blue_no_win.png' height='500'></p></div>,null,,,,,,,,,,,
,html-keyboard-response,24,163408,0.0-24.0,297.60000002384186,,,<div class='center'><img src='../static/images/tutorial/blue.png' height='500'></p></div>,49,,,,,,,,,,,
,html-keyboard-response,25,164910,0.0-25.0,null,,,<div class='center'><p><img src='../static/images/tutorial/blue_win.png' height='500'></p></div>,null,,,,,,,,,,,
,html-keyboard-response,26,165169,0.0-26.0,257.89999997615814,,,<div class='center'><img src='../static/images/tutorial/blue.png' height='500'></p></div>,49,,,,,,,,,,,
,html-keyboard-response,27,166670,0.0-27.0,null,,,<div class='center'><p><img src='../static/images/tutorial/blue_win.png' height='500'></p></div>,null,,,,,,,,,,,
,instruc6,28,168672,0.0-28.0,null,,,<div class='center'><p> See, he succeeded in robbing the ships most of the time but not every time. </p></div>,null,<div class='center'><p> See, he succeeded in robbing the ships most of the time but not every time. </p></div>,,,,,,,,,,
,html-keyboard-response,29,171395,0.0-29.0,2722.5,,,<div class='center'><p> See, he succeeded in robbing the ships most of the time but not every time. </p><p><b>[Press the space bar to continue]</b></p></div>,32,,,,,,,,,,,
,html-keyboard-response,30,186514,0.0-30.0,15117.700000047684,,,<div class='center'><p>From these three pirates, you will get to choose which one you want to rob the next ship. <p>Press the <b>'1'</b> key on your keyboard to pick the pirate with the red beard.</p><p> Press <b>'2'</b> to pick the pirate with the white beard.</p><p> Press <b>'3'</b> to pick the pirate with the black beard.</p><p>Try picking a pirate now!</p><p><img src='../static/images/tutorial/all_pirates.png' height='500'></p></div>,50,,,,,,,,,,,
,html-keyboard-response,31,190911,0.0-31.0-0.0,4394.800000071526,,,<div class='center'><p>Yay! This pirate succeeded in robbing the ship!</p><p><img src='../static/images/tutorial/white_win.png' height='500'></p><p><b>[Press the space bar to continue]</b></p></div>,32,,,,,,,,,,,
,html-keyboard-response,32,193799,0.0-31.0-1.0,2887.1999999284744,,,<div class='center'><p>Now try choosing another.</p><p><img src='../static/images/tutorial/all_pirates.png' height='500'></p></div>,49,,,,,,,,,,,
,html-keyboard-response,33,196151,0.0-32.0-0.0,2350.899999976158,,,<div class='center'><p>Oh no! This pirate did not succeed in robbing the ship.</p><p><img src='../static/images/tutorial/red_no_win.png' height='500'></p><p><b>[Press the space bar to continue]</b></p></div>,32,,,,,,,,,,,
,instruc9,34,198153,0.0-33.0-0.0,null,,,<div class='center'><p>If you don't make your choice fast enough, you'll have to wait a few seconds before you can make another one. </p><p><img src='../static/images/miscellaneous/hurry_up.png' height='500'></p></div>,null,<div class='center'><p>If you don't make your choice fast enough, you'll have to wait a few seconds before you can make another one. </p><p><img src='../static/images/miscellaneous/hurry_up.png' height='500'></p></div>,,,,,,,,,,
,html-keyboard-response,35,202280,0.0-33.0-1.0,4125.799999952316,,,<div class='center'><p>If you don't make your choice fast enough, you'll have to wait a few seconds before you can make another one. </p><p><img src='../static/images/miscellaneous/hurry_up.png' height='500'></p><p><b>[Press the space bar to continue]</b></p></div>,32,,,,,,,,,,,
,instruc11,36,204281,0.0-33.0-2.0,null,,,<div class='center'><p>How successful a pirate is at robbing ships will depend on the island you're on.</p><p> A pirate may have visited this island many times before and gained a lot of practice robbing ships there.</p><p>So, they're more likely to be successful than a pirate who has never visited the island before.</p></div>,null,<div class='center'><p>How successful a pirate is at robbing ships will depend on the island you're on.</p><p> A pirate may have visited this island many times before and gained a lot of practice robbing ships there.</p><p>So, they're more likely to be successful than a pirate who has never visited the island before.</p></div>,,,,,,,,,,
,html-keyboard-response,37,214463,0.0-33.0-3.0,10181.800000071526,,,<div class='center'><p>How successful a pirate is at robbing ships will depend on the island you're on.</p><p> A pirate may have visited this island many times before and gained a lot of practice robbing ships there.</p><p>So, they're more likely to be successful than a pirate who has never visited the island before.</p><p><b>[Press the space bar to continue]</b></p></div>,32,,,,,,,,,,,
,instruc12,38,216464,0.0-33.0-4.0,null,,,<div class='center'><p>How successful a pirate is at robbing ships can also change over the time spent on the island. </p><p> Ships may hear from islanders about the pirates coming and will improve their protections against the attack. This may make it harder to rob them.</p><p> Ships may also become lazy and weaken the strength of their protections. This may make it easier to rob them.</p><br><p>Things are always changing on the high seas! So, try your best to pay attention!</p><p><img src='../static/images/tutorial/contingency.png' height='500'></p></div>,null,<div class='center'><p>How successful a pirate is at robbing ships can also change over the time spent on the island. </p><p> Ships may hear from islanders about the pirates coming and will improve their protections against the attack. This may make it harder to rob them.</p><p> Ships may also become lazy and weaken the strength of their protections. This may make it easier to rob them.</p><br><p>Things are always changing on the high seas! So, try your best to pay attention!</p><p><img src='../static/images/tutorial/contingency.png' height='500'></p></div>,,,,,,,,,,
,html-keyboard-response,39,237867,0.0-33.0-5.0,21400.899999976158,,,<div class='center'><p>How successful a pirate is at robbing ships can also change over the time spent on the island. </p><p> Ships may hear from islanders about the pirates coming and will improve their protections against the attack. This may make it harder to rob them.</p><p> Ships may also become lazy and weaken the strength of their protections. This may make it easier to rob them.</p><br><p>Things are always changing on the high seas! So, try your best to pay attention!</p><p><img src='../static/images/tutorial/contingency.png' height='500'></p><p><b>[Press the space bar to continue]</b></p></div>,32,,,,,,,,,,,
,instruc13,40,239868,0.0-33.0-6.0,null,,,<div class='center'><p>Let's go over the instructions quickly again. You have one thing to do: </p><p><b>Pick the pirate who is the best at robbing ships on the current island.</b></p><p>The amount of bonus money you win depends on it.</p><br><p>Let's try a practice game. The game will start by showing you an island. Pick a pirate using the <b>1, 2, 3</b> keys on your keyboard to get it to try and rob one of the ships leaving the island.</p><p>This is just a practice game, so you're not playing for money.</p><p>Good luck! This game will be very difficult but try your best!</p></div>,null,<div class='center'><p>Let's go over the instructions quickly again. You have one thing to do: </p><p><b>Pick the pirate who is the best at robbing ships on the current island.</b></p><p>The amount of bonus money you win depends on it.</p><br><p>Let's try a practice game. The game will start by showing you an island. Pick a pirate using the <b>1, 2, 3</b> keys on your keyboard to get it to try and rob one of the ships leaving the island.</p><p>This is just a practice game, so you're not playing for money.</p><p>Good luck! This game will be very difficult but try your best!</p></div>,,,,,,,,,,
,html-keyboard-response,41,261618,0.0-33.0-7.0,21748.300000071526,,,<div class='center'><p>Let's go over the instructions quickly again. You have one thing to do: </p><p><b>Pick the pirate who is the best at robbing ships on the current island.</b></p><p>The amount of bonus money you win depends on it.</p><br><p>Let's try a practice game. The game will start by showing you an island. Pick a pirate using the <b>1, 2, 3</b> keys on your keyboard to get it to try and rob one of the ships leaving the island.</p><p>This is just a practice game, so you're not playing for money.</p><p>Good luck! This game will be very difficult but try your best!</p><p><b>[Press the space bar to continue]</b></p></div>,32,,,,,,,,,,,
,do_welcome,42,265626,0.0-33.0-8.0,null,,,,,,null,,,,,,,,,
,do_trial,43,269725,0.0-33.0-9.0,1590.8999999761581,,,,,,51,1,0,0,,,,,,,,
,html-keyboard-response,44,270727,0.0-34.0-0.0,null,,,<p></p>,null,,,,,,,,,,,
,do_trial,45,274941,0.0-34.0-1.0,1708.7000000476837,,,,,,50,1,1,0,,,,,,,,
,html-keyboard-response,46,275943,0.0-35.0-0.0,null,,,<p></p>,null,,,,,,,,,,,
,do_trial,47,279606,0.0-35.0-1.0,1157.6000000238419,,,,,,49,1,0,1,,,,,,,,
,html-keyboard-response,48,280608,0.0-36.0-0.0,null,,,<p></p>,null,,,,,,,,,,,
,do_trial,49,284068,0.0-36.0-1.0,955.5999999046326,,,,,,51,0,1,0,,,,,,,,
,html-keyboard-response,50,285069,0.0-37.0-0.0,null,,,<p></p>,null,,,,,,,,,,,
,do_trial,51,287963,0.0-37.0-1.0,388.8000000715256,,,,,,50,1,0,0,,,,,,,,
,do_bye,52,289468,0.0-38.0-0.0,null,,,,,,null,,,,,,,,,
,do_travel,53,298473,0.0-38.0-1.0,null,,,,,,null,,,,,,,,,
,do_welcome,54,302476,0.0-38.0-2.0,null,,,,,,null,,,,,,,,,
,do_trial,55,306051,0.0-38.0-3.0,1070.2999999523163,,,,,,49,1,0,0,,,,,,,,
,html-keyboard-response,56,307054,0.0-39.0-0.0,null,,,<p></p>,null,,,,,,,,,,,
,do_trial,57,310590,0.0-39.0-1.0,1030.3999999761581,,,,,,51,1,0,1,,,,,,,,
,html-keyboard-response,58,311591,0.0-40.0-0.0,null,,,<p></p>,null,,,,,,,,,,,
,do_trial,59,314494,0.0-40.0-1.0,397.10000002384186,,,,,,50,1,1,0,,,,,,,,
,html-keyboard-response,60,315495,0.0-41.0-0.0,null,,,<p></p>,null,,,,,,,,,,,
,do_trial,61,318783,0.0-41.0-1.0,781.3999999761581,,,,,,49,0,0,1,,,,,,,,
,html-keyboard-response,62,319786,0.0-42.0-0.0,null,,,<p></p>,null,,,,,,,,,,,
,do_trial,63,322855,0.0-42.0-1.0,563.2999999523163,,,,,,51,1,0,1,,,,,,,,
,html-keyboard-response,64,328659,0.0-43.0-0.0,5803.5,,,<div class='center'><p><img src='../static/images/tutorial/prac_best_pirate.png' height='500'></p></div>,50,,,,,,,,,,,
,html-keyboard-response,65,333505,0.0-44.0-0.0,4844.899999976158,,,<div class='center'><p>That's incorrect! Red beard was the best.</p><p><b>[Press the space bar to continue]</b></p></div>,32,,,,,,,,,,,
,quiz_beginning,66,335506,0.0-44.0-1.0,null,,,<div class='center'><p>Good job on the practice game! Now, you will be asked some true or false questions to make sure you really understand the rules of the game.</p><p> Press <b>'1'</b> on the keyboard for true and press <b>'2'</b> for false.</p></div>,null,<div class='center'><p>Good job on the practice game! Now, you will be asked some true or false questions to make sure you really understand the rules of the game.</p><p> Press <b>'1'</b> on the keyboard for true and press <b>'2'</b> for false.</p></div>,,,,,,,,,,
,html-keyboard-response,67,344911,0.0-44.0-2.0,9403.399999976158,,,<div class='center'><p>You win bonus money by collecting gold coins.</p><p>Press 1 for true and press  2 for false.</p></div>,49,,,,,,,,,,,
,correct,68,346913,0.0-45.0-0.0,null,,,<div class='center'><p>That's correct!</p></div>,null,<div class='center'><p>That's correct!</p></div>,,,,,,,,,,
,html-keyboard-response,69,348682,0.0-45.0-1.0,1767,,,<div class='center'><p>That's correct!</p><p><b>[Press the space bar to continue]</b></p></div>,32,,,,,,,,,,,
,html-keyboard-response,70,355911,0.0-45.0-2.0,7229.399999976158,,,<div class='center'><p>The pirate who is the best at robbing ships when you first arrive on the island will definitely still be the best when you leave the island. </p><p>Press 1 for true and press  2 for false.</p></div>,50,,,,,,,,,,,
,correct,71,357913,0.0-46.0-0.0,null,,,<div class='center'><p>That's correct!</p></div>,null,<div class='center'><p>That's correct!</p></div>,,,,,,,,,,
,html-keyboard-response,72,360230,0.0-46.0-1.0,2316,,,<div class='center'><p>That's correct!</p><p><b>[Press the space bar to continue]</b></p></div>,32,,,,,,,,,,,
,html-keyboard-response,73,365045,0.0-46.0-2.0,4813.599999904633,,,<div class='center'><p>The pirate who is the best at robbing ships on the first island will be the best on every other island.</p><p>Press 1 for true and press  2 for false.</p></div>,50,,,,,,,,,,,
,correct,74,367046,0.0-47.0-0.0,null,,,<div class='center'><p>That's correct!</p></div>,null,<div class='center'><p>That's correct!</p></div>,,,,,,,,,,
,html-keyboard-response,75,368839,0.0-47.0-1.0,1792.5,,,<div class='center'><p>That's correct!</p><p><b>[Press the space bar to continue]</b></p></div>,32,,,,,,,,,,,
,html-keyboard-response,76,373037,0.0-47.0-2.0,4197.299999952316,,,<div class='center'><p>You should remember the island where a pirate robbed a ship.</p><p>Press 1 for true and press  2 for false.</p></div>,49,,,,,,,,,,,
,correct,77,375047,0.0-48.0-0.0,null,,,<div class='center'><p>That's correct!</p></div>,null,<div class='center'><p>That's correct!</p></div>,,,,,,,,,,
,html-keyboard-response,78,376603,0.0-48.0-1.0,1554.7999999523163,,,<div class='center'><p>That's correct!</p><p><b>[Press the space bar to continue]</b></p></div>,32,,,,,,,,,,,
,q_all_corr,79,378605,0.0-49.0-0.0,null,,,<div class='center'><p>Good job! You’re now ready to move on to the real game! Remember this game will be difficult but don't get discouraged and try your best!</p></div>,null,<div class='center'><p>Good job! You’re now ready to move on to the real game! Remember this game will be difficult but don't get discouraged and try your best!</p></div>,,,,,,,,,,
,html-keyboard-response,80,381781,0.0-49.0-1.0,3173.899999976158,,,<div class='center'><p>Good job! You’re now ready to move on to the real game! Remember this game will be difficult but don't get discouraged and try your best!</p><p><b>[Press the space bar to continue]</b></p></div>,32,,,,,,,,,,,
,do_welcome,81,385790,0.0-50.0-0.0,null,,,,,,null,,,,,,,,,
,do_trial,82,391796,0.0-51.0-0.0,null,,,,,,null,1,0,1,0,coast,0,0.6,0.3,0.1,,learn
,html-keyboard-response,83,392798,0.0-51.0-1.0,null,,,<p></p>,null,,,,,,,,,,,
,do_trial,84,395960,0.0-52.0-0.0,656.0999999046326,,,,,,51,0,0,0,0,coast,1,0.6201366479088017,0.20523682853609057,0.06514704084456611,0,learn
,html-keyboard-response,85,396962,0.0-52.0-1.0,null,,,<p></p>,null,,,,,,,,,,,
,do_trial,86,400331,0.0-53.0-0.0,863.6000000238419,,,,,,49,1,0,0,0,coast,2,0.6571466186880184,0.12376466426502303,0.11378171299253903,1,learn
,html-keyboard-response,87,401332,0.0-53.0-1.0,null,,,<p></p>,null,,,,,,,,,,,
,do_trial,88,404357,0.0-54.0-0.0,520.6000000238419,,,,,,50,0,0,1,0,coast,3,0.6979417065288755,0.11533486590172148,0.19826596673179744,0,learn
,html-keyboard-response,89,405359,0.0-54.0-1.0,null,,,<p></p>,null,,,,,,,,,,,
,do_trial,90,408311,0.0-55.0-0.0,446.5,,,,,,51,1,0,1,0,coast,4,0.5862675620259007,0.3064285614796771,0.3746778398663595,1,learn
,html-keyboard-response,91,409313,0.0-55.0-1.0,null,,,<p></p>,null,,,,,,,,,,,
,do_trial,92,412885,0.0-56.0-0.0,1066.2999999523163,,,,,,51,1,0,0,0,coast,5,0.6065709814802395,0.2588622388511815,0.2171061346639095,0,learn
,html-keyboard-response,93,413886,0.0-56.0-1.0,null,,,<p></p>,null,,,,,,,,,,,
,do_trial,94,417668,0.0-57.0-0.0,1276.7999999523163,,,,,,49,0,0,1,0,coast,6,0.45436559887163597,0.2954871447355559,0.12029894682197036,0,learn
,html-keyboard-response,95,418671,0.0-57.0-1.0,null,,,<p></p>,null,,,,,,,,,,,
,do_trial,96,422181,0.0-58.0-0.0,1005.7000000476837,,,,,,50,0,0,0,0,coast,7,0.5927541543394887,0.2650860029857363,0.18589869143075624,0,learn
,html-keyboard-response,97,423183,0.0-58.0-1.0,null,,,<p></p>,null,,,,,,,,,,,
,do_trial,98,426141,0.0-59.0-0.0,454.2000000476837,,,,,,49,1,1,1,0,coast,8,0.6380147013806571,0.20117072268479164,0.1596443680126707,1,learn
,html-keyboard-response,99,427143,0.0-59.0-1.0,null,,,<p></p>,null,,,,,,,,,,,
,do_trial,100,430346,0.0-60.0-0.0,697.5,,,,,,51,1,0,1,0,coast,9,0.44474878748458296,0.12767241883073294,0.30985915659732594,1,learn
,html-keyboard-response,101,431348,0.0-60.0-1.0,null,,,<p></p>,null,,,,,,,,,,,
,do_trial,102,435093,0.0-61.0-0.0,1239.5999999046326,,,,,,50,1,0,0,0,coast,10,0.5340097358947183,0.1372545011324629,0.249876053102041,0,learn
,html-keyboard-response,103,436096,0.0-61.0-1.0,null,,,<p></p>,null,,,,,,,,,,,
,do_trial,104,439692,0.0-62.0-0.0,1091.7000000476837,,,,,,49,1,0,0,0,coast,11,0.525944995369106,0.16030403331119558,0.2479381472816971,1,learn
,html-keyboard-response,105,440694,0.0-62.0-1.0,null,,,<p></p>,null,,,,,,,,,,,
,do_trial,106,445269,0.0-63.0-0.0,2070.600000023842,,,,,,51,1,0,1,0,coast,12,0.4405258418236345,0.24285981189744504,0.054325938587109344,1,learn
,html-keyboard-response,107,446270,0.0-63.0-1.0,null,,,<p></p>,null,,,,,,,,,,,
,do_trial,108,449093,0.0-64.0-0.0,318.8000000715256,,,,,,50,1,1,0,0,coast,13,0.5438102029071054,0.28629918962875434,0.09249854001352406,1,learn
,html-keyboard-response,109,450094,0.0-64.0-1.0,null,,,<p></p>,null,,,,,,,,,,,
,do_trial,110,453937,0.0-65.0-0.0,1336.9000000953674,,,,,,50,0,0,1,0,coast,14,0.6659272087921216,0.2529152353259783,0.12559607368487752,0,learn
,html-keyboard-response,111,454939,0.0-65.0-1.0,null,,,<p></p>,null,,,,,,,,,,,
,do_trial,112,458529,0.0-66.0-0.0,1085.3999999761581,,,,,,49,1,0,0,0,coast,15,0.6164042284502889,0.37082356826439933,0.23105501167445433,1,learn
,html-keyboard-response,113,459531,0.0-66.0-1.0,null,,,<p></p>,null,,,,,,,,,,,
,do_trial,114,462875,0.0-67.0-0.0,839.7000000476837,,,,,,51,0,0,0,0,coast,16,0.6178514619656337,0.25965843991842635,0.15298053141190524,0,learn
,html-keyboard-response,115,463876,0.0-67.0-1.0,null,,,<p></p>,null,,,,,,,,,,,
,do_trial,116,467954,0.0-68.0-0.0,1572.7999999523163,,,,,,49,1,0,1,0,coast,17,0.6079084594617092,0.2714572559871829,0.24117438346359524,1,learn
,html-keyboard-response,117,468955,0.0-68.0-1.0,null,,,<p></p>,null,,,,,,,,,,,
,do_trial,118,472869,0.0-69.0-0.0,1408.1000000238419,,,,,,49,1,0,1,0,coast,18,0.5028668010635711,0.3323017206272013,0.15214554483939677,1,learn
,html-keyboard-response,119,473871,0.0-69.0-1.0,null,,,<p></p>,null,,,,,,,,,,,
,do_trial,120,477368,0.0-70.0-0.0,993.3999999761581,,,,,,51,1,0,0,0,coast,19,0.4947878871167356,0.36280485462948514,0.08150179833246682,0,learn
,html-keyboard-response,121,478369,0.0-70.0-1.0,null,,,<p></p>,null,,,,,,,,,,,
,do_trial,122,481209,0.0-71.0-0.0,333.60000002384186,,,,,,50,1,0,0,0,coast,20,0.5156883600978499,0.2823039945387336,0.05898589962736978,0,learn
,html-keyboard-response,123,482210,0.0-71.0-1.0,null,,,<p></p>,null,,,,,,,,,,,
,do_trial,124,485829,0.0-72.0-0.0,1113.7999999523163,,,,,,51,0,0,0,0,coast,21,0.4757106238558729,0.24809602805687012,0.17334545874616486,0,learn
,html-keyboard-response,125,486830,0.0-72.0-1.0,null,,,<p></p>,null,,,,,,,,,,,
,do_trial,126,489748,0.0-73.0-0.0,412.89999997615814,,,,,,49,0,0,1,0,coast,22,0.5283765366363318,0.2184905287200891,0.38531540788367985,0,learn
,html-keyboard-response,127,490749,0.0-73.0-1.0,null,,,<p></p>,null,,,,,,,,,,,
,do_trial,128,494018,0.0-74.0-0.0,763.7999999523163,,,,,,50,0,1,1,0,coast,23,0.4878400308038859,0.27358865556043804,0.3152844031605876,1,learn
,html-keyboard-response,129,495020,0.0-74.0-1.0,null,,,<p></p>,null,,,,,,,,,,,
,do_trial,130,498533,0.0-75.0-0.0,1007.8000000715256,,,,,,50,1,1,0,0,coast,24,0.6459651780831495,0.2325974913361047,0.19568283913423692,1,learn
,html-keyboard-response,131,499535,0.0-75.0-1.0,null,,,<p></p>,null,,,,,,,,,,,
,do_trial,132,502888,0.0-76.0-0.0,847.6000000238419,,,,,,51,0,1,0,0,coast,25,0.6098915613493785,0.25937421473762123,0.1751643070962253,0,learn
,html-keyboard-response,133,503889,0.0-76.0-1.0,null,,,<p></p>,null,,,,,,,,,,,
,do_trial,134,506719,0.0-77.0-0.0,324.5,,,,,,49,1,1,0,0,coast,26,0.6941938842682512,0.3058479727637495,0.09282328011171144,1,learn
,html-keyboard-response,135,507721,0.0-77.0-1.0,null,,,<p></p>,null,,,,,,,,,,,
,do_trial,136,511298,0.0-78.0-0.0,1072.3999999761581,,,,,,50,1,0,0,0,coast,27,0.49033352477563774,0.31299760565282064,0.1426636606713659,0,learn
,html-keyboard-response,137,512300,0.0-78.0-1.0,null,,,<p></p>,null,,,,,,,,,,,
,do_trial,138,515096,0.0-79.0-0.0,290.89999997615814,,,,,,51,1,1,0,0,coast,28,0.6015683994330088,0.380228968448115,0.12766275804809657,0,learn
,html-keyboard-response,139,516099,0.0-79.0-1.0,null,,,<p></p>,null,,,,,,,,,,,
,do_trial,140,518888,0.0-80.0-0.0,285,,,,,,51,1,1,1,0,coast,29,0.64766491949633,0.38692752488719,0.20554640225625612,1,learn
,html-keyboard-response,141,519890,0.0-80.0-1.0,null,,,<p></p>,null,,,,,,,,,,,
,do_bye,142,521397,0.0-81.0-0.0,null,,,,,,null,,,,,,,,,
,do_travel,143,530400,0.0-82.0-0.0,null,,,,,,null,,,,,,,,,
,do_welcome,144,534414,0.0-82.0-1.0,null,,,,,,null,,,,,,,,,
,do_trial,145,538225,0.0-83.0-0.0,1305.2999999523163,,,,,,50,1,1,1,1,highway,30,1,0.3840126199786187,0.17816061814515557,1,learn
,html-keyboard-response,146,539227,0.0-83.0-1.0,null,,,<p></p>,null,,,,,,,,,,,
,do_trial,147,542379,0.0-84.0-0.0,647.2000000476837,,,,,,51,1,0,0,1,highway,31,1,0.30252626949742334,0.06882413822820321,0,learn
,html-keyboard-response,148,543381,0.0-84.0-1.0,null,,,<p></p>,null,,,,,,,,,,,
,do_trial,149,546188,0.0-85.0-0.0,301.8000000715256,,,,,,51,1,0,0,1,highway,32,1,0.2520020957384578,0.057746102705459476,0,learn
,html-keyboard-response,150,547190,0.0-85.0-1.0,null,,,<p></p>,null,,,,,,,,,,,
,do_trial,151,550073,0.0-86.0-0.0,376.5,,,,,,50,1,0,0,1,highway,33,0.8155621063631965,0.256186085576478,0.11900477600885527,0,learn
,html-keyboard-response,152,551075,0.0-86.0-1.0,null,,,<p></p>,null,,,,,,,,,,,
,do_trial,153,553817,0.0-87.0-0.0,237.20000004768372,,,,,,49,1,0,0,1,highway,34,0.8006817670327206,0.21336047605931516,0.2008112113935021,1,learn
,html-keyboard-response,154,554819,0.0-87.0-1.0,null,,,<p></p>,null,,,,,,,,,,,
,do_trial,155,557836,0.0-88.0-0.0,510.8000000715256,,,,,,50,1,0,0,1,highway,35,0.7875765304450333,0.37975238224007785,0.21148662530721016,0,learn
,html-keyboard-response,156,558838,0.0-88.0-1.0,null,,,<p></p>,null,,,,,,,,,,,
,do_trial,157,561575,0.0-89.0-0.0,232.09999990463257,,,,,,49,1,0,0,1,highway,36,0.6249570050280032,0.25262276217641727,0.32471402581049846,1,learn
,html-keyboard-response,158,562575,0.0-89.0-1.0,null,,,<p></p>,null,,,,,,,,,,,
,do_trial,159,565555,0.0-90.0-0.0,474.39999997615814,,,,,,49,1,0,0,1,highway,37,0.7133499884010308,0.26904745134514185,0.35210067370783843,1,learn
,html-keyboard-response,160,566556,0.0-90.0-1.0,null,,,<p></p>,null,,,,,,,,,,,
,do_trial,161,569505,0.0-91.0-0.0,443.6999999284744,,,,,,49,1,0,0,1,highway,38,0.6845323258961236,0.25913480902109615,0.34044203772696313,1,learn
,html-keyboard-response,162,570507,0.0-91.0-1.0,null,,,<p></p>,null,,,,,,,,,,,
,do_trial,163,573414,0.0-92.0-0.0,401.2000000476837,,,,,,49,1,0,0,1,highway,39,0.5473552764085253,0.19368570884843686,0.1289816863145436,1,learn
,html-keyboard-response,164,574416,0.0-92.0-1.0,null,,,<p></p>,null,,,,,,,,,,,
,do_trial,165,577226,0.0-93.0-0.0,304.39999997615814,,,,,,49,1,1,0,1,highway,40,0.46757822359141216,0.36418007645480743,0.20007771323848977,1,learn
,html-keyboard-response,166,578228,0.0-93.0-1.0,null,,,<p></p>,null,,,,,,,,,,,
,do_trial,167,581211,0.0-94.0-0.0,478.2999999523163,,,,,,49,1,1,1,1,highway,41,0.4554867977203807,0.3983233743367455,0.19733802124798885,1,learn
,html-keyboard-response,168,582214,0.0-94.0-1.0,null,,,<p></p>,null,,,,,,,,,,,
,do_trial,169,585230,0.0-95.0-0.0,502.5,,,,,,49,0,1,0,1,highway,42,0.38552373784151855,0.5839390257392865,0.0647913716137395,0,learn
,html-keyboard-response,170,586231,0.0-95.0-1.0,null,,,<p></p>,null,,,,,,,,,,,
,do_trial,171,589233,0.0-96.0-0.0,497.10000002384186,,,,,,51,1,1,0,1,highway,43,0.5157808184835668,0.6263010114904681,0.134553197896881,0,learn
,html-keyboard-response,172,590237,0.0-96.0-1.0,null,,,<p></p>,null,,,,,,,,,,,
,do_trial,173,593161,0.0-97.0-0.0,419.3000000715256,,,,,,51,0,1,0,1,highway,44,0.3555330804571928,0.6934223128717042,0.21652586148217928,0,learn
,html-keyboard-response,174,594163,0.0-97.0-1.0,null,,,<p></p>,null,,,,,,,,,,,
,do_trial,175,596963,0.0-98.0-0.0,296.3000000715256,,,,,,50,0,1,0,1,highway,45,0.18395720507705007,0.6710802629076789,0.19562548232968527,1,learn
,html-keyboard-response,176,597965,0.0-98.0-1.0,null,,,<p></p>,null,,,,,,,,,,,
,do_trial,177,600764,0.0-99.0-0.0,295.89999997615814,,,,,,50,1,0,0,1,highway,46,0.29068034181988844,0.5719304170743149,0.2173423007287958,0,learn
,html-keyboard-response,178,601765,0.0-99.0-1.0,null,,,<p></p>,null,,,,,,,,,,,
,do_trial,179,604483,0.0-100.0-0.0,213.20000004768372,,,,,,49,0,0,1,1,highway,47,0.38365845568137674,0.6082198265363985,0.3670019129969577,0,learn
,html-keyboard-response,180,605485,0.0-100.0-1.0,null,,,<p></p>,null,,,,,,,,,,,
,do_trial,181,608473,0.0-101.0-0.0,484,,,,,,51,1,1,0,1,highway,48,0.3563706330612972,0.6693914545346162,0.13883989378270314,0,learn
,html-keyboard-response,182,609474,0.0-101.0-1.0,null,,,<p></p>,null,,,,,,,,,,,
,do_trial,183,612380,0.0-102.0-0.0,401,,,,,,50,1,1,0,1,highway,49,0.3305961542037641,0.6401271262663955,0.1059179356591574,1,learn
,html-keyboard-response,184,613381,0.0-102.0-1.0,null,,,<p></p>,null,,,,,,,,,,,
,do_trial,185,616770,0.0-103.0-0.0,884.8999999761581,,,,,,50,0,1,1,1,highway,50,0.3487927953907194,0.6675695032734905,0.09637312234884787,1,learn
,html-keyboard-response,186,617771,0.0-103.0-1.0,null,,,<p></p>,null,,,,,,,,,,,
,do_trial,187,620678,0.0-104.0-0.0,393.3000000715256,,,,,,50,0,0,0,1,highway,51,0.3071680524131719,0.5789401609552733,0.08531583413092855,0,learn
,html-keyboard-response,188,621680,0.0-104.0-1.0,null,,,<p></p>,null,,,,,,,,,,,
,do_trial,189,624474,0.0-105.0-0.0,290.39999997615814,,,,,,51,0,1,0,1,highway,52,0.3875555710204683,0.5943886841637813,0.1609995336429184,0,learn
,html-keyboard-response,190,625477,0.0-105.0-1.0,null,,,<p></p>,null,,,,,,,,,,,
,do_trial,191,628277,0.0-106.0-0.0,295.10000002384186,,,,,,50,0,1,0,1,highway,53,0.28573867727097546,0.6380757970095151,0.1773136966883817,1,learn
,html-keyboard-response,192,629280,0.0-106.0-1.0,null,,,<p></p>,null,,,,,,,,,,,
,do_trial,193,632103,0.0-107.0-0.0,318.10000002384186,,,,,,50,0,1,1,1,highway,54,0.4268339062710011,0.6958182747698903,0.22145738573512522,1,learn
,html-keyboard-response,194,633105,0.0-107.0-1.0,null,,,<p></p>,null,,,,,,,,,,,
,do_trial,195,635998,0.0-108.0-0.0,387.1999999284744,,,,,,50,0,1,0,1,highway,55,0.3903702767062662,0.7326231502691544,0.17280844001725096,1,learn
,html-keyboard-response,196,637001,0.0-108.0-1.0,null,,,<p></p>,null,,,,,,,,,,,
,do_trial,197,639769,0.0-109.0-0.0,263.1999999284744,,,,,,50,0,0,0,1,highway,56,0.43081429691966733,0.6407586608947201,0.07976884988433032,0,learn
,html-keyboard-response,198,640770,0.0-109.0-1.0,null,,,<p></p>,null,,,,,,,,,,,
,do_trial,199,643498,0.0-110.0-0.0,221.30000007152557,,,,,,49,0,1,0,1,highway,57,0.28702883168377474,0.5567565198884212,0.0520584057337905,0,learn
,html-keyboard-response,200,644501,0.0-110.0-1.0,null,,,<p></p>,null,,,,,,,,,,,
,do_trial,201,647313,0.0-111.0-0.0,307.40000009536743,,,,,,51,0,1,0,1,highway,58,0.26832282538311497,0.6261079251633264,0.16573513208745919,0,learn
,html-keyboard-response,202,648315,0.0-111.0-1.0,null,,,<p></p>,null,,,,,,,,,,,
,do_trial,203,651091,0.0-112.0-0.0,272.10000002384186,,,,,,50,1,1,0,1,highway,59,0.1595662002279037,0.6790270408334272,0.08839008736969467,1,learn
,html-keyboard-response,204,652093,0.0-112.0-1.0,null,,,<p></p>,null,,,,,,,,,,,
,do_trial,205,655026,0.0-113.0-0.0,426.3000000715256,,,,,,50,1,1,0,1,highway,60,0.13643992309408923,0.7595593375253313,0.05807869474752936,1,learn
,html-keyboard-response,206,656028,0.0-113.0-1.0,null,,,<p></p>,null,,,,,,,,,,,
,do_trial,207,658852,0.0-114.0-0.0,318.8000000715256,,,,,,50,0,1,0,1,highway,61,0.22805901986025376,0.7561841001274696,0.07986622411432907,1,learn
,html-keyboard-response,208,659854,0.0-114.0-1.0,null,,,<p></p>,null,,,,,,,,,,,
,do_trial,209,662696,0.0-115.0-0.0,335.8000000715256,,,,,,50,1,1,0,1,highway,62,0.14677163349137554,0.7666476771620763,0.05746204483973287,1,learn
,html-keyboard-response,210,663698,0.0-115.0-1.0,null,,,<p></p>,null,,,,,,,,,,,
,do_trial,211,666576,0.0-116.0-0.0,373.2999999523163,,,,,,50,0,1,0,1,highway,63,0.16201588782074144,0.6437447523204652,0.10782300339862765,1,learn
,html-keyboard-response,212,667579,0.0-116.0-1.0,null,,,<p></p>,null,,,,,,,,,,,
,do_trial,213,670370,0.0-117.0-0.0,287.2000000476837,,,,,,50,0,1,0,1,highway,64,0.31030720417718227,0.6749660484998321,0.08099268477432524,1,learn
,html-keyboard-response,214,671372,0.0-117.0-1.0,null,,,<p></p>,null,,,,,,,,,,,
,do_trial,215,674236,0.0-118.0-0.0,357.7999999523163,,,,,,50,0,0,0,1,highway,65,0.3435461097646104,0.6455890286836372,0.05491680446450192,0,learn
,html-keyboard-response,216,675237,0.0-118.0-1.0,null,,,<p></p>,null,,,,,,,,,,,
,do_trial,217,678419,0.0-119.0-0.0,676.2999999523163,,,,,,51,0,1,0,1,highway,66,0.1784463504262446,0.4466305703735931,0.15214121745291306,0,learn
,html-keyboard-response,218,679421,0.0-119.0-1.0,null,,,<p></p>,null,,,,,,,,,,,
,do_trial,219,682199,0.0-120.0-0.0,274.10000002384186,,,,,,49,0,0,0,1,highway,67,0.21301524814628792,0.43799657955602905,0.10126295609419746,0,learn
,html-keyboard-response,220,683201,0.0-120.0-1.0,null,,,<p></p>,null,,,,,,,,,,,
,do_trial,221,686007,0.0-121.0-0.0,300.5,,,,,,50,0,1,0,1,highway,68,0.23002369581471782,0.5412626390023634,0.11712969548762091,1,learn
,html-keyboard-response,222,687009,0.0-121.0-1.0,null,,,<p></p>,null,,,,,,,,,,,
,do_trial,223,690378,0.0-122.0-0.0,863.6000000238419,,,,,,50,0,0,0,1,highway,69,0.39264686874678495,0.40387943587845954,0.07523487063564904,0,learn
,html-keyboard-response,224,691380,0.0-122.0-1.0,null,,,<p></p>,null,,,,,,,,,,,
,do_bye,225,692887,0.0-123.0-0.0,null,,,,,,null,,,,,,,,,
,do_travel,226,701891,0.0-124.0-0.0,null,,,,,,null,,,,,,,,,
,do_welcome,227,705902,0.0-124.0-1.0,null,,,,,,null,,,,,,,,,
,do_trial,228,709160,0.0-125.0-0.0,746.5,,,,,,51,0,1,0,2,city,70,0.28171117091736164,1,0.10721535331694457,0,learn
,html-keyboard-response,229,710162,0.0-125.0-1.0,null,,,<p></p>,null,,,,,,,,,,,
,do_trial,230,713203,0.0-126.0-0.0,535.5,,,,,,49,0,1,0,2,city,71,0.2910169746508579,1,0.158604264130391,0,learn
,html-keyboard-response,231,714206,0.0-126.0-1.0,null,,,<p></p>,null,,,,,,,,,,,
,do_trial,232,717007,0.0-127.0-0.0,299.2000000476837,,,,,,51,1,1,0,2,city,72,0.3128532135801621,0.7567797382627193,0.14708118592519429,0,learn
,html-keyboard-response,233,718009,0.0-127.0-1.0,null,,,<p></p>,null,,,,,,,,,,,
,do_trial,234,720787,0.0-128.0-0.0,274,,,,,,50,1,0,1,2,city,73,0.35039829228457187,0.693934717921506,0.22399246959272784,0,learn
,html-keyboard-response,235,721788,0.0-128.0-1.0,null,,,<p></p>,null,,,,,,,,,,,
,do_trial,236,725007,0.0-129.0-0.0,715,,,,,,49,0,1,0,2,city,74,0.3348393505188185,0.6164684047166042,0.1633311583569119,0,learn
,html-keyboard-response,237,726009,0.0-129.0-1.0,null,,,<p></p>,null,,,,,,,,,,,
,do_trial,238,728919,0.0-130.0-0.0,405.10000002384186,,,,,,50,1,0,0,2,city,75,0.4586888476827061,0.6012349789251958,0.05034616155539611,0,learn
,html-keyboard-response,239,729921,0.0-130.0-1.0,null,,,<p></p>,null,,,,,,,,,,,
,do_trial,240,732642,0.0-131.0-0.0,217.20000004768372,,,,,,51,0,1,0,2,city,76,0.3632843404068373,0.5469529562241394,0.0557617408111941,0,learn
,html-keyboard-response,241,733643,0.0-131.0-1.0,null,,,<p></p>,null,,,,,,,,,,,
,do_trial,242,736525,0.0-132.0-0.0,378,,,,,,50,0,0,0,2,city,77,0.4775263544829596,0.5541862321166836,0.05003764104844976,0,learn
,html-keyboard-response,243,737527,0.0-132.0-1.0,null,,,<p></p>,null,,,,,,,,,,,
,do_trial,244,740281,0.0-133.0-0.0,249.89999997615814,,,,,,51,1,0,0,2,city,78,0.4607183253241935,0.4605483034923897,0.22281278887867245,0,learn
,html-keyboard-response,245,741282,0.0-133.0-1.0,null,,,<p></p>,null,,,,,,,,,,,
,do_trial,246,744521,0.0-134.0-0.0,730.8000000715256,,,,,,51,1,0,1,2,city,79,0.5116740914062669,0.391231184272419,0.08433560055682236,1,learn
,html-keyboard-response,247,745522,0.0-134.0-1.0,null,,,<p></p>,null,,,,,,,,,,,
,do_trial,248,748293,0.0-135.0-0.0,266.2999999523163,,,,,,51,1,1,1,2,city,80,0.4919350484104529,0.4250094313679501,0.14228950328325982,1,learn
,html-keyboard-response,249,749294,0.0-135.0-1.0,null,,,<p></p>,null,,,,,,,,,,,
,do_trial,250,752097,0.0-136.0-0.0,298.60000002384186,,,,,,51,1,1,0,2,city,81,0.3894203458040599,0.3955412148059093,0.12870864901203352,0,learn
,html-keyboard-response,251,753098,0.0-136.0-1.0,null,,,<p></p>,null,,,,,,,,,,,
,do_trial,252,755926,0.0-137.0-0.0,322.2999999523163,,,,,,49,1,0,0,2,city,82,0.35554506262526386,0.28666408572533914,0.2419416288328755,1,learn
,html-keyboard-response,253,756928,0.0-137.0-1.0,null,,,<p></p>,null,,,,,,,,,,,
,do_trial,254,759856,0.0-138.0-0.0,423.10000002384186,,,,,,49,0,0,0,2,city,83,0.2387861279006906,0.2738179384489079,0.4010559335598248,0,learn
,html-keyboard-response,255,760857,0.0-138.0-1.0,null,,,<p></p>,null,,,,,,,,,,,
,do_trial,256,763597,0.0-139.0-0.0,235,,,,,,51,1,0,1,2,city,84,0.20010832730357095,0.23191058858513006,0.5329098382960146,1,learn
,html-keyboard-response,257,764600,0.0-139.0-1.0,null,,,<p></p>,null,,,,,,,,,,,
,do_trial,258,767935,0.0-140.0-0.0,830.1000000238419,,,,,,51,0,0,0,2,city,85,0.11135539058674904,0.19724353425658794,0.5350598103262716,0,learn
,html-keyboard-response,259,768937,0.0-140.0-1.0,null,,,<p></p>,null,,,,,,,,,,,
,do_trial,260,771715,0.0-141.0-0.0,274.2000000476837,,,,,,50,0,1,1,2,city,86,0.05952080738196236,0.25759688983279105,0.5496060180531601,1,learn
,html-keyboard-response,261,772717,0.0-141.0-1.0,null,,,<p></p>,null,,,,,,,,,,,
,do_trial,262,775588,0.0-142.0-0.0,366.7999999523163,,,,,,51,0,0,0,2,city,87,0.15653237942442388,0.277720234448006,0.5348819385399649,0,learn
,html-keyboard-response,263,776591,0.0-142.0-1.0,null,,,<p></p>,null,,,,,,,,,,,
,do_trial,264,779378,0.0-143.0-0.0,281.89999997615814,,,,,,50,0,0,1,2,city,88,0.0777590150172148,0.338521634274142,0.521469624941425,0,learn
,html-keyboard-response,265,780380,0.0-143.0-1.0,null,,,<p></p>,null,,,,,,,,,,,
,do_trial,266,783193,0.0-144.0-0.0,309.1999999284744,,,,,,51,0,1,0,2,city,89,0.23664574571531358,0.3020107600396603,0.32604134723145,0,learn
,html-keyboard-response,267,784194,0.0-144.0-1.0,null,,,<p></p>,null,,,,,,,,,,,
,do_trial,268,786942,0.0-145.0-0.0,242.5,,,,,,49,0,0,1,2,city,90,0.24548817737810738,0.22670797228927292,0.4019268699891433,0,learn
,html-keyboard-response,269,787944,0.0-145.0-1.0,null,,,<p></p>,null,,,,,,,,,,,
,do_trial,270,791066,0.0-146.0-0.0,616.7999999523163,,,,,,49,0,0,1,2,city,91,0.0881190110513073,0.10136315638591986,0.5895709529381398,0,learn
,html-keyboard-response,271,792068,0.0-146.0-1.0,null,,,<p></p>,null,,,,,,,,,,,
,do_trial,272,794867,0.0-147.0-0.0,294.89999997615814,,,,,,51,0,0,1,2,city,92,0.06677723908743972,0.12708525201139273,0.5994312195020538,1,learn
,html-keyboard-response,273,795869,0.0-147.0-1.0,null,,,<p></p>,null,,,,,,,,,,,
,do_trial,274,798644,0.0-148.0-0.0,270.39999997615814,,,,,,51,0,0,1,2,city,93,0.053402038773831574,0.11257996503447947,0.5846092686149033,1,learn
,html-keyboard-response,275,799646,0.0-148.0-1.0,null,,,<p></p>,null,,,,,,,,,,,
,do_trial,276,803584,0.0-149.0-0.0,1433.6999999284744,,,,,,51,1,0,0,2,city,94,0.24118504930095747,0.10575838988007913,0.6102228870989508,0,learn
,html-keyboard-response,277,804587,0.0-149.0-1.0,null,,,<p></p>,null,,,,,,,,,,,
,do_trial,278,807700,0.0-150.0-0.0,608.3999999761581,,,,,,50,0,0,1,2,city,95,0.19087912060548864,0.18066546770311573,0.6887594314962863,0,learn
,html-keyboard-response,279,808701,0.0-150.0-1.0,null,,,<p></p>,null,,,,,,,,,,,
,do_trial,280,811642,0.0-151.0-0.0,433.5,,,,,,51,0,0,0,2,city,96,0.22015594525462387,0.15649655963707887,0.7345927695958673,0,learn
,html-keyboard-response,281,812644,0.0-151.0-1.0,null,,,<p></p>,null,,,,,,,,,,,
,do_trial,282,816779,0.0-152.0-0.0,1628.5,,,,,,49,0,0,1,2,city,97,0.08281814642729188,0.1226877893800351,0.6761296630600852,0,learn
,html-keyboard-response,283,817782,0.0-152.0-1.0,null,,,<p></p>,null,,,,,,,,,,,
,do_trial,284,820946,0.0-153.0-0.0,660.2999999523163,,,,,,50,0,1,0,2,city,98,0.17168083958030675,0.2636307032735454,0.5614104511823912,1,learn
,html-keyboard-response,285,821948,0.0-153.0-1.0,null,,,<p></p>,null,,,,,,,,,,,
,do_trial,286,824791,0.0-154.0-0.0,338.1999999284744,,,,,,50,0,0,0,2,city,99,0.07345100012679201,0.16941663317207933,0.6028775523251021,0,learn
,html-keyboard-response,287,825793,0.0-154.0-1.0,null,,,<p></p>,null,,,,,,,,,,,
,do_trial,288,828733,0.0-155.0-0.0,435.7999999523163,,,,,,49,0,0,0,2,city,100,0.1785772356191137,0.22099837896729277,0.6257753069536163,0,learn
,html-keyboard-response,289,829736,0.0-155.0-1.0,null,,,<p></p>,null,,,,,,,,,,,
,do_trial,290,833085,0.0-156.0-0.0,843.3999999761581,,,,,,49,1,1,1,2,city,101,0.10698940344348437,0.2748396898462395,0.6728333396907678,1,learn
,html-keyboard-response,291,834087,0.0-156.0-1.0,null,,,<p></p>,null,,,,,,,,,,,
,do_trial,292,836836,0.0-157.0-0.0,244.79999995231628,,,,,,51,0,0,1,2,city,102,0.12126574200967567,0.34143045778572256,0.7726630634154904,1,learn
,html-keyboard-response,293,837839,0.0-157.0-1.0,null,,,<p></p>,null,,,,,,,,,,,
,do_trial,294,840581,0.0-158.0-0.0,235.30000007152557,,,,,,50,0,1,0,2,city,103,0.22106473105047408,0.38146447323058397,0.736357356169366,1,learn
,html-keyboard-response,295,841583,0.0-158.0-1.0,null,,,<p></p>,null,,,,,,,,,,,
,do_trial,296,844352,0.0-159.0-0.0,253.29999995231628,,,,,,49,0,0,0,2,city,104,0.2838392432228863,0.23616373451170133,0.585587223404416,0,learn
,html-keyboard-response,297,845354,0.0-159.0-1.0,null,,,<p></p>,null,,,,,,,,,,,
,do_trial,298,848531,0.0-160.0-0.0,672,,,,,,49,0,0,1,2,city,105,0.1389876353294699,0.3163635192640701,0.5660468744908678,0,learn
,html-keyboard-response,299,849533,0.0-160.0-1.0,null,,,<p></p>,null,,,,,,,,,,,
,do_trial,300,852245,0.0-161.0-0.0,208,,,,,,50,0,1,1,2,city,106,0.194863275861136,0.36982654561581335,0.5567794757756478,1,learn
,html-keyboard-response,301,853248,0.0-161.0-1.0,null,,,<p></p>,null,,,,,,,,,,,
,do_trial,302,855777,0.0-162.0-0.0,24.90000009536743,,,,,,50,1,1,1,2,city,107,0.09664284332869376,0.49565865220481076,0.49956930394429294,1,learn
,html-keyboard-response,303,856779,0.0-162.0-1.0,null,,,<p></p>,null,,,,,,,,,,,
,do_trial,304,859687,0.0-163.0-0.0,399.6999999284744,,,,,,50,0,1,1,2,city,108,0.09611377788523875,0.37173143878049464,0.5753240609702915,1,learn
,html-keyboard-response,305,860689,0.0-163.0-1.0,null,,,<p></p>,null,,,,,,,,,,,
,do_trial,306,863542,0.0-164.0-0.0,347.7999999523163,,,,,,50,0,1,0,2,city,109,0.12021662173154266,0.351771720907383,0.5206948032055333,1,learn
,html-keyboard-response,307,864545,0.0-164.0-1.0,null,,,<p></p>,null,,,,,,,,,,,
,do_bye,308,866050,0.0-165.0-0.0,null,,,,,,null,,,,,,,,,
,do_travel,309,875056,0.0-166.0-0.0,null,,,,,,null,,,,,,,,,
,do_welcome,310,879073,0.0-166.0-1.0,null,,,,,,null,,,,,,,,,
,do_trial,311,882870,0.0-167.0-0.0,1292.6000000238419,,,,,,51,0,0,1,3,countryside,110,0.0669555168885098,0.42641014954693873,1,1,learn
,html-keyboard-response,312,883872,0.0-167.0-1.0,null,,,<p></p>,null,,,,,,,,,,,
,do_trial,313,887318,0.0-168.0-0.0,941.6000000238419,,,,,,49,1,0,1,3,countryside,111,0.11319732348279107,0.37680280042331893,1,1,learn
,html-keyboard-response,314,888321,0.0-168.0-1.0,null,,,<p></p>,null,,,,,,,,,,,
,do_trial,315,891382,0.0-169.0-0.0,555,,,,,,50,0,0,1,3,countryside,112,0.10302263442414006,0.3479365456001762,0.857245627281576,0,learn
,html-keyboard-response,316,892384,0.0-169.0-1.0,null,,,<p></p>,null,,,,,,,,,,,
,do_trial,317,895127,0.0-170.0-0.0,237.19999992847443,,,,,,51,1,0,1,3,countryside,113,0.10219585668174455,0.4385887322354277,0.7376908621467749,1,learn
,html-keyboard-response,318,896129,0.0-170.0-1.0,null,,,<p></p>,null,,,,,,,,,,,
,do_trial,319,899253,0.0-171.0-0.0,620.2000000476837,,,,,,49,0,0,1,3,countryside,114,0.2052041577849571,0.3979555193246336,0.523639631273551,0,learn
,html-keyboard-response,320,900255,0.0-171.0-1.0,null,,,<p></p>,null,,,,,,,,,,,
,do_trial,321,903359,0.0-172.0-0.0,598.2000000476837,,,,,,50,0,1,1,3,countryside,115,0.2952678018676638,0.206905207201725,0.5076946934347698,1,learn
,html-keyboard-response,322,904361,0.0-172.0-1.0,null,,,<p></p>,null,,,,,,,,,,,
,do_trial,323,908121,0.0-173.0-0.0,1254.5,,,,,,51,0,0,1,3,countryside,116,0.20986923845637975,0.2751853739003156,0.700102018545042,1,learn
,html-keyboard-response,324,909123,0.0-173.0-1.0,null,,,<p></p>,null,,,,,,,,,,,
,do_trial,325,912759,0.0-174.0-0.0,1133.2000000476837,,,,,,49,0,0,0,3,countryside,117,0.23984668918980284,0.3438917146364507,0.6612724760825427,0,learn
,html-keyboard-response,326,913760,0.0-174.0-1.0,null,,,<p></p>,null,,,,,,,,,,,
,do_trial,327,916638,0.0-175.0-0.0,372.6999999284744,,,,,,50,0,0,0,3,countryside,118,0.10994174663099998,0.32193742858583174,0.6175806181149016,0,learn
,html-keyboard-response,328,917640,0.0-175.0-1.0,null,,,<p></p>,null,,,,,,,,,,,
,do_trial,329,920384,0.0-176.0-0.0,233.69999992847443,,,,,,49,0,0,1,3,countryside,119,0.1765127493670812,0.2686321221076258,0.6951143562056272,0,learn
,html-keyboard-response,330,921386,0.0-176.0-1.0,null,,,<p></p>,null,,,,,,,,,,,
,do_trial,331,924821,0.0-177.0-0.0,930.6000000238419,,,,,,49,1,1,0,3,countryside,120,0.2196625153585086,0.1640091378809533,0.6922398598062597,1,learn
,html-keyboard-response,332,925823,0.0-177.0-1.0,null,,,<p></p>,null,,,,,,,,,,,
,do_trial,333,928614,0.0-178.0-0.0,284.7999999523163,,,,,,51,0,1,1,3,countryside,121,0.3188740736562367,0.23642469429361943,0.598317491731409,1,learn
,html-keyboard-response,334,929616,0.0-178.0-1.0,null,,,<p></p>,null,,,,,,,,,,,
,do_trial,335,932581,0.0-179.0-0.0,460.6999999284744,,,,,,50,1,0,1,3,countryside,122,0.383541508071349,0.2781751918277758,0.44730567722710546,0,learn
,html-keyboard-response,336,933583,0.0-179.0-1.0,null,,,<p></p>,null,,,,,,,,,,,
,do_trial,337,936756,0.0-180.0-0.0,667.2999999523163,,,,,,50,0,0,1,3,countryside,123,0.38295302442182083,0.36059392571567844,0.38132677568153034,0,learn
,html-keyboard-response,338,937758,0.0-180.0-1.0,null,,,<p></p>,null,,,,,,,,,,,
,do_trial,339,940878,0.0-181.0-0.0,616.7000000476837,,,,,,51,0,0,0,3,countryside,124,0.49907550812647616,0.28217736563047646,0.16247589080019414,0,learn
,html-keyboard-response,340,941881,0.0-181.0-1.0,null,,,<p></p>,null,,,,,,,,,,,
,do_trial,341,944628,0.0-182.0-0.0,241.30000007152557,,,,,,49,0,0,0,3,countryside,125,0.48574114097356386,0.23920134193895023,0.14674235194409135,0,learn
,html-keyboard-response,342,945630,0.0-182.0-1.0,null,,,<p></p>,null,,,,,,,,,,,
,do_trial,343,948355,0.0-183.0-0.0,220.20000004768372,,,,,,51,1,0,0,3,countryside,126,0.5745231792630879,0.24334930908652347,0.06727195627252967,0,learn
,html-keyboard-response,344,949357,0.0-183.0-1.0,null,,,<p></p>,null,,,,,,,,,,,
,do_trial,345,952127,0.0-184.0-0.0,264.7999999523163,,,,,,50,0,0,0,3,countryside,127,0.4926557642132151,0.2382760318908114,0.1290628849077388,0,learn
,html-keyboard-response,346,953129,0.0-184.0-1.0,null,,,<p></p>,null,,,,,,,,,,,
,do_trial,347,955882,0.0-185.0-0.0,248.79999995231628,,,,,,50,1,0,0,3,countryside,128,0.5816246749404953,0.4601250472713387,0.05844566272803608,0,learn
,html-keyboard-response,348,956884,0.0-185.0-1.0,null,,,<p></p>,null,,,,,,,,,,,
,do_trial,349,959655,0.0-186.0-0.0,265.6999999284744,,,,,,50,1,0,0,3,countryside,129,0.6098309785052376,0.3657571854353274,0.09366571762554889,0,learn
,html-keyboard-response,350,960657,0.0-186.0-1.0,null,,,<p></p>,null,,,,,,,,,,,
,do_trial,351,963735,0.0-187.0-0.0,572.5,,,,,,50,0,1,0,3,countryside,130,0.5640235772894653,0.21923341428063683,0.0913265155231572,1,learn
,html-keyboard-response,352,964736,0.0-187.0-1.0,null,,,<p></p>,null,,,,,,,,,,,
,do_trial,353,967470,0.0-188.0-0.0,228.69999992847443,,,,,,50,0,0,0,3,countryside,131,0.6518632631105237,0.30894926290118524,0.05928729789284015,0,learn
,html-keyboard-response,354,968471,0.0-188.0-1.0,null,,,<p></p>,null,,,,,,,,,,,
,do_trial,355,971207,0.0-189.0-0.0,231.19999992847443,,,,,,50,1,0,0,3,countryside,132,0.5684608935466606,0.34238381203463036,0.10195391257599579,0,learn
,html-keyboard-response,356,972209,0.0-189.0-1.0,null,,,<p></p>,null,,,,,,,,,,,
,do_trial,357,975267,0.0-190.0-0.0,553.3000000715256,,,,,,49,1,0,0,3,countryside,133,0.7849978473861552,0.23598218531769782,0.06558142861551411,1,learn
,html-keyboard-response,358,976270,0.0-190.0-1.0,null,,,<p></p>,null,,,,,,,,,,,
,do_trial,359,980731,0.0-191.0-0.0,1956.5,,,,,,49,1,1,0,3,countryside,134,0.8047079320192165,0.3178379961703043,0.05971563581063087,1,learn
,html-keyboard-response,360,981732,0.0-191.0-1.0,null,,,<p></p>,null,,,,,,,,,,,
,do_trial,361,984539,0.0-192.0-0.0,302.7999999523163,,,,,,49,1,0,0,3,countryside,135,0.7476515112924329,0.18561871777286723,0.15101563748703425,1,learn
,html-keyboard-response,362,985541,0.0-192.0-1.0,null,,,<p></p>,null,,,,,,,,,,,
,do_trial,363,988354,0.0-193.0-0.0,308.10000002384186,,,,,,49,1,0,0,3,countryside,136,0.6743633488529496,0.203501220863342,0.18051156004496186,1,learn
,html-keyboard-response,364,989356,0.0-193.0-1.0,null,,,<p></p>,null,,,,,,,,,,,
,do_trial,365,992106,0.0-194.0-0.0,245.70000004768372,,,,,,49,1,0,0,3,countryside,137,0.6242438719312103,0.3122942458870924,0.12503988958975726,1,learn
,html-keyboard-response,366,993108,0.0-194.0-1.0,null,,,<p></p>,null,,,,,,,,,,,
,do_trial,367,995869,0.0-195.0-0.0,255,,,,,,49,0,0,1,3,countryside,138,0.6391952818360823,0.3404683064644597,0.13720910408682743,0,learn
,html-keyboard-response,368,996872,0.0-195.0-1.0,null,,,<p></p>,null,,,,,,,,,,,
,do_trial,369,1000016,0.0-196.0-0.0,639.2999999523163,,,,,,50,0,0,0,3,countryside,139,0.674051735030761,0.12451078183184944,0.05736171318160536,0,learn
,html-keyboard-response,370,1001017,0.0-196.0-1.0,null,,,<p></p>,null,,,,,,,,,,,
,do_trial,371,1003731,0.0-197.0-0.0,209.5,,,,,,51,1,0,0,3,countryside,140,0.5804360704177236,0.1596451912574898,0.12690554974225354,0,learn
,html-keyboard-response,372,1004733,0.0-197.0-1.0,null,,,<p></p>,null,,,,,,,,,,,
,do_trial,373,1007428,0.0-198.0-0.0,190.60000002384186,,,,,,49,0,0,0,3,countryside,141,0.5648562692813512,0.29674829337551384,0.09275968505460953,0,learn
,html-keyboard-response,374,1008431,0.0-198.0-1.0,null,,,<p></p>,null,,,,,,,,,,,
,do_trial,375,1011153,0.0-199.0-0.0,217.5,,,,,,49,0,0,0,3,countryside,142,0.5003752404428303,0.3137781811371513,0.112165749218128,0,learn
,html-keyboard-response,376,1012155,0.0-199.0-1.0,null,,,<p></p>,null,,,,,,,,,,,
,do_trial,377,1015046,0.0-200.0-0.0,386.59999990463257,,,,,,49,1,0,0,3,countryside,143,0.6280173218059497,0.3142582724939876,0.1302712437627857,1,learn
,html-keyboard-response,378,1016048,0.0-200.0-1.0,null,,,<p></p>,null,,,,,,,,,,,
,do_trial,379,1018783,0.0-201.0-0.0,230.59999990463257,,,,,,49,1,0,0,3,countryside,144,0.5815108707529358,0.17160740665733493,0.1011574786392665,1,learn
,html-keyboard-response,380,1019785,0.0-201.0-1.0,null,,,<p></p>,null,,,,,,,,,,,
,do_trial,381,1022535,0.0-202.0-0.0,248,,,,,,49,0,0,0,3,countryside,145,0.638723037395221,0.09758391905389513,0.16478629627727231,0,learn
,html-keyboard-response,382,1023536,0.0-202.0-1.0,null,,,<p></p>,null,,,,,,,,,,,
,do_trial,383,1026270,0.0-203.0-0.0,228,,,,,,49,0,0,1,3,countryside,146,0.7548952195616668,0.26883617542502114,0.07764569597575328,0,learn
,html-keyboard-response,384,1027272,0.0-203.0-1.0,null,,,<p></p>,null,,,,,,,,,,,
,do_trial,385,1030004,0.0-204.0-0.0,225.5,,,,,,49,1,1,0,3,countryside,147,0.634081867622136,0.3460424049511949,0.10298836434989186,1,learn
,html-keyboard-response,386,1031006,0.0-204.0-1.0,null,,,<p></p>,null,,,,,,,,,,,
,do_trial,387,1033703,0.0-205.0-0.0,191.70000004768372,,,,,,49,1,1,0,3,countryside,148,0.7496534194773727,0.33758471016780606,0.14280869069286034,1,learn
,html-keyboard-response,388,1034705,0.0-205.0-1.0,null,,,<p></p>,null,,,,,,,,,,,
,do_trial,389,1037447,0.0-206.0-0.0,237.70000004768372,,,,,,49,1,0,0,3,countryside,149,0.8103892510929274,0.3631620438882186,0.06634100737558711,1,learn
,html-keyboard-response,390,1038449,0.0-206.0-1.0,null,,,<p></p>,null,,,,,,,,,,,
,do_bye,391,1039956,0.0-207.0-0.0,null,,,,,,null,,,,,,,,,
,do_travel,392,1048960,0.0-208.0-0.0,null,,,,,,null,,,,,,,,,
,do_welcome,393,1052977,0.0-208.0-1.0,null,,,,,,null,,,,,,,,,
,do_trial,394,1055903,0.0-209.0-0.0,420.3000000715256,,,,,,50,1,1,0,4,mountain,150,1,0.34049552802054045,0.07076766480204763,1,learn
,html-keyboard-response,395,1056905,0.0-209.0-1.0,null,,,<p></p>,null,,,,,,,,,,,
,do_trial,396,1059634,0.0-210.0-0.0,223.60000002384186,,,,,,50,1,0,0,4,mountain,151,1,0.2934169598489794,0.32010971964746193,0,learn
,html-keyboard-response,397,1060637,0.0-210.0-1.0,null,,,<p></p>,null,,,,,,,,,,,
,do_trial,398,1063395,0.0-211.0-0.0,252.89999997615814,,,,,,49,0,1,1,4,mountain,152,0.882062499317653,0.270043829201065,0.32111465881141693,0,learn
,html-keyboard-response,399,1064403,0.0-211.0-1.0,null,,,<p></p>,null,,,,,,,,,,,
,do_trial,400,1067118,0.0-212.0-0.0,210.5,,,,,,49,1,1,0,4,mountain,153,0.7847499171997988,0.2555143254928385,0.14672120247096007,1,learn
,html-keyboard-response,401,1068119,0.0-212.0-1.0,null,,,<p></p>,null,,,,,,,,,,,
,do_trial,402,1070844,0.0-213.0-0.0,220.90000009536743,,,,,,49,1,1,0,4,mountain,154,0.7288196461110893,0.2856860562227053,0.08849528638048774,1,learn
,html-keyboard-response,403,1071846,0.0-213.0-1.0,null,,,<p></p>,null,,,,,,,,,,,
,do_trial,404,1074589,0.0-214.0-0.0,237,,,,,,49,1,0,0,4,mountain,155,0.6386009676024356,0.3787333160207082,0.31836680841362985,1,learn
,html-keyboard-response,405,1075590,0.0-214.0-1.0,null,,,<p></p>,null,,,,,,,,,,,
,do_trial,406,1078422,0.0-215.0-0.0,327.6999999284744,,,,,,49,0,0,0,4,mountain,156,0.7752822571769065,0.4824897992995297,0.3301383113884198,0,learn
,html-keyboard-response,407,1079425,0.0-215.0-1.0,null,,,<p></p>,null,,,,,,,,,,,
,do_trial,408,1082264,0.0-216.0-0.0,335.2000000476837,,,,,,51,1,1,0,4,mountain,157,0.7999084818902867,0.41170961019220237,0.1395998544415029,0,learn
,html-keyboard-response,409,1083265,0.0-216.0-1.0,null,,,<p></p>,null,,,,,,,,,,,
,do_trial,410,1085989,0.0-217.0-0.0,216.70000004768372,,,,,,49,1,0,0,4,mountain,158,0.8028797961918573,0.40117006318391896,0.07266662532584152,1,learn
,html-keyboard-response,411,1086990,0.0-217.0-1.0,null,,,<p></p>,null,,,,,,,,,,,
,do_trial,412,1089750,0.0-218.0-0.0,255,,,,,,49,1,1,0,4,mountain,159,0.759193934377638,0.39595076899315135,0.09471351610558382,1,learn
,html-keyboard-response,413,1090751,0.0-218.0-1.0,null,,,<p></p>,null,,,,,,,,,,,
,do_trial,414,1093556,0.0-219.0-0.0,301.10000002384186,,,,,,49,1,1,0,4,mountain,160,0.7477234523903025,0.44852344065418226,0.08646546303874458,1,learn
,html-keyboard-response,415,1094558,0.0-219.0-1.0,null,,,<p></p>,null,,,,,,,,,,,
,do_trial,416,1097769,0.0-220.0-0.0,706.5,,,,,,49,1,0,0,4,mountain,161,0.7637498883597574,0.38053813246277485,0.1370503464744732,1,learn
,html-keyboard-response,417,1098772,0.0-220.0-1.0,null,,,<p></p>,null,,,,,,,,,,,
,do_trial,418,1101533,0.0-221.0-0.0,257.10000002384186,,,,,,49,1,1,1,4,mountain,162,0.4977122529480713,0.42565354809266465,0.2169336444936561,1,learn
,html-keyboard-response,419,1102536,0.0-221.0-1.0,null,,,<p></p>,null,,,,,,,,,,,
,do_trial,420,1105372,0.0-222.0-0.0,331.7999999523163,,,,,,49,0,0,0,4,mountain,163,0.2990231599508807,0.4497682494552938,0.21240847452897357,0,learn
,html-keyboard-response,421,1106373,0.0-222.0-1.0,null,,,<p></p>,null,,,,,,,,,,,
,do_trial,422,1109227,0.0-223.0-0.0,349.8000000715256,,,,,,50,1,1,0,4,mountain,164,0.21560042261416099,0.3874062071693247,0.3363926720989974,1,learn
,html-keyboard-response,423,1110229,0.0-223.0-1.0,null,,,<p></p>,null,,,,,,,,,,,
,do_trial,424,1112933,0.0-224.0-0.0,199.39999997615814,,,,,,50,0,1,0,4,mountain,165,0.07763454343909977,0.43751013737194433,0.2129997099705638,1,learn
,html-keyboard-response,425,1113934,0.0-224.0-1.0,null,,,<p></p>,null,,,,,,,,,,,
,do_trial,426,1117195,0.0-225.0-0.0,757.2999999523163,,,,,,50,0,0,0,4,mountain,166,0.07289179958211381,0.42519836364520724,0.2202344472118886,0,learn
,html-keyboard-response,427,1118198,0.0-225.0-1.0,null,,,<p></p>,null,,,,,,,,,,,
,do_trial,428,1120933,0.0-226.0-0.0,229.09999990463257,,,,,,51,1,0,0,4,mountain,167,0.09592503793483304,0.5597726175252785,0.3332015171378149,0,learn
,html-keyboard-response,429,1121934,0.0-226.0-1.0,null,,,<p></p>,null,,,,,,,,,,,
,do_trial,430,1124691,0.0-227.0-0.0,252,,,,,,49,1,0,1,4,mountain,168,0.18006009324046532,0.5400699470978253,0.3455409311506643,1,learn
,html-keyboard-response,431,1125693,0.0-227.0-1.0,null,,,<p></p>,null,,,,,,,,,,,
,do_trial,432,1128449,0.0-228.0-0.0,250.90000009536743,,,,,,49,0,1,0,4,mountain,169,0.11095785955400352,0.6378919220274482,0.32089502473182635,0,learn
,html-keyboard-response,433,1129451,0.0-228.0-1.0,null,,,<p></p>,null,,,,,,,,,,,
,do_trial,434,1132699,0.0-229.0-0.0,742.8999999761581,,,,,,49,0,1,0,4,mountain,170,0.18495042096925768,0.6771169540778574,0.3146626835926822,0,learn
,html-keyboard-response,435,1133702,0.0-229.0-1.0,null,,,<p></p>,null,,,,,,,,,,,
,do_trial,436,1136483,0.0-230.0-0.0,276.2000000476837,,,,,,50,1,1,0,4,mountain,171,0.15811083419062003,0.6232451009344616,0.29345369512562247,1,learn
,html-keyboard-response,437,1137485,0.0-230.0-1.0,null,,,<p></p>,null,,,,,,,,,,,
,do_trial,438,1140358,0.0-231.0-0.0,368.7999999523163,,,,,,50,0,1,1,4,mountain,172,0.11175357627160865,0.5867318711574925,0.4365722222655359,1,learn
,html-keyboard-response,439,1141361,0.0-231.0-1.0,null,,,<p></p>,null,,,,,,,,,,,
,do_trial,440,1144136,0.0-232.0-0.0,270.2999999523163,,,,,,50,0,1,1,4,mountain,173,0.1537150662514761,0.5829364086792069,0.4850149966561139,1,learn
,html-keyboard-response,441,1145138,0.0-232.0-1.0,null,,,<p></p>,null,,,,,,,,,,,
,do_trial,442,1148071,0.0-233.0-0.0,428.10000002384186,,,,,,50,0,1,1,4,mountain,174,0.13045616162443086,0.39500113623775135,0.44081851472999517,1,learn
,html-keyboard-response,443,1149073,0.0-233.0-1.0,null,,,<p></p>,null,,,,,,,,,,,
,do_trial,444,1151876,0.0-234.0-0.0,300.5,,,,,,50,0,1,1,4,mountain,175,0.21303591864876795,0.5599500805588363,0.4453252521324377,1,learn
,html-keyboard-response,445,1152885,0.0-234.0-1.0,null,,,<p></p>,null,,,,,,,,,,,
,do_trial,446,1155687,0.0-235.0-0.0,297.89999997615814,,,,,,50,1,0,1,4,mountain,176,0.39716430169631894,0.44415973570273426,0.3007974192736343,0,learn
,html-keyboard-response,447,1156688,0.0-235.0-1.0,null,,,<p></p>,null,,,,,,,,,,,
,do_trial,448,1159519,0.0-236.0-0.0,326.2999999523163,,,,,,49,0,0,1,4,mountain,177,0.2585006942631113,0.29524410347384683,0.3068856758294853,0,learn
,html-keyboard-response,449,1160521,0.0-236.0-1.0,null,,,<p></p>,null,,,,,,,,,,,
,do_trial,450,1163272,0.0-237.0-0.0,245.5,,,,,,49,0,0,0,4,mountain,178,0.13582837385699914,0.44371896662775634,0.2706876491553619,0,learn
,html-keyboard-response,451,1164273,0.0-237.0-1.0,null,,,<p></p>,null,,,,,,,,,,,
,do_trial,452,1166993,0.0-238.0-0.0,213.69999992847443,,,,,,51,0,1,0,4,mountain,179,0.09538698198398811,0.5211051942089906,0.10896014405712101,0,learn
,html-keyboard-response,453,1167995,0.0-238.0-1.0,null,,,<p></p>,null,,,,,,,,,,,
,do_trial,454,1170542,0.0-239.0-0.0,41.89999997615814,,,,,,49,0,1,0,4,mountain,180,0.17416598533934044,0.4633772733921374,0.0984467357961549,0,learn
,html-keyboard-response,455,1171544,0.0-239.0-1.0,null,,,<p></p>,null,,,,,,,,,,,
,do_trial,456,1174333,0.0-240.0-0.0,283.39999997615814,,,,,,50,0,1,0,4,mountain,181,0.23201454052529116,0.5033827677176896,0.21487517289201313,1,learn
,html-keyboard-response,457,1175335,0.0-240.0-1.0,null,,,<p></p>,null,,,,,,,,,,,
,do_trial,458,1178094,0.0-241.0-0.0,254.59999990463257,,,,,,50,1,1,1,4,mountain,182,0.1820100141184069,0.5985000118534008,0.27049359153910657,1,learn
,html-keyboard-response,459,1179094,0.0-241.0-1.0,null,,,<p></p>,null,,,,,,,,,,,
,do_trial,460,1182006,0.0-242.0-0.0,406,,,,,,50,0,1,1,4,mountain,183,0.12513866627032993,0.4360900044795447,0.2618091985787084,1,learn
,html-keyboard-response,461,1183007,0.0-242.0-1.0,null,,,<p></p>,null,,,,,,,,,,,
,do_trial,462,1185760,0.0-243.0-0.0,248.39999997615814,,,,,,50,0,1,0,4,mountain,184,0.17452618024399644,0.5584913662104584,0.20311336988611345,1,learn
,html-keyboard-response,463,1186762,0.0-243.0-1.0,null,,,<p></p>,null,,,,,,,,,,,
,do_trial,464,1189509,0.0-244.0-0.0,241.39999997615814,,,,,,50,0,0,0,4,mountain,185,0.12941754302130298,0.6894395682172941,0.06478564237317076,0,learn
,html-keyboard-response,465,1190512,0.0-244.0-1.0,null,,,<p></p>,null,,,,,,,,,,,
,do_trial,466,1193343,0.0-245.0-0.0,326,,,,,,49,0,0,0,4,mountain,186,0.1895436326371261,0.7309199646611705,0.20899969955677036,0,learn
,html-keyboard-response,467,1194345,0.0-245.0-1.0,null,,,<p></p>,null,,,,,,,,,,,
,do_trial,468,1197842,0.0-246.0-0.0,991.8999999761581,,,,,,50,0,1,1,4,mountain,187,0.10924781927056135,0.6112332113245946,0.25055456811494037,1,learn
,html-keyboard-response,469,1198845,0.0-246.0-1.0,null,,,<p></p>,null,,,,,,,,,,,
,do_trial,470,1201594,0.0-247.0-0.0,245.20000004768372,,,,,,50,0,0,0,4,mountain,188,0.0777250942384977,0.6371800831726302,0.2746443515190029,0,learn
,html-keyboard-response,471,1202596,0.0-247.0-1.0,null,,,<p></p>,null,,,,,,,,,,,
,do_trial,472,1205392,0.0-248.0-0.0,289.60000002384186,,,,,,49,0,0,1,4,mountain,189,0.16532507359291626,0.702417084154083,0.3787655473259934,0,learn
,html-keyboard-response,473,1206394,0.0-248.0-1.0,null,,,<p></p>,null,,,,,,,,,,,
,do_bye,474,1207904,0.0-249.0-0.0,null,,,,,,null,,,,,,,,,
,do_travel,475,1216907,0.0-250.0-0.0,null,,,,,,null,,,,,,,,,
