success,trial_type,trial_index,time_elapsed,internal_node_id,rt,responses,subject_id,stimulus,key_press,prompt,response,choice_outcomes,context_n,context_img_id,trial_n,pR_red,pR_white,pR_black,outcome,phase,passed
true,fullscreen,0,3166,0.0-0.0,,,,,,,,,,,,,,,,,
,survey-html-form,1,12959,0.0-1.0,9789.10000000149,{worker_id:emmy},emmy,,,,,,,,,,,,,,
,instruc1,2,14963,0.0-2.0,null,,emmy,<div class='center'><p>Welcome! This study will last ~30 minutes. After the instructions there will be a practice game and quiz to make sure you understand the task. Today you will be the head captain of a pirate ship traveling around the world to different islands. Here is an overview of what you will be doing:</p><br><p> 1. Try to find the most successful pirate on 6 different islands</p><p> 2. Recall which pirates did the best on each island</p><br><p>,null,<div class='center'><p>Welcome! This study will last ~30 minutes. After the instructions there will be a practice game and quiz to make sure you understand the task. Today you will be the head captain of a pirate ship traveling around the world to different islands. Here is an overview of what you will be doing:</p><br><p> 1. Try to find the most successful pirate on 6 different islands</p><p> 2. Recall which pirates did the best on each island</p><br><p>,,,,,,,,,,,
,html-keyboard-response,3,30800,0.0-3.0,15835.70000000298,,,<div class='center'><p>Welcome! This study will last ~30 minutes. After the instructions there will be a practice game and quiz to make sure you understand the task. Today you will be the head captain of a pirate ship traveling around the world to different islands. Here is an overview of what you will be doing:</p><br><p> 1. Try to find the most successful pirate on 6 different islands</p><p> 2. Recall which pirates did the best on each island</p><br><p><p><b>[Press the space bar to continue]</b></p></div>,32,,,,,,,,,,,,
,instruc2,4,32802,0.0-4.0,null,,,<div class='center'><p>You are going to visit these 6 islands on your journey. You'll be able to see these islands from your ship.</p><p><img src='../static/images/contexts/all_contexts.png' height='500'></p></div>,null,<div class='center'><p>You are going to visit these 6 islands on your journey. You'll be able to see these islands from your ship.</p><p><img src='../static/images/contexts/all_contexts.png' height='500'></p></div>,,,,,,,,,,,
,html-keyboard-response,5,33932,0.0-5.0,1128.6999999955297,,,<div class='center'><p>You are going to visit these 6 islands on your journey. You'll be able to see these islands from your ship.</p><p><img src='../static/images/contexts/all_contexts.png' height='500'></p><p><b>[Press the space bar to continue]</b></p></div>,32,,,,,,,,,,,,
,instruc4,6,35935,0.0-6.0,null,,,<div class='center'><p>As the head captain, you do not have to rob any ships yourself. Another pirate will be doing the robbing for you. First, you will choose a pirate to rob the next ship.</p><p><img src='../static/images/tutorial/pirates_all_crop.png' height='200'></p><p>Then, you'll see if the pirate successfully robbed the ship of their gold. If they were successful, then you'll get a stack of gold coins like this:</p><p><img src='../static/images/tutorial/reward.png' height='150'></p><p> If they were <b>not</b> successful, then you'll get no gold coins, and you'll see a big red x like this: </p><p><img src='../static/images/tutorial/reward_no.png' height='150'></p><p> How much bonus money you make is based on how many gold coins you collect.</p><div>,null,<div class='center'><p>As the head captain, you do not have to rob any ships yourself. Another pirate will be doing the robbing for you. First, you will choose a pirate to rob the next ship.</p><p><img src='../static/images/tutorial/pirates_all_crop.png' height='200'></p><p>Then, you'll see if the pirate successfully robbed the ship of their gold. If they were successful, then you'll get a stack of gold coins like this:</p><p><img src='../static/images/tutorial/reward.png' height='150'></p><p> If they were <b>not</b> successful, then you'll get no gold coins, and you'll see a big red x like this: </p><p><img src='../static/images/tutorial/reward_no.png' height='150'></p><p> How much bonus money you make is based on how many gold coins you collect.</p><div>,,,,,,,,,,,
,html-keyboard-response,7,49929,0.0-7.0,13992,,,<div class='center'><p>As the head captain, you do not have to rob any ships yourself. Another pirate will be doing the robbing for you. First, you will choose a pirate to rob the next ship.</p><p><img src='../static/images/tutorial/pirates_all_crop.png' height='200'></p><p>Then, you'll see if the pirate successfully robbed the ship of their gold. If they were successful, then you'll get a stack of gold coins like this:</p><p><img src='../static/images/tutorial/reward.png' height='150'></p><p> If they were <b>not</b> successful, then you'll get no gold coins, and you'll see a big red x like this: </p><p><img src='../static/images/tutorial/reward_no.png' height='150'></p><p> How much bonus money you make is based on how many gold coins you collect.</p><div><p><b>[Press the space bar to continue]</b></p></div>,32,,,,,,,,,,,,
,instruc5,8,59494,0.0-8.0,9563.39999999851,,,<div class='center'><p>Even the most skilled pirate can not rob EVERY ship.</p><p> Some ships will have very strong protections against pirate attacks.</p><p> Blue beard, here, is very, very good at robbing ships, but he won't be successful every time he tries to rob one.</p><p> You can press the <b>'1'</b> key on the keyboard to choose him.</p><p> Try choosing him 10 times to see how often he succeeds at robbing a ship. </p><p><img src='../static/images/tutorial/blue.png' height='500'></p></div>,49,<div class='center'><p>Even the most skilled pirate can not rob EVERY ship.</p><p> Some ships will have very strong protections against pirate attacks.</p><p> Blue beard, here, is very, very good at robbing ships, but he won't be successful every time he tries to rob one.</p><p> You can press the <b>'1'</b> key on the keyboard to choose him.</p><p> Try choosing him 10 times to see how often he succeeds at robbing a ship. </p><p><img src='../static/images/tutorial/blue.png' height='500'></p></div>,,,,,,,,,,,
,html-keyboard-response,9,60995,0.0-9.0,null,,,<div class='center'><p><img src='../static/images/tutorial/blue_win.png' height='500'></p></div>,null,,,,,,,,,,,,
,html-keyboard-response,10,62096,0.0-10.0,1099.3999999985099,,,<div class='center'><img src='../static/images/tutorial/blue.png' height='500'></p></div>,49,,,,,,,,,,,,
,html-keyboard-response,11,63598,0.0-11.0,null,,,<div class='center'><p><img src='../static/images/tutorial/blue_win.png' height='500'></p></div>,null,,,,,,,,,,,,
,html-keyboard-response,12,64279,0.0-12.0,679.4000000059605,,,<div class='center'><img src='../static/images/tutorial/blue.png' height='500'></p></div>,49,,,,,,,,,,,,
,html-keyboard-response,13,65782,0.0-13.0,null,,,<div class='center'><p><img src='../static/images/tutorial/blue_win.png' height='500'></p></div>,null,,,,,,,,,,,,
,html-keyboard-response,14,66786,0.0-14.0,1003.1000000014901,,,<div class='center'><img src='../static/images/tutorial/blue.png' height='500'></p></div>,49,,,,,,,,,,,,
,html-keyboard-response,15,68289,0.0-15.0,null,,,<div class='center'><p><img src='../static/images/tutorial/blue_no_win.png' height='500'></p></div>,null,,,,,,,,,,,,
,html-keyboard-response,16,70045,0.0-16.0,1755.3999999985099,,,<div class='center'><img src='../static/images/tutorial/blue.png' height='500'></p></div>,49,,,,,,,,,,,,
,html-keyboard-response,17,71547,0.0-17.0,null,,,<div class='center'><p><img src='../static/images/tutorial/blue_win.png' height='500'></p></div>,null,,,,,,,,,,,,
,html-keyboard-response,18,73538,0.0-18.0,1989.8999999985099,,,<div class='center'><img src='../static/images/tutorial/blue.png' height='500'></p></div>,49,,,,,,,,,,,,
,html-keyboard-response,19,75040,0.0-19.0,null,,,<div class='center'><p><img src='../static/images/tutorial/blue_win.png' height='500'></p></div>,null,,,,,,,,,,,,
,html-keyboard-response,20,75606,0.0-20.0,564.7000000029802,,,<div class='center'><img src='../static/images/tutorial/blue.png' height='500'></p></div>,49,,,,,,,,,,,,
,html-keyboard-response,21,77108,0.0-21.0,null,,,<div class='center'><p><img src='../static/images/tutorial/blue_win.png' height='500'></p></div>,null,,,,,,,,,,,,
,html-keyboard-response,22,77546,0.0-22.0,437,,,<div class='center'><img src='../static/images/tutorial/blue.png' height='500'></p></div>,49,,,,,,,,,,,,
,html-keyboard-response,23,79048,0.0-23.0,null,,,<div class='center'><p><img src='../static/images/tutorial/blue_no_win.png' height='500'></p></div>,null,,,,,,,,,,,,
,html-keyboard-response,24,79436,0.0-24.0,386.3999999985099,,,<div class='center'><img src='../static/images/tutorial/blue.png' height='500'></p></div>,49,,,,,,,,,,,,
,html-keyboard-response,25,80938,0.0-25.0,null,,,<div class='center'><p><img src='../static/images/tutorial/blue_win.png' height='500'></p></div>,null,,,,,,,,,,,,
,html-keyboard-response,26,81256,0.0-26.0,317.29999999701977,,,<div class='center'><img src='../static/images/tutorial/blue.png' height='500'></p></div>,49,,,,,,,,,,,,
,html-keyboard-response,27,82758,0.0-27.0,null,,,<div class='center'><p><img src='../static/images/tutorial/blue_win.png' height='500'></p></div>,null,,,,,,,,,,,,
,instruc6,28,84760,0.0-28.0,null,,,<div class='center'><p> See, he succeeded in robbing the ships most of the time but not every time. </p></div>,null,<div class='center'><p> See, he succeeded in robbing the ships most of the time but not every time. </p></div>,,,,,,,,,,,
,html-keyboard-response,29,85537,0.0-29.0,775.3999999985099,,,<div class='center'><p> See, he succeeded in robbing the ships most of the time but not every time. </p><p><b>[Press the space bar to continue]</b></p></div>,32,,,,,,,,,,,,
,html-keyboard-response,30,91350,0.0-30.0,5812.69999999553,,,<div class='center'><p>From these three pirates, you will get to choose which one you want to rob the next ship. <p>Press the <b>'1'</b> key on your keyboard to pick the pirate with the red beard.</p><p> Press <b>'2'</b> to pick the pirate with the white beard.</p><p> Press <b>'3'</b> to pick the pirate with the black beard.</p><p>Try picking a pirate now!</p><p><img src='../static/images/tutorial/all_pirates.png' height='500'></p></div>,50,,,,,,,,,,,,
,audio-keyboard-response,31,98868,0.0-31.0-0.0,7513.39999999851,,,../static/audio/clip_8_chosen_pirate_win.m4a,32,,,,,,,,,,,,
,html-keyboard-response,32,100721,0.0-31.0-1.0,1852.3999999985099,,,<div class='center'><p>Now try choosing another.</p><p><img src='../static/images/tutorial/all_pirates.png' height='500'></p></div>,49,,,,,,,,,,,,
,audio-keyboard-response,33,110733,0.0-32.0-0.0,10010.5,,,../static/audio/clip_10_chosen_pirate_loss.m4a,32,,,,,,,,,,,,
,instruc9,34,112735,0.0-33.0-0.0,null,,,<div class='center'><p>If you don't make your choice fast enough, you'll have to wait a few seconds before you can make another one. </p><p><img src='../static/images/miscellaneous/hurry_up.png' height='500'></p></div>,null,<div class='center'><p>If you don't make your choice fast enough, you'll have to wait a few seconds before you can make another one. </p><p><img src='../static/images/miscellaneous/hurry_up.png' height='500'></p></div>,,,,,,,,,,,
,html-keyboard-response,35,115288,0.0-33.0-1.0,2553.10000000149,,,<div class='center'><p>If you don't make your choice fast enough, you'll have to wait a few seconds before you can make another one. </p><p><img src='../static/images/miscellaneous/hurry_up.png' height='500'></p><p><b>[Press the space bar to continue]</b></p></div>,32,,,,,,,,,,,,
,instruc11,36,117289,0.0-33.0-2.0,null,,,<div class='center'><p>How successful a pirate is at robbing ships will depend on the island you're on.</p><p> A pirate may have visited this island many times before and gained a lot of practice robbing ships there.</p><p>So, they're more likely to be successful than a pirate who has never visited the island before.</p></div>,null,<div class='center'><p>How successful a pirate is at robbing ships will depend on the island you're on.</p><p> A pirate may have visited this island many times before and gained a lot of practice robbing ships there.</p><p>So, they're more likely to be successful than a pirate who has never visited the island before.</p></div>,,,,,,,,,,,
,html-keyboard-response,37,120760,0.0-33.0-3.0,3469.6999999955297,,,<div class='center'><p>How successful a pirate is at robbing ships will depend on the island you're on.</p><p> A pirate may have visited this island many times before and gained a lot of practice robbing ships there.</p><p>So, they're more likely to be successful than a pirate who has never visited the island before.</p><p><b>[Press the space bar to continue]</b></p></div>,32,,,,,,,,,,,,
,instruc12,38,122762,0.0-33.0-4.0,null,,,<div class='center'><p>How successful a pirate is at robbing ships can also change over the time spent on the island. </p><p> Ships may hear from islanders about the pirates coming and will improve their protections against the attack. This may make it harder to rob them.</p><p> Ships may also become lazy and weaken the strength of their protections. This may make it easier to rob them.</p><br><p>Things are always changing on the high seas! So, try your best to pay attention!</p><p><img src='../static/images/tutorial/contingency.png' height='500'></p></div>,null,<div class='center'><p>How successful a pirate is at robbing ships can also change over the time spent on the island. </p><p> Ships may hear from islanders about the pirates coming and will improve their protections against the attack. This may make it harder to rob them.</p><p> Ships may also become lazy and weaken the strength of their protections. This may make it easier to rob them.</p><br><p>Things are always changing on the high seas! So, try your best to pay attention!</p><p><img src='../static/images/tutorial/contingency.png' height='500'></p></div>,,,,,,,,,,,
,html-keyboard-response,39,130956,0.0-33.0-5.0,8192.39999999851,,,<div class='center'><p>How successful a pirate is at robbing ships can also change over the time spent on the island. </p><p> Ships may hear from islanders about the pirates coming and will improve their protections against the attack. This may make it harder to rob them.</p><p> Ships may also become lazy and weaken the strength of their protections. This may make it easier to rob them.</p><br><p>Things are always changing on the high seas! So, try your best to pay attention!</p><p><img src='../static/images/tutorial/contingency.png' height='500'></p><p><b>[Press the space bar to continue]</b></p></div>,32,,,,,,,,,,,,
,instruc13,40,132958,0.0-33.0-6.0,null,,,<div class='center'><p>Let's go over the instructions quickly again. You have one thing to do: </p><b><p> Pick the pirate who is the best at robbing ships on the current island. </p></b><b><p> The amount of bonus money you win depends on it.</p><p><br><p>Let's try a practice game. The game will start by showing you an island. Pick a pirate using the <b> 1, 2, 3 </b> keys on your keyboard to get it to try and rob one of the ships leaving the island.</p><p>This is just a practice game, so you're not playing for money. </p><p> Good luck! This game will be very difficult but try your best!</p></div>,null,<div class='center'><p>Let's go over the instructions quickly again. You have one thing to do: </p><b><p> Pick the pirate who is the best at robbing ships on the current island. </p></b><b><p> The amount of bonus money you win depends on it.</p><p><br><p>Let's try a practice game. The game will start by showing you an island. Pick a pirate using the <b> 1, 2, 3 </b> keys on your keyboard to get it to try and rob one of the ships leaving the island.</p><p>This is just a practice game, so you're not playing for money. </p><p> Good luck! This game will be very difficult but try your best!</p></div>,,,,,,,,,,,
,html-keyboard-response,41,145081,0.0-33.0-7.0,12121.79999999702,,,<div class='center'><p>Let's go over the instructions quickly again. You have one thing to do: </p><b><p> Pick the pirate who is the best at robbing ships on the current island. </p></b><b><p> The amount of bonus money you win depends on it.</p><p><br><p>Let's try a practice game. The game will start by showing you an island. Pick a pirate using the <b> 1, 2, 3 </b> keys on your keyboard to get it to try and rob one of the ships leaving the island.</p><p>This is just a practice game, so you're not playing for money. </p><p> Good luck! This game will be very difficult but try your best!</p><p><b>[Press the space bar to continue]</b></p></div>,32,,,,,,,,,,,,
,do_welcome,42,149088,0.0-33.0-8.0,null,,,,,,null,,,,,,,,,,
,do_trial,43,152541,0.0-33.0-9.0,948,,,,,,49,1,0,0,,,,,,,,,
,html-keyboard-response,44,153544,0.0-34.0-0.0,null,,,<p></p>,null,,,,,,,,,,,,
,do_trial,45,156354,0.0-34.0-1.0,306.20000000298023,,,,,,49,1,1,0,,,,,,,,,
,html-keyboard-response,46,157357,0.0-35.0-0.0,null,,,<p></p>,null,,,,,,,,,,,,
,do_trial,47,159901,0.0-35.0-1.0,39.100000001490116,,,,,,49,1,0,1,,,,,,,,,
,html-keyboard-response,48,160904,0.0-36.0-0.0,null,,,<p></p>,null,,,,,,,,,,,,
,do_trial,49,163611,0.0-36.0-1.0,201.90000000596046,,,,,,49,0,1,0,,,,,,,,,
,html-keyboard-response,50,164614,0.0-37.0-0.0,null,,,<p></p>,null,,,,,,,,,,,,
,do_trial,51,167229,0.0-37.0-1.0,108.09999999403954,,,,,,50,1,0,0,,,,,,,,,
,do_bye,52,168735,0.0-38.0-0.0,null,,,,,,null,,,,,,,,,,
,do_travel,53,177739,0.0-38.0-1.0,null,,,,,,null,,,,,,,,,,
,do_welcome,54,181746,0.0-38.0-2.0,null,,,,,,null,,,,,,,,,,
,do_trial,55,184717,0.0-38.0-3.0,462.80000000447035,,,,,,49,1,0,0,,,,,,,,,
,html-keyboard-response,56,185720,0.0-39.0-0.0,null,,,<p></p>,null,,,,,,,,,,,,
,do_trial,57,188438,0.0-39.0-1.0,211.79999999701977,,,,,,50,1,0,1,,,,,,,,,
,html-keyboard-response,58,189439,0.0-40.0-0.0,null,,,<p></p>,null,,,,,,,,,,,,
,do_trial,59,192149,0.0-40.0-1.0,203.5,,,,,,51,1,1,0,,,,,,,,,
,html-keyboard-response,60,193152,0.0-41.0-0.0,null,,,<p></p>,null,,,,,,,,,,,,
,do_trial,61,195722,0.0-41.0-1.0,64.80000000447035,,,,,,49,0,0,1,,,,,,,,,
,html-keyboard-response,62,196725,0.0-42.0-0.0,null,,,<p></p>,null,,,,,,,,,,,,
,do_trial,63,199321,0.0-42.0-1.0,90.69999999552965,,,,,,49,1,0,1,,,,,,,,,
,html-keyboard-response,64,201752,0.0-43.0-0.0,2429.1999999955297,,,<div class='center'><p><img src='../static/images/tutorial/prac_best_pirate.png' height='500'></p></div>,49,,,,,,,,,,,,
,html-keyboard-response,65,202767,0.0-44.0-0.0,1013.7999999970198,,,<div class='center'><p>That's correct! Red beard was the best.</p><p><b>[Press the space bar to continue]</b></p></div>,32,,,,,,,,,,,,
,quiz_beginning,66,204769,0.0-44.0-1.0,null,,,<div class='center'><p>Good job on the practice game! Now, you will be asked some true or false questions to make sure you really understand the rules of the game.</p><p> Press <b>'1'</b> on the keyboard for true and press <b>'2'</b> for false.</p></div>,null,<div class='center'><p>Good job on the practice game! Now, you will be asked some true or false questions to make sure you really understand the rules of the game.</p><p> Press <b>'1'</b> on the keyboard for true and press <b>'2'</b> for false.</p></div>,,,,,,,,,,,
,html-keyboard-response,67,210412,0.0-44.0-2.0,5641.89999999851,,,<div class='center'><p>You win bonus money by collecting gold coins.</p><p>Press 1 for true and press  2 for false.</p></div>,49,,,,,,,,,,,,
,correct,68,212414,0.0-45.0-0.0,null,,,<div class='center'><p>That's correct!</p></div>,null,<div class='center'><p>That's correct!</p></div>,,,,,,,,,,,
,html-keyboard-response,69,213015,0.0-45.0-1.0,600.0999999940395,,,<div class='center'><p>That's correct!</p><p><b>[Press the space bar to continue]</b></p></div>,32,,,,,,,,,,,,
,html-keyboard-response,70,221911,0.0-45.0-2.0,8894.5,,,<div class='center'><p>The pirate who is the best at robbing ships when you first arrive on the island will definitely still be the best when you leave the island. </p><p>Press 1 for true and press  2 for false.</p></div>,49,,,,,,,,,,,,
,q2_err,71,223915,0.0-46.0-0.0,null,,,<div class='center'><p>That’s incorrect. Which pirate is the best may change during your time on the island.</p></div>,null,<div class='center'><p>That’s incorrect. Which pirate is the best may change during your time on the island.</p></div>,,,,,,,,,,,
,html-keyboard-response,72,224422,0.0-46.0-1.0,504.6000000014901,,,<div class='center'><p>That’s incorrect. Which pirate is the best may change during your time on the island.</p><p><b>[Press the space bar to continue]</b></p></div>,32,,,,,,,,,,,,
,html-keyboard-response,73,227632,0.0-46.0-2.0,3209.10000000149,,,<div class='center'><p>The pirate who is the best at robbing ships on the first island will be the best on every other island.</p><p>Press 1 for true and press  2 for false.</p></div>,50,,,,,,,,,,,,
,correct,74,229635,0.0-47.0-0.0,null,,,<div class='center'><p>That's correct!</p></div>,null,<div class='center'><p>That's correct!</p></div>,,,,,,,,,,,
,html-keyboard-response,75,230136,0.0-47.0-1.0,499.90000000596046,,,<div class='center'><p>That's correct!</p><p><b>[Press the space bar to continue]</b></p></div>,32,,,,,,,,,,,,
,html-keyboard-response,76,233423,0.0-47.0-2.0,3287,,,<div class='center'><p>You should remember the island where a pirate robbed a ship.</p><p>Press 1 for true and press  2 for false.</p></div>,49,,,,,,,,,,,,
,correct,77,235426,0.0-48.0-0.0,null,,,<div class='center'><p>That's correct!</p></div>,null,<div class='center'><p>That's correct!</p></div>,,,,,,,,,,,
,html-keyboard-response,78,236002,0.0-48.0-1.0,574.7999999970198,,,<div class='center'><p>That's correct!</p><p><b>[Press the space bar to continue]</b></p></div>,32,,,,,,,,,,,,
,q_all_err,79,238004,0.0-49.0-0.0,null,,,<div class='center'><p>Oops, you missed some questions. Now that you’ve heard the correct answers. Try the quiz again! </p></div>,null,<div class='center'><p>Oops, you missed some questions. Now that you’ve heard the correct answers. Try the quiz again! </p></div>,,,,,,,,,,,
,html-keyboard-response,80,239199,0.0-49.0-1.0,1193.6000000014901,,,<div class='center'><p>Oops, you missed some questions. Now that you’ve heard the correct answers. Try the quiz again! </p><p><b>[Press the space bar to continue]</b></p></div>,32,,,,,,,,,,,,
,html-keyboard-response,81,240517,0.0-49.0-2.0,1316.7999999970198,,,<div class='center'><p>You win bonus money by collecting gold coins.</p><p>Press 1 for true and press  2 for false.</p></div>,49,,,,,,,,,,,,
,correct,82,242519,0.0-50.0-0.0,null,,,<div class='center'><p>That's correct!</p></div>,null,<div class='center'><p>That's correct!</p></div>,,,,,,,,,,,
,html-keyboard-response,83,242943,0.0-50.0-1.0,423.6000000014901,,,<div class='center'><p>That's correct!</p><p><b>[Press the space bar to continue]</b></p></div>,32,,,,,,,,,,,,
,html-keyboard-response,84,244494,0.0-50.0-2.0,1549.8999999985099,,,<div class='center'><p>The pirate who is the best at robbing ships when you first arrive on the island will definitely still be the best when you leave the island. </p><p>Press 1 for true and press  2 for false.</p></div>,50,,,,,,,,,,,,
,correct,85,246497,0.0-51.0-0.0,null,,,<div class='center'><p>That's correct!</p></div>,null,<div class='center'><p>That's correct!</p></div>,,,,,,,,,,,
,html-keyboard-response,86,246862,0.0-51.0-1.0,363.6000000014901,,,<div class='center'><p>That's correct!</p><p><b>[Press the space bar to continue]</b></p></div>,32,,,,,,,,,,,,
,html-keyboard-response,87,250676,0.0-51.0-2.0,3813.8000000044703,,,<div class='center'><p>The pirate who is the best at robbing ships on the first island will be the best on every other island.</p><p>Press 1 for true and press  2 for false.</p></div>,50,,,,,,,,,,,,
,correct,88,252679,0.0-52.0-0.0,null,,,<div class='center'><p>That's correct!</p></div>,null,<div class='center'><p>That's correct!</p></div>,,,,,,,,,,,
,html-keyboard-response,89,253063,0.0-52.0-1.0,383.19999999552965,,,<div class='center'><p>That's correct!</p><p><b>[Press the space bar to continue]</b></p></div>,32,,,,,,,,,,,,
,html-keyboard-response,90,254089,0.0-52.0-2.0,1025.6999999955297,,,<div class='center'><p>You should remember the island where a pirate robbed a ship.</p><p>Press 1 for true and press  2 for false.</p></div>,49,,,,,,,,,,,,
,correct,91,256111,0.0-53.0-0.0,null,,,<div class='center'><p>That's correct!</p></div>,null,<div class='center'><p>That's correct!</p></div>,,,,,,,,,,,
,html-keyboard-response,92,256518,0.0-53.0-1.0,405.1000000014901,,,<div class='center'><p>That's correct!</p><p><b>[Press the space bar to continue]</b></p></div>,32,,,,,,,,,,,,
,q_all_corr,93,258521,0.0-54.0-0.0,null,,,<div class='center'><p>Good job! You’re now ready to move on to the real game! Remember this game will be difficult but don't get discouraged and try your best!</p></div>,null,<div class='center'><p>Good job! You’re now ready to move on to the real game! Remember this game will be difficult but don't get discouraged and try your best!</p></div>,,,,,,,,,,,
,html-keyboard-response,94,259721,0.0-54.0-1.0,1198.1000000014901,,,<div class='center'><p>Good job! You’re now ready to move on to the real game! Remember this game will be difficult but don't get discouraged and try your best!</p><p><b>[Press the space bar to continue]</b></p></div>,32,,,,,,,,,,,,
,do_welcome,95,263733,0.0-55.0-0.0,null,,,,,,null,,,,,,,,,,
,do_trial,96,266749,0.0-56.0-0.0,509.20000000298023,,,,,,49,1,0,0,0,highway,0,0.6,0.3,0.1,1,learn,
,html-keyboard-response,97,267753,0.0-56.0-1.0,null,,,<p></p>,null,,,,,,,,,,,,
,do_trial,98,270281,0.0-57.0-0.0,22.100000001490116,,,,,,49,0,1,0,0,highway,1,0.6433522541492546,0.4156353959485749,0.13375864701792586,0,learn,
,html-keyboard-response,99,271285,0.0-57.0-1.0,null,,,<p></p>,null,,,,,,,,,,,,
,do_trial,100,273968,0.0-58.0-0.0,174.79999999701977,,,,,,50,0,1,0,0,highway,2,0.7301589908593288,0.44552292344085587,0.09945375140687236,1,learn,
,html-keyboard-response,101,274970,0.0-58.0-1.0,null,,,<p></p>,null,,,,,,,,,,,,
,do_trial,102,277632,0.0-59.0-0.0,155,,,,,,50,0,0,0,0,highway,3,0.593091269913303,0.33271114882316455,0.17883024972192624,0,learn,
,html-keyboard-response,103,278635,0.0-59.0-1.0,null,,,<p></p>,null,,,,,,,,,,,,
,do_trial,104,281310,0.0-60.0-0.0,169.5,,,,,,51,0,0,0,0,highway,4,0.6447913611064547,0.3403411671674802,0.2700925232764948,0,learn,
,html-keyboard-response,105,282314,0.0-60.0-1.0,null,,,<p></p>,null,,,,,,,,,,,,
,do_trial,106,285011,0.0-61.0-0.0,189.5,,,,,,49,0,0,1,0,highway,5,0.5776790686223111,0.1537726553764541,0.25523839499535084,0,learn,
,html-keyboard-response,107,286014,0.0-61.0-1.0,null,,,<p></p>,null,,,,,,,,,,,,
,do_trial,108,288603,0.0-62.0-0.0,83,,,,,,50,1,0,1,0,highway,6,0.575746256535754,0.07330662283593148,0.2746293952385058,0,learn,
,html-keyboard-response,109,289606,0.0-62.0-1.0,null,,,<p></p>,null,,,,,,,,,,,,
,do_trial,110,292190,0.0-63.0-0.0,77.89999999850988,,,,,,51,1,0,0,0,highway,7,0.5345812963554422,0.21915151459980667,0.18672603007978072,0,learn,
,html-keyboard-response,111,293193,0.0-63.0-1.0,null,,,<p></p>,null,,,,,,,,,,,,
,do_trial,112,295825,0.0-64.0-0.0,127.29999999701977,,,,,,49,1,0,0,0,highway,8,0.6060309319373903,0.2728112289362427,0.23220222378441613,1,learn,
,html-keyboard-response,113,296829,0.0-64.0-1.0,null,,,<p></p>,null,,,,,,,,,,,,
,do_trial,114,299397,0.0-65.0-0.0,61.899999998509884,,,,,,49,1,0,0,0,highway,9,0.6034961893428681,0.19908722961894293,0.15018548061822337,1,learn,
,html-keyboard-response,115,300400,0.0-65.0-1.0,null,,,<p></p>,null,,,,,,,,,,,,
,do_trial,116,303055,0.0-66.0-0.0,149.59999999403954,,,,,,49,1,0,0,0,highway,10,0.582511838480766,0.2551490491158094,0.09857920249835346,1,learn,
,html-keyboard-response,117,304059,0.0-66.0-1.0,null,,,<p></p>,null,,,,,,,,,,,,
,do_trial,118,306643,0.0-67.0-0.0,77.10000000149012,,,,,,49,1,0,1,0,highway,11,0.6884962469854606,0.24520865033859146,0.16484995886729742,1,learn,
,html-keyboard-response,119,307646,0.0-67.0-1.0,null,,,<p></p>,null,,,,,,,,,,,,
,do_trial,120,310289,0.0-68.0-0.0,136.30000000447035,,,,,,49,0,1,0,0,highway,12,0.7438883067943168,0.29519516457660677,0.12086744267513862,0,learn,
,html-keyboard-response,121,311292,0.0-68.0-1.0,null,,,<p></p>,null,,,,,,,,,,,,
,do_trial,122,313911,0.0-69.0-0.0,113.20000000298023,,,,,,50,1,0,1,0,highway,13,0.7896753718325897,0.31720182761086846,0.0701077581801791,0,learn,
,html-keyboard-response,123,314914,0.0-69.0-1.0,null,,,<p></p>,null,,,,,,,,,,,,
,do_trial,124,317495,0.0-70.0-0.0,74,,,,,,50,0,1,0,0,highway,14,0.7410220491615144,0.3115562630078396,0.05487116344784658,1,learn,
,html-keyboard-response,125,318498,0.0-70.0-1.0,null,,,<p></p>,null,,,,,,,,,,,,
,do_trial,126,321061,0.0-71.0-0.0,56.29999999701977,,,,,,50,1,0,0,0,highway,15,0.7658264691475664,0.24854700949057965,0.053261765291567585,0,learn,
,html-keyboard-response,127,322064,0.0-71.0-1.0,null,,,<p></p>,null,,,,,,,,,,,,
,do_trial,128,324610,0.0-72.0-0.0,39.100000001490116,,,,,,51,1,0,0,0,highway,16,0.7340684053676628,0.43122415151710997,0.07455639248754022,0,learn,
,html-keyboard-response,129,325613,0.0-72.0-1.0,null,,,<p></p>,null,,,,,,,,,,,,
,do_trial,130,328216,0.0-73.0-0.0,97.39999999850988,,,,,,51,1,1,0,0,highway,17,0.7068242241199252,0.4284100640059679,0.16364900533928492,0,learn,
,html-keyboard-response,131,329219,0.0-73.0-1.0,null,,,<p></p>,null,,,,,,,,,,,,
,do_trial,132,331967,0.0-74.0-0.0,242.39999999850988,,,,,,49,0,0,0,0,highway,18,0.6489311953597404,0.43996725124129926,0.05683497801769507,0,learn,
,html-keyboard-response,133,332970,0.0-74.0-1.0,null,,,<p></p>,null,,,,,,,,,,,,
,do_trial,134,335510,0.0-75.0-0.0,33.29999999701977,,,,,,50,1,1,0,0,highway,19,0.5411673375826384,0.45336397849838705,0.10744500162206867,1,learn,
,html-keyboard-response,135,336513,0.0-75.0-1.0,null,,,<p></p>,null,,,,,,,,,,,,
,do_trial,136,339091,0.0-76.0-0.0,71.39999999850988,,,,,,50,1,0,0,0,highway,20,0.5286220581819387,0.37143948529569265,0.05128396959214419,0,learn,
,html-keyboard-response,137,340094,0.0-76.0-1.0,null,,,<p></p>,null,,,,,,,,,,,,
,do_trial,138,342611,0.0-77.0-0.0,10.800000004470348,,,,,,49,1,0,0,0,highway,21,0.5666485931177794,0.3331642756025794,0.14488289388766437,1,learn,
,html-keyboard-response,139,343614,0.0-77.0-1.0,null,,,<p></p>,null,,,,,,,,,,,,
,do_trial,140,346122,0.0-78.0-0.0,0.6999999955296516,,,,,,49,1,0,0,0,highway,22,0.6003766714401094,0.23942894608521356,0.11199439233171166,1,learn,
,html-keyboard-response,141,347125,0.0-78.0-1.0,null,,,<p></p>,null,,,,,,,,,,,,
,do_trial,142,349990,0.0-79.0-0.0,358.40000000596046,,,,,,49,1,1,0,0,highway,23,0.6351002370725956,0.30229072919437106,0.08335684127357522,1,learn,
,html-keyboard-response,143,350993,0.0-79.0-1.0,null,,,<p></p>,null,,,,,,,,,,,,
,do_trial,144,353527,0.0-80.0-0.0,26.799999997019768,,,,,,49,1,0,0,0,highway,24,0.5558515742112603,0.30865970408925014,0.11295193432257034,1,learn,
,html-keyboard-response,145,354530,0.0-80.0-1.0,null,,,<p></p>,null,,,,,,,,,,,,
,do_trial,146,357054,0.0-81.0-0.0,16.399999998509884,,,,,,49,0,0,0,0,highway,25,0.4140287059931631,0.31307105455709205,0.06081246907466808,0,learn,
,html-keyboard-response,147,358057,0.0-81.0-1.0,null,,,<p></p>,null,,,,,,,,,,,,
,do_trial,148,360587,0.0-82.0-0.0,23.900000005960464,,,,,,50,1,0,0,0,highway,26,0.48345233638283974,0.30152456895375884,0.1402647198917919,0,learn,
,html-keyboard-response,149,361591,0.0-82.0-1.0,null,,,<p></p>,null,,,,,,,,,,,,
,do_trial,150,364394,0.0-83.0-0.0,296.79999999701977,,,,,,51,0,0,0,0,highway,27,0.43052642338564995,0.2384986418599224,0.12907948812057413,0,learn,
,html-keyboard-response,151,365397,0.0-83.0-1.0,null,,,<p></p>,null,,,,,,,,,,,,
,do_trial,152,368095,0.0-84.0-0.0,192.5,,,,,,49,1,0,0,0,highway,28,0.4992836364948368,0.37989789324149104,0.1026462812919998,1,learn,
,html-keyboard-response,153,369099,0.0-84.0-1.0,null,,,<p></p>,null,,,,,,,,,,,,
,do_trial,154,371699,0.0-85.0-0.0,95,,,,,,49,1,1,0,0,highway,29,0.6468786642927461,0.47290687935548853,0.06890639591828064,1,learn,
,html-keyboard-response,155,372702,0.0-85.0-1.0,null,,,<p></p>,null,,,,,,,,,,,,
,attention_check,156,372717,0.0-86.0-0.0,13.200000002980232,,,<div style='position:relative; margin-top: 600px;'><p>Before we set sail — press the <b>Z</b> key to continue!</p></div>,49,,,,,,,,,,,,false
,do_bye,157,374223,0.0-86.0-1.0,null,,,,,,null,,,,,,,,,,
,break,158,376771,0.0-86.0-2.0,2546.6999999955297,,,<div class='center'><p>Time to take a quick break! You have 2 minutes to rest, but you can move on sooner if you'd like.</p><p> Press the <b>space bar</b> to continue.</p></div>,32,,,,,,,,,,,,
,do_travel,159,385774,0.0-87.0-0.0,null,,,,,,null,,,,,,,,,,
,do_welcome,160,389786,0.0-87.0-1.0,null,,,,,,null,,,,,,,,,,
,do_trial,161,392983,0.0-88.0-0.0,691,,,,,,49,1,1,0,1,coast,30,1,0.3407144636219083,0.07218742502509456,1,learn,
,html-keyboard-response,162,393986,0.0-88.0-1.0,null,,,<p></p>,null,,,,,,,,,,,,
,do_trial,163,396536,0.0-89.0-0.0,43.399999998509884,,,,,,49,1,1,0,1,coast,31,1,0.27007554912607584,0.0993668264592229,1,learn,
,html-keyboard-response,164,397539,0.0-89.0-1.0,null,,,<p></p>,null,,,,,,,,,,,,
,do_trial,165,400118,0.0-90.0-0.0,73,,,,,,49,1,0,0,1,coast,32,1,0.11595178226565558,0.08798072131140852,1,learn,
,html-keyboard-response,166,401121,0.0-90.0-1.0,null,,,<p></p>,null,,,,,,,,,,,,
,do_trial,167,403704,0.0-91.0-0.0,75.5,,,,,,49,1,0,0,1,coast,33,0.835702377130417,0.08654492476636592,0.05227666140621892,1,learn,
,html-keyboard-response,168,404707,0.0-91.0-1.0,null,,,<p></p>,null,,,,,,,,,,,,
,do_trial,169,407250,0.0-92.0-0.0,37.600000001490116,,,,,,49,1,0,1,1,coast,34,0.7071203807313525,0.2091831836544683,0.07729508575316434,1,learn,
,html-keyboard-response,170,408253,0.0-92.0-1.0,null,,,<p></p>,null,,,,,,,,,,,,
,do_trial,171,410851,0.0-93.0-0.0,91.60000000149012,,,,,,49,1,1,0,1,coast,35,0.735374463830522,0.3176015178816297,0.08583774150715541,1,learn,
,html-keyboard-response,172,411854,0.0-93.0-1.0,null,,,<p></p>,null,,,,,,,,,,,,
,do_trial,173,414544,0.0-94.0-0.0,183.10000000149012,,,,,,49,1,0,1,1,coast,36,0.6953567318050202,0.33659093975124843,0.15935171951117,1,learn,
,html-keyboard-response,174,415547,0.0-94.0-1.0,null,,,<p></p>,null,,,,,,,,,,,,
,do_trial,175,418410,0.0-95.0-0.0,357.70000000298023,,,,,,49,0,1,1,1,coast,37,0.6683761883037649,0.5889761667930212,0.20743520589552042,0,learn,
,html-keyboard-response,176,419413,0.0-95.0-1.0,null,,,<p></p>,null,,,,,,,,,,,,
,do_trial,177,421959,0.0-96.0-0.0,38.899999998509884,,,,,,50,1,1,0,1,coast,38,0.543687191921099,0.5401224651199908,0.057092222212954694,1,learn,
,html-keyboard-response,178,422961,0.0-96.0-1.0,null,,,<p></p>,null,,,,,,,,,,,,
,do_trial,179,425541,0.0-97.0-0.0,73.29999999701977,,,,,,50,0,0,1,1,coast,39,0.5726552674757912,0.19056438208092064,0.14933130119915122,0,learn,
,html-keyboard-response,180,426543,0.0-97.0-1.0,null,,,<p></p>,null,,,,,,,,,,,,
,do_trial,181,429222,0.0-98.0-0.0,173.5,,,,,,51,1,0,1,1,coast,40,0.6507900841142364,0.14104475657229826,0.2615823485002774,1,learn,
,html-keyboard-response,182,430225,0.0-98.0-1.0,null,,,<p></p>,null,,,,,,,,,,,,
,do_trial,183,432850,0.0-99.0-0.0,118.90000000596046,,,,,,51,1,0,0,1,coast,41,0.6773649924846789,0.12851464227532858,0.2178448221186558,0,learn,
,html-keyboard-response,184,433853,0.0-99.0-1.0,null,,,<p></p>,null,,,,,,,,,,,,
,do_trial,185,436550,0.0-100.0-0.0,191.20000000298023,,,,,,49,1,0,0,1,coast,42,0.6430777355501193,0.06080881146379182,0.3991067862980922,1,learn,
,html-keyboard-response,186,437553,0.0-100.0-1.0,null,,,<p></p>,null,,,,,,,,,,,,
,do_trial,187,440203,0.0-101.0-0.0,144.20000000298023,,,,,,49,0,0,1,1,coast,43,0.5153874713192198,0.09093452437716999,0.5649810682754769,0,learn,
,html-keyboard-response,188,441207,0.0-101.0-1.0,null,,,<p></p>,null,,,,,,,,,,,,
,do_trial,189,443792,0.0-102.0-0.0,79.70000000298023,,,,,,50,1,0,1,1,coast,44,0.4964746924705908,0.13269344937112354,0.48789660179498245,0,learn,
,html-keyboard-response,190,444795,0.0-102.0-1.0,null,,,<p></p>,null,,,,,,,,,,,,
,do_trial,191,447335,0.0-103.0-0.0,33.20000000298023,,,,,,51,1,1,0,1,coast,45,0.496332384996595,0.3003100669341842,0.6344016069930561,0,learn,
,html-keyboard-response,192,448338,0.0-103.0-1.0,null,,,<p></p>,null,,,,,,,,,,,,
,do_trial,193,450904,0.0-104.0-0.0,61.19999999552965,,,,,,49,0,0,0,1,coast,46,0.3524951800645524,0.2824421689634026,0.6592202644153333,0,learn,
,html-keyboard-response,194,451907,0.0-104.0-1.0,null,,,<p></p>,null,,,,,,,,,,,,
,do_trial,195,454556,0.0-105.0-0.0,143.19999999552965,,,,,,50,0,0,0,1,coast,47,0.41553911242906927,0.053289669535781424,0.624575505955238,0,learn,
,html-keyboard-response,196,455559,0.0-105.0-1.0,null,,,<p></p>,null,,,,,,,,,,,,
,do_trial,197,458093,0.0-106.0-0.0,27.299999997019768,,,,,,51,0,0,1,1,coast,48,0.17896267952344647,0.10536881531179422,0.4276562848416702,1,learn,
,html-keyboard-response,198,459096,0.0-106.0-1.0,null,,,<p></p>,null,,,,,,,,,,,,
,do_trial,199,461631,0.0-107.0-0.0,29.30000000447035,,,,,,51,0,0,1,1,coast,49,0.36829246201553417,0.12893054906582863,0.5255011825082836,1,learn,
,html-keyboard-response,200,462635,0.0-107.0-1.0,null,,,<p></p>,null,,,,,,,,,,,,
,do_trial,201,465440,0.0-108.0-0.0,298.8999999985099,,,,,,51,0,0,0,1,coast,50,0.23248365332985083,0.14696052943432406,0.5577680245984832,0,learn,
,html-keyboard-response,202,466443,0.0-108.0-1.0,null,,,<p></p>,null,,,,,,,,,,,,
,do_trial,203,469394,0.0-109.0-0.0,445.29999999701977,,,,,,49,0,0,1,1,coast,51,0.343991569464759,0.15139419693626846,0.44283716064457745,0,learn,
,html-keyboard-response,204,470397,0.0-109.0-1.0,null,,,<p></p>,null,,,,,,,,,,,,
,do_trial,205,473250,0.0-110.0-0.0,348,,,,,,50,0,0,1,1,coast,52,0.3024225127934401,0.10274643380045494,0.4555913217265918,0,learn,
,html-keyboard-response,206,474253,0.0-110.0-1.0,null,,,<p></p>,null,,,,,,,,,,,,
,do_trial,207,476853,0.0-111.0-0.0,94.89999999850988,,,,,,51,0,0,1,1,coast,53,0.31022859627118027,0.09804807097022304,0.5840702840741807,1,learn,
,html-keyboard-response,208,477856,0.0-111.0-1.0,null,,,<p></p>,null,,,,,,,,,,,,
,do_trial,209,480562,0.0-112.0-0.0,201.10000000149012,,,,,,51,0,1,0,1,coast,54,0.22718275154572376,0.1174576271578513,0.712513976827681,0,learn,
,html-keyboard-response,210,481566,0.0-112.0-1.0,null,,,<p></p>,null,,,,,,,,,,,,
,do_trial,211,484186,0.0-113.0-0.0,114.29999999701977,,,,,,51,1,0,1,1,coast,55,0.25972262809182833,0.062399768889265926,0.5975366782191918,1,learn,
,html-keyboard-response,212,485189,0.0-113.0-1.0,null,,,<p></p>,null,,,,,,,,,,,,
,do_trial,213,488004,0.0-114.0-0.0,308.29999999701977,,,,,,51,0,0,1,1,coast,56,0.2790581786508425,0.05707367701856018,0.5137166870559269,1,learn,
,html-keyboard-response,214,489007,0.0-114.0-1.0,null,,,<p></p>,null,,,,,,,,,,,,
,do_trial,215,491555,0.0-115.0-0.0,42.29999999701977,,,,,,51,1,1,1,1,coast,57,0.20627653283336891,0.141495335316667,0.5562860282287426,1,learn,
,html-keyboard-response,216,492558,0.0-115.0-1.0,null,,,<p></p>,null,,,,,,,,,,,,
,do_trial,217,495339,0.0-116.0-0.0,273.79999999701977,,,,,,51,0,0,1,1,coast,58,0.24279245806345376,0.194905201420389,0.6250222943893766,1,learn,
,html-keyboard-response,218,496342,0.0-116.0-1.0,null,,,<p></p>,null,,,,,,,,,,,,
,do_trial,219,499034,0.0-117.0-0.0,186.19999999552965,,,,,,51,0,0,1,1,coast,59,0.12639644303320557,0.22208937005313695,0.5806996220614732,1,learn,
,html-keyboard-response,220,500038,0.0-117.0-1.0,null,,,<p></p>,null,,,,,,,,,,,,
,do_trial,221,502572,0.0-118.0-0.0,29.30000000447035,,,,,,51,1,1,1,1,coast,60,0.2545202083451414,0.13046359560207202,0.6008072831687611,1,learn,
,html-keyboard-response,222,503576,0.0-118.0-1.0,null,,,<p></p>,null,,,,,,,,,,,,
,do_trial,223,506280,0.0-119.0-0.0,199.5,,,,,,51,0,0,0,1,coast,61,0.1959808283687083,0.15087630400012475,0.6698021631091372,0,learn,
,html-keyboard-response,224,507284,0.0-119.0-1.0,null,,,<p></p>,null,,,,,,,,,,,,
,do_trial,225,509937,0.0-120.0-0.0,147,,,,,,51,0,0,0,1,coast,62,0.26769746058186905,0.11596599696155797,0.6314785656582522,0,learn,
,html-keyboard-response,226,510940,0.0-120.0-1.0,null,,,<p></p>,null,,,,,,,,,,,,
,do_trial,227,513739,0.0-121.0-0.0,293,,,,,,51,0,0,0,1,coast,63,0.1332205616886872,0.1012163580899786,0.5644339489049263,0,learn,
,html-keyboard-response,228,514742,0.0-121.0-1.0,null,,,<p></p>,null,,,,,,,,,,,,
,do_trial,229,517952,0.0-122.0-0.0,703.0999999940395,,,,,,50,1,0,1,1,coast,64,0.12126784893348877,0.10064625384633218,0.6564180681336856,0,learn,
,html-keyboard-response,230,518955,0.0-122.0-1.0,null,,,<p></p>,null,,,,,,,,,,,,
,do_trial,231,521624,0.0-123.0-0.0,162.89999999850988,,,,,,49,0,0,0,1,coast,65,0.2254667409143695,0.1272641346477342,0.5663099658393791,0,learn,
,html-keyboard-response,232,522626,0.0-123.0-1.0,null,,,<p></p>,null,,,,,,,,,,,,
,do_trial,233,525280,0.0-124.0-0.0,147.89999999850988,,,,,,51,0,0,0,1,coast,66,0.27136225386773527,0.0773857129363255,0.6418678366582562,0,learn,
,html-keyboard-response,234,526283,0.0-124.0-1.0,null,,,<p></p>,null,,,,,,,,,,,,
,do_trial,235,528892,0.0-125.0-0.0,102.5,,,,,,49,0,0,1,1,coast,67,0.2282824534645343,0.1508933690357417,0.5918139720878005,0,learn,
,html-keyboard-response,236,529895,0.0-125.0-1.0,null,,,<p></p>,null,,,,,,,,,,,,
,do_trial,237,532616,0.0-126.0-0.0,214.69999999552965,,,,,,50,0,0,1,1,coast,68,0.2521145551081618,0.10569540768878645,0.5857043764972152,0,learn,
,html-keyboard-response,238,533619,0.0-126.0-1.0,null,,,<p></p>,null,,,,,,,,,,,,
,do_trial,239,536203,0.0-127.0-0.0,76.5,,,,,,51,0,1,1,1,coast,69,0.2266319594166209,0.3155443767662899,0.684523449988253,1,learn,
,html-keyboard-response,240,537206,0.0-127.0-1.0,null,,,<p></p>,null,,,,,,,,,,,,
,attention_check,241,537438,0.0-128.0-0.0,230.5,,,<div style='position:relative; margin-top: 600px;'><p>Before we set sail — press the <b>Z</b> key to continue!</p></div>,51,,,,,,,,,,,,false
,do_bye,242,538944,0.0-128.0-1.0,null,,,,,,null,,,,,,,,,,
,break,243,539042,0.0-128.0-2.0,96.5,,,<div class='center'><p>Time to take a quick break! You have 2 minutes to rest, but you can move on sooner if you'd like.</p><p> Press the <b>space bar</b> to continue.</p></div>,32,,,,,,,,,,,,
,do_travel,244,548047,0.0-129.0-0.0,null,,,,,,null,,,,,,,,,,
