success,trial_type,trial_index,time_elapsed,internal_node_id,rt,responses,subject_id,stimulus,key_press,prompt,response,choice_outcomes
true,fullscreen,0,7524,0.0-0.0,,,,,,,,
,survey-html-form,1,11626,0.0-1.0,4100.4000000059605,{worker_id:malcolm},malcolm,,,,,
,instruc1,2,13629,0.0-2.0,null,,malcolm,<div class='center'><p>Welcome! This study will last ~30 minutes. After the instructions there will be a practice game and quiz to make sure you understand the task. Today you will be the head captain of a pirate ship traveling around the world to different islands. Here is an overview of what you will be doing:</p><br><p> 1. Try to find the most successful pirate on 6 different islands</p><p> 2. Recall which pirates did the best on each island</p><br><p>,null,<div class='center'><p>Welcome! This study will last ~30 minutes. After the instructions there will be a practice game and quiz to make sure you understand the task. Today you will be the head captain of a pirate ship traveling around the world to different islands. Here is an overview of what you will be doing:</p><br><p> 1. Try to find the most successful pirate on 6 different islands</p><p> 2. Recall which pirates did the best on each island</p><br><p>,,
,html-keyboard-response,3,16491,0.0-3.0,2859,,,<div class='center'><p>Welcome! This study will last ~30 minutes. After the instructions there will be a practice game and quiz to make sure you understand the task. Today you will be the head captain of a pirate ship traveling around the world to different islands. Here is an overview of what you will be doing:</p><br><p> 1. Try to find the most successful pirate on 6 different islands</p><p> 2. Recall which pirates did the best on each island</p><br><p><p><b>[Press the space bar to continue]</b></p></div>,32,,,
,instruc2,4,18493,0.0-4.0,null,,,<div class='center'><p>You are going to visit these 6 islands on your journey. You'll be able to see these islands from your ship.</p><p><img src='../static/images/contexts/all_contexts.png' height='500'></p></div>,null,<div class='center'><p>You are going to visit these 6 islands on your journey. You'll be able to see these islands from your ship.</p><p><img src='../static/images/contexts/all_contexts.png' height='500'></p></div>,,
,html-keyboard-response,5,19168,0.0-5.0,672.6999999880791,,,<div class='center'><p>You are going to visit these 6 islands on your journey. You'll be able to see these islands from your ship.</p><p><img src='../static/images/contexts/all_contexts.png' height='500'></p><p><b>[Press the space bar to continue]</b></p></div>,32,,,
,instruc4,6,21171,0.0-6.0,null,,,<div class='center'><p>As the head captain, you do not have to rob any ships yourself. Another pirate will be doing the robbing for you. First, you will choose a pirate to rob the next ship.</p><p><img src='../static/images/tutorial/pirates_all_crop.png' height='200'></p><p>Then, you'll see if the pirate successfully robbed the ship of their gold. If they were successful, then you'll get a stack of gold coins like this:</p><p><img src='../static/images/tutorial/reward.png' height='150'></p><p> If they were <b>not</b> successful, then you'll get no gold coins, and you'll see a big red x like this: </p><p><img src='../static/images/tutorial/reward_no.png' height='150'></p><p> How much bonus money you make is based on how many gold coins you collect.</p><div>,null,<div class='center'><p>As the head captain, you do not have to rob any ships yourself. Another pirate will be doing the robbing for you. First, you will choose a pirate to rob the next ship.</p><p><img src='../static/images/tutorial/pirates_all_crop.png' height='200'></p><p>Then, you'll see if the pirate successfully robbed the ship of their gold. If they were successful, then you'll get a stack of gold coins like this:</p><p><img src='../static/images/tutorial/reward.png' height='150'></p><p> If they were <b>not</b> successful, then you'll get no gold coins, and you'll see a big red x like this: </p><p><img src='../static/images/tutorial/reward_no.png' height='150'></p><p> How much bonus money you make is based on how many gold coins you collect.</p><div>,,
,html-keyboard-response,7,31178,0.0-7.0,10004.90000000596,,,<div class='center'><p>As the head captain, you do not have to rob any ships yourself. Another pirate will be doing the robbing for you. First, you will choose a pirate to rob the next ship.</p><p><img src='../static/images/tutorial/pirates_all_crop.png' height='200'></p><p>Then, you'll see if the pirate successfully robbed the ship of their gold. If they were successful, then you'll get a stack of gold coins like this:</p><p><img src='../static/images/tutorial/reward.png' height='150'></p><p> If they were <b>not</b> successful, then you'll get no gold coins, and you'll see a big red x like this: </p><p><img src='../static/images/tutorial/reward_no.png' height='150'></p><p> How much bonus money you make is based on how many gold coins you collect.</p><div><p><b>[Press the space bar to continue]</b></p></div>,32,,,
,instruc5,8,37571,0.0-8.0,6391.800000011921,,,<div class='center'><p>Even the most skilled pirate can not rob EVERY ship.</p><p> Some ships will have very strong protections against pirate attacks.</p><p> Blue beard, here, is very, very good at robbing ships, but he won't be successful every time he tries to rob one.</p><p> You can press the <b>'1'</b> key on the keyboard to choose him.</p><p> Try choosing him 10 times to see how often he succeeds at robbing a ship. </p><p><img src='../static/images/tutorial/blue.png' height='500'></p></div>,49,<div class='center'><p>Even the most skilled pirate can not rob EVERY ship.</p><p> Some ships will have very strong protections against pirate attacks.</p><p> Blue beard, here, is very, very good at robbing ships, but he won't be successful every time he tries to rob one.</p><p> You can press the <b>'1'</b> key on the keyboard to choose him.</p><p> Try choosing him 10 times to see how often he succeeds at robbing a ship. </p><p><img src='../static/images/tutorial/blue.png' height='500'></p></div>,,
,html-keyboard-response,9,39074,0.0-9.0,null,,,<div class='center'><p><img src='../static/images/tutorial/blue_win.png' height='500'></p></div>,null,,,
,html-keyboard-response,10,39619,0.0-10.0,543.4000000059605,,,<div class='center'><img src='../static/images/tutorial/blue.png' height='500'></p></div>,49,,,
,html-keyboard-response,11,41122,0.0-11.0,null,,,<div class='center'><p><img src='../static/images/tutorial/blue_win.png' height='500'></p></div>,null,,,
,html-keyboard-response,12,41450,0.0-12.0,326.09999999403954,,,<div class='center'><img src='../static/images/tutorial/blue.png' height='500'></p></div>,49,,,
,html-keyboard-response,13,42952,0.0-13.0,null,,,<div class='center'><p><img src='../static/images/tutorial/blue_win.png' height='500'></p></div>,null,,,
,html-keyboard-response,14,43242,0.0-14.0,287.7999999821186,,,<div class='center'><img src='../static/images/tutorial/blue.png' height='500'></p></div>,49,,,
,html-keyboard-response,15,44744,0.0-15.0,null,,,<div class='center'><p><img src='../static/images/tutorial/blue_no_win.png' height='500'></p></div>,null,,,
,html-keyboard-response,16,45019,0.0-16.0,273.19999998807907,,,<div class='center'><img src='../static/images/tutorial/blue.png' height='500'></p></div>,49,,,
,html-keyboard-response,17,46522,0.0-17.0,null,,,<div class='center'><p><img src='../static/images/tutorial/blue_win.png' height='500'></p></div>,null,,,
,html-keyboard-response,18,46774,0.0-18.0,250.90000000596046,,,<div class='center'><img src='../static/images/tutorial/blue.png' height='500'></p></div>,49,,,
,html-keyboard-response,19,48276,0.0-19.0,null,,,<div class='center'><p><img src='../static/images/tutorial/blue_win.png' height='500'></p></div>,null,,,
,html-keyboard-response,20,48453,0.0-20.0,175.80000001192093,,,<div class='center'><img src='../static/images/tutorial/blue.png' height='500'></p></div>,49,,,
,html-keyboard-response,21,49956,0.0-21.0,null,,,<div class='center'><p><img src='../static/images/tutorial/blue_win.png' height='500'></p></div>,null,,,
,html-keyboard-response,22,50001,0.0-22.0,44.5,,,<div class='center'><img src='../static/images/tutorial/blue.png' height='500'></p></div>,49,,,
,html-keyboard-response,23,51504,0.0-23.0,null,,,<div class='center'><p><img src='../static/images/tutorial/blue_no_win.png' height='500'></p></div>,null,,,
,html-keyboard-response,24,51616,0.0-24.0,109.90000000596046,,,<div class='center'><img src='../static/images/tutorial/blue.png' height='500'></p></div>,49,,,
,html-keyboard-response,25,53119,0.0-25.0,null,,,<div class='center'><p><img src='../static/images/tutorial/blue_win.png' height='500'></p></div>,null,,,
,html-keyboard-response,26,53175,0.0-26.0,54.900000005960464,,,<div class='center'><img src='../static/images/tutorial/blue.png' height='500'></p></div>,49,,,
,html-keyboard-response,27,54678,0.0-27.0,null,,,<div class='center'><p><img src='../static/images/tutorial/blue_win.png' height='500'></p></div>,null,,,
,instruc6,28,56680,0.0-28.0,null,,,<div class='center'><p> See, he succeeded in robbing the ships most of the time but not every time. </p></div>,null,<div class='center'><p> See, he succeeded in robbing the ships most of the time but not every time. </p></div>,,
,html-keyboard-response,29,57285,0.0-29.0,602.9000000059605,,,<div class='center'><p> See, he succeeded in robbing the ships most of the time but not every time. </p><p><b>[Press the space bar to continue]</b></p></div>,32,,,
,html-keyboard-response,30,59903,0.0-30.0,2616.100000023842,,,<div class='center'><p>From these three pirates, you will get to choose which one you want to rob the next ship. <p>Press the <b>'1'</b> key on your keyboard to pick the pirate with the red beard.</p><p> Press <b>'2'</b> to pick the pirate with the white beard.</p><p> Press <b>'3'</b> to pick the pirate with the black beard.</p><p>Try picking a pirate now!</p><p><img src='../static/images/tutorial/all_pirates.png' height='500'></p></div>,49,,,
,html-keyboard-response,31,62815,0.0-31.0-0.0,2909.800000011921,,,<div class='center'><p>Yay! This pirate succeeded in robbing the ship!</p><p><img src='../static/images/tutorial/red_win.png' height='500'></p><p><b>[Press the space bar to continue]</b></p></div>,32,,,
,html-keyboard-response,32,63433,0.0-31.0-1.0,616.5,,,<div class='center'><p>Now try choosing another.</p><p><img src='../static/images/tutorial/all_pirates.png' height='500'></p></div>,50,,,
,html-keyboard-response,33,64202,0.0-32.0-0.0,767.5,,,<div class='center'><p>Oh no! This pirate did not succeed in robbing the ship.</p><p><img src='../static/images/tutorial/white_no_win.png' height='500'></p><p><b>[Press the space bar to continue]</b></p></div>,32,,,
,instruc9,34,66205,0.0-33.0-0.0,null,,,<div class='center'><p>If you don't make your choice fast enough, you'll have to wait a few seconds before you can make another one. </p><p><img src='../static/images/miscellaneous/hurry_up.png' height='500'></p></div>,null,<div class='center'><p>If you don't make your choice fast enough, you'll have to wait a few seconds before you can make another one. </p><p><img src='../static/images/miscellaneous/hurry_up.png' height='500'></p></div>,,
,html-keyboard-response,35,67072,0.0-33.0-1.0,865.6999999880791,,,<div class='center'><p>If you don't make your choice fast enough, you'll have to wait a few seconds before you can make another one. </p><p><img src='../static/images/miscellaneous/hurry_up.png' height='500'></p><p><b>[Press the space bar to continue]</b></p></div>,32,,,
,instruc11,36,69074,0.0-33.0-2.0,null,,,<div class='center'><p>How successful a pirate is at robbing ships will depend on the island you're on.</p><p> A pirate may have visited this island many times before and gained a lot of practice robbing ships there.</p><p>So, they're more likely to be successful than a pirate who has never visited the island before.</p></div>,null,<div class='center'><p>How successful a pirate is at robbing ships will depend on the island you're on.</p><p> A pirate may have visited this island many times before and gained a lot of practice robbing ships there.</p><p>So, they're more likely to be successful than a pirate who has never visited the island before.</p></div>,,
,html-keyboard-response,37,70563,0.0-33.0-3.0,1487.4000000059605,,,<div class='center'><p>How successful a pirate is at robbing ships will depend on the island you're on.</p><p> A pirate may have visited this island many times before and gained a lot of practice robbing ships there.</p><p>So, they're more likely to be successful than a pirate who has never visited the island before.</p><p><b>[Press the space bar to continue]</b></p></div>,32,,,
,instruc12,38,72566,0.0-33.0-4.0,null,,,<div class='center'><p>How successful a pirate is at robbing ships can also change over the time spent on the island. </p><p> Ships may hear from islanders about the pirates coming and will improve their protections against the attack. This may make it harder to rob them.</p><p> Ships may also become lazy and weaken the strength of their protections. This may make it easier to rob them.</p><br><p>Things are always changing on the high seas! So, try your best to pay attention!</p><p><img src='../static/images/tutorial/contingency.png' height='500'></p></div>,null,<div class='center'><p>How successful a pirate is at robbing ships can also change over the time spent on the island. </p><p> Ships may hear from islanders about the pirates coming and will improve their protections against the attack. This may make it harder to rob them.</p><p> Ships may also become lazy and weaken the strength of their protections. This may make it easier to rob them.</p><br><p>Things are always changing on the high seas! So, try your best to pay attention!</p><p><img src='../static/images/tutorial/contingency.png' height='500'></p></div>,,
,html-keyboard-response,39,90068,0.0-33.0-5.0,17500.30000001192,,,<div class='center'><p>How successful a pirate is at robbing ships can also change over the time spent on the island. </p><p> Ships may hear from islanders about the pirates coming and will improve their protections against the attack. This may make it harder to rob them.</p><p> Ships may also become lazy and weaken the strength of their protections. This may make it easier to rob them.</p><br><p>Things are always changing on the high seas! So, try your best to pay attention!</p><p><img src='../static/images/tutorial/contingency.png' height='500'></p><p><b>[Press the space bar to continue]</b></p></div>,32,,,
,instruc13,40,92070,0.0-33.0-6.0,null,,,<div class='center'><p>Let's go over the instructions quickly again. You have one thing to do: </p><p><b>Pick the pirate who is the best at robbing ships on the current island.</b></p><p>The amount of bonus money you win depends on it.</p><br><p>Let's try a practice game. The game will start by showing you an island. Pick a pirate using the <b>1, 2, 3</b> keys on your keyboard to get it to try and rob one of the ships leaving the island.</p><p>This is just a practice game, so you're not playing for money.</p><p>Good luck! This game will be very difficult but try your best!</p></div>,null,<div class='center'><p>Let's go over the instructions quickly again. You have one thing to do: </p><p><b>Pick the pirate who is the best at robbing ships on the current island.</b></p><p>The amount of bonus money you win depends on it.</p><br><p>Let's try a practice game. The game will start by showing you an island. Pick a pirate using the <b>1, 2, 3</b> keys on your keyboard to get it to try and rob one of the ships leaving the island.</p><p>This is just a practice game, so you're not playing for money.</p><p>Good luck! This game will be very difficult but try your best!</p></div>,,
,html-keyboard-response,41,103005,0.0-33.0-7.0,10933.199999988079,,,<div class='center'><p>Let's go over the instructions quickly again. You have one thing to do: </p><p><b>Pick the pirate who is the best at robbing ships on the current island.</b></p><p>The amount of bonus money you win depends on it.</p><br><p>Let's try a practice game. The game will start by showing you an island. Pick a pirate using the <b>1, 2, 3</b> keys on your keyboard to get it to try and rob one of the ships leaving the island.</p><p>This is just a practice game, so you're not playing for money.</p><p>Good luck! This game will be very difficult but try your best!</p><p><b>[Press the space bar to continue]</b></p></div>,32,,,
,do_welcome,42,107017,0.0-33.0-8.0,null,,,,,,null,
,do_trial,43,110455,0.0-33.0-9.0,930.8000000119209,,,,,,49,1,0,0
,html-keyboard-response,44,111458,0.0-34.0-0.0,null,,,<p></p>,null,,,
,do_trial,45,114348,0.0-34.0-1.0,383.80000001192093,,,,,,50,1,1,0
,html-keyboard-response,46,115351,0.0-35.0-0.0,null,,,<p></p>,null,,,
,do_trial,47,118263,0.0-35.0-1.0,405,,,,,,51,1,0,1
,html-keyboard-response,48,119267,0.0-36.0-0.0,null,,,<p></p>,null,,,
,do_trial,49,122702,0.0-36.0-1.0,928.9000000059605,,,,,,50,0,1,0
,html-keyboard-response,50,123705,0.0-37.0-0.0,null,,,<p></p>,null,,,
,do_trial,51,126608,0.0-37.0-1.0,396.90000000596046,,,,,,51,1,0,0
,do_bye,52,128116,0.0-38.0-0.0,null,,,,,,null,
,do_travel,53,137122,0.0-38.0-1.0,null,,,,,,null,
,do_welcome,54,141128,0.0-38.0-2.0,null,,,,,,null,
,do_trial,55,147134,0.0-38.0-3.0,null,,,,,,null,1,0,0
,do_bye,56,148640,0.0-39.0-0.0,null,,,,,,null,
,do_travel,57,157647,0.0-39.0-1.0,null,,,,,,null,
,do_welcome,58,161654,0.0-39.0-2.0,null,,,,,,null,
,do_trial,59,164604,0.0-39.0-3.0,443.2000000178814,,,,,,50,1,0,0
,html-keyboard-response,60,165609,0.0-40.0-0.0,null,,,<p></p>,null,,,
,do_trial,61,168399,0.0-40.0-1.0,282.2000000178814,,,,,,51,1,0,1
,html-keyboard-response,62,169403,0.0-41.0-0.0,null,,,<p></p>,null,,,
,do_trial,63,172276,0.0-41.0-1.0,364.19999998807907,,,,,,49,1,1,0
,html-keyboard-response,64,173279,0.0-42.0-0.0,null,,,<p></p>,null,,,
,do_trial,65,176203,0.0-42.0-1.0,420.80000001192093,,,,,,50,0,0,1
,html-keyboard-response,66,177207,0.0-43.0-0.0,null,,,<p></p>,null,,,
,do_trial,67,180610,0.0-43.0-1.0,896.9000000059605,,,,,,51,1,0,1
,html-keyboard-response,68,182320,0.0-44.0-0.0,1704.800000011921,,,<div class='center'><p><img src='../static/images/tutorial/prac_best_pirate.png' height='500'></p></div>,49,,,
,html-keyboard-response,69,183382,0.0-45.0-0.0,1060.1000000238419,,,<div class='center'><p>That's correct! Red beard was the best.</p><p><b>[Press the space bar to continue]</b></p></div>,32,,,
,quiz_beginning,70,185385,0.0-45.0-1.0,null,,,<div class='center'><p>Good job on the practice game! Now, you will be asked some true or false questions to make sure you really understand the rules of the game.</p><p> Press <b>'1'</b> on the keyboard for true and press <b>'2'</b> for false.</p></div>,null,<div class='center'><p>Good job on the practice game! Now, you will be asked some true or false questions to make sure you really understand the rules of the game.</p><p> Press <b>'1'</b> on the keyboard for true and press <b>'2'</b> for false.</p></div>,,
,html-keyboard-response,71,187666,0.0-45.0-2.0,2279.9000000059605,,,<div class='center'><p>You win bonus money by collecting gold coins.</p><p>Press 1 for true and press  2 for false.</p></div>,49,,,
,correct,72,189669,0.0-46.0-0.0,null,,,<div class='center'><p>That's correct!</p></div>,null,<div class='center'><p>That's correct!</p></div>,,
,html-keyboard-response,73,190437,0.0-46.0-1.0,766.2999999821186,,,<div class='center'><p>That's correct!</p><p><b>[Press the space bar to continue]</b></p></div>,32,,,
,html-keyboard-response,74,192945,0.0-46.0-2.0,2507,,,<div class='center'><p>The pirate who is the best at robbing ships when you first arrive on the island will definitely still be the best when you leave the island. </p><p>Press 1 for true and press  2 for false.</p></div>,50,,,
,correct,75,194948,0.0-47.0-0.0,null,,,<div class='center'><p>That's correct!</p></div>,null,<div class='center'><p>That's correct!</p></div>,,
,html-keyboard-response,76,196150,0.0-47.0-1.0,1201.199999988079,,,<div class='center'><p>That's correct!</p><p><b>[Press the space bar to continue]</b></p></div>,32,,,
,html-keyboard-response,77,198484,0.0-47.0-2.0,2333.0999999940395,,,<div class='center'><p>The pirate who is the best at robbing ships on the first island will be the best on every other island.</p><p>Press 1 for true and press  2 for false.</p></div>,50,,,
,correct,78,200486,0.0-48.0-0.0,null,,,<div class='center'><p>That's correct!</p></div>,null,<div class='center'><p>That's correct!</p></div>,,
,html-keyboard-response,79,201073,0.0-48.0-1.0,585.6999999880791,,,<div class='center'><p>That's correct!</p><p><b>[Press the space bar to continue]</b></p></div>,32,,,
,html-keyboard-response,80,203148,0.0-48.0-2.0,2073.899999976158,,,<div class='center'><p>You should remember the island where a pirate robbed a ship.</p><p>Press 1 for true and press  2 for false.</p></div>,49,,,
,correct,81,205170,0.0-49.0-0.0,null,,,<div class='center'><p>That's correct!</p></div>,null,<div class='center'><p>That's correct!</p></div>,,
,html-keyboard-response,82,205788,0.0-49.0-1.0,616.5999999940395,,,<div class='center'><p>That's correct!</p><p><b>[Press the space bar to continue]</b></p></div>,32,,,
,q_all_corr,83,207793,0.0-50.0-0.0,null,,,<div class='center'><p>Good job! You’re now ready to move on to the real game! Remember this game will be difficult but don't get discouraged and try your best!</p></div>,null,<div class='center'><p>Good job! You’re now ready to move on to the real game! Remember this game will be difficult but don't get discouraged and try your best!</p></div>,,
,html-keyboard-response,84,208513,0.0-50.0-1.0,718.1999999880791,,,<div class='center'><p>Good job! You’re now ready to move on to the real game! Remember this game will be difficult but don't get discouraged and try your best!</p><p><b>[Press the space bar to continue]</b></p></div>,32,,,
