success,trial_type,trial_index,time_elapsed,internal_node_id,rt,responses,subject_id,stimulus,key_press,prompt,response,choice_outcomes,context_n,context_img_id,trial_n,pR_red,pR_white,pR_black,outcome,phase
true,fullscreen,0,3042,0.0-0.0,,,,,,,,,,,,,,,,
,survey-html-form,1,12115,0.0-1.0,9070.099999904633,{worker_id:PLEASEEE},PLEASEEE,,,,,,,,,,,,,
,instruc1,2,14120,0.0-2.0,null,,PLEASEEE,<div class='center'><p>Welcome! This study will last ~30 minutes. After the instructions there will be a practice game and quiz to make sure you understand the task. Today you will be the head captain of a pirate ship traveling around the world to different islands. Here is an overview of what you will be doing:</p><br><p> 1. Try to find the most successful pirate on 6 different islands</p><p> 2. Recall which pirates did the best on each island</p><br><p>,null,<div class='center'><p>Welcome! This study will last ~30 minutes. After the instructions there will be a practice game and quiz to make sure you understand the task. Today you will be the head captain of a pirate ship traveling around the world to different islands. Here is an overview of what you will be doing:</p><br><p> 1. Try to find the most successful pirate on 6 different islands</p><p> 2. Recall which pirates did the best on each island</p><br><p>,,,,,,,,,,
,html-keyboard-response,3,14959,0.0-3.0,837.5999999046326,,,<div class='center'><p>Welcome! This study will last ~30 minutes. After the instructions there will be a practice game and quiz to make sure you understand the task. Today you will be the head captain of a pirate ship traveling around the world to different islands. Here is an overview of what you will be doing:</p><br><p> 1. Try to find the most successful pirate on 6 different islands</p><p> 2. Recall which pirates did the best on each island</p><br><p><p><b>[Press the space bar to continue]</b></p></div>,32,,,,,,,,,,,
,instruc2,4,16965,0.0-4.0,null,,,<div class='center'><p>You are going to visit these 6 islands on your journey. You'll be able to see these islands from your ship.</p><p><img src='../static/images/contexts/all_contexts.png' height='500'></p></div>,null,<div class='center'><p>You are going to visit these 6 islands on your journey. You'll be able to see these islands from your ship.</p><p><img src='../static/images/contexts/all_contexts.png' height='500'></p></div>,,,,,,,,,,
,html-keyboard-response,5,17600,0.0-5.0,633.4000000953674,,,<div class='center'><p>You are going to visit these 6 islands on your journey. You'll be able to see these islands from your ship.</p><p><img src='../static/images/contexts/all_contexts.png' height='500'></p><p><b>[Press the space bar to continue]</b></p></div>,32,,,,,,,,,,,
,instruc4,6,19617,0.0-6.0,null,,,<div class='center'><p>As the head captain, you do not have to rob any ships yourself. Another pirate will be doing the robbing for you. First, you will choose a pirate to rob the next ship.</p><p><img src='../static/images/tutorial/pirates_all_crop.png' height='200'></p><p>Then, you'll see if the pirate successfully robbed the ship of their gold. If they were successful, then you'll get a stack of gold coins like this:</p><p><img src='../static/images/tutorial/reward.png' height='150'></p><p> If they were <b>not</b> successful, then you'll get no gold coins, and you'll see a big red x like this: </p><p><img src='../static/images/tutorial/reward_no.png' height='150'></p><p> How much bonus money you make is based on how many gold coins you collect.</p><div>,null,<div class='center'><p>As the head captain, you do not have to rob any ships yourself. Another pirate will be doing the robbing for you. First, you will choose a pirate to rob the next ship.</p><p><img src='../static/images/tutorial/pirates_all_crop.png' height='200'></p><p>Then, you'll see if the pirate successfully robbed the ship of their gold. If they were successful, then you'll get a stack of gold coins like this:</p><p><img src='../static/images/tutorial/reward.png' height='150'></p><p> If they were <b>not</b> successful, then you'll get no gold coins, and you'll see a big red x like this: </p><p><img src='../static/images/tutorial/reward_no.png' height='150'></p><p> How much bonus money you make is based on how many gold coins you collect.</p><div>,,,,,,,,,,
,html-keyboard-response,7,21004,0.0-7.0,1383.8999996185303,,,<div class='center'><p>As the head captain, you do not have to rob any ships yourself. Another pirate will be doing the robbing for you. First, you will choose a pirate to rob the next ship.</p><p><img src='../static/images/tutorial/pirates_all_crop.png' height='200'></p><p>Then, you'll see if the pirate successfully robbed the ship of their gold. If they were successful, then you'll get a stack of gold coins like this:</p><p><img src='../static/images/tutorial/reward.png' height='150'></p><p> If they were <b>not</b> successful, then you'll get no gold coins, and you'll see a big red x like this: </p><p><img src='../static/images/tutorial/reward_no.png' height='150'></p><p> How much bonus money you make is based on how many gold coins you collect.</p><div><p><b>[Press the space bar to continue]</b></p></div>,32,,,,,,,,,,,
,instruc5,8,22278,0.0-8.0,1272.4000000953674,,,<div class='center'><p>Even the most skilled pirate can not rob EVERY ship.</p><p> Some ships will have very strong protections against pirate attacks.</p><p> Blue beard, here, is very, very good at robbing ships, but he won't be successful every time he tries to rob one.</p><p> You can press the <b>'1'</b> key on the keyboard to choose him.</p><p> Try choosing him 10 times to see how often he succeeds at robbing a ship. </p><p><img src='../static/images/tutorial/blue.png' height='500'></p></div>,49,<div class='center'><p>Even the most skilled pirate can not rob EVERY ship.</p><p> Some ships will have very strong protections against pirate attacks.</p><p> Blue beard, here, is very, very good at robbing ships, but he won't be successful every time he tries to rob one.</p><p> You can press the <b>'1'</b> key on the keyboard to choose him.</p><p> Try choosing him 10 times to see how often he succeeds at robbing a ship. </p><p><img src='../static/images/tutorial/blue.png' height='500'></p></div>,,,,,,,,,,
,html-keyboard-response,9,23783,0.0-9.0,null,,,<div class='center'><p><img src='../static/images/tutorial/blue_win.png' height='500'></p></div>,null,,,,,,,,,,,
,html-keyboard-response,10,24629,0.0-10.0,844.6999998092651,,,<div class='center'><img src='../static/images/tutorial/blue.png' height='500'></p></div>,49,,,,,,,,,,,
,html-keyboard-response,11,26136,0.0-11.0,null,,,<div class='center'><p><img src='../static/images/tutorial/blue_win.png' height='500'></p></div>,null,,,,,,,,,,,
,html-keyboard-response,12,26724,0.0-12.0,586.5999999046326,,,<div class='center'><img src='../static/images/tutorial/blue.png' height='500'></p></div>,49,,,,,,,,,,,
,html-keyboard-response,13,28227,0.0-13.0,null,,,<div class='center'><p><img src='../static/images/tutorial/blue_win.png' height='500'></p></div>,null,,,,,,,,,,,
,html-keyboard-response,14,28491,0.0-14.0,262.59999990463257,,,<div class='center'><img src='../static/images/tutorial/blue.png' height='500'></p></div>,49,,,,,,,,,,,
,html-keyboard-response,15,29996,0.0-15.0,null,,,<div class='center'><p><img src='../static/images/tutorial/blue_no_win.png' height='500'></p></div>,null,,,,,,,,,,,
,html-keyboard-response,16,30223,0.0-16.0,225.90000009536743,,,<div class='center'><img src='../static/images/tutorial/blue.png' height='500'></p></div>,49,,,,,,,,,,,
,html-keyboard-response,17,31730,0.0-17.0,null,,,<div class='center'><p><img src='../static/images/tutorial/blue_win.png' height='500'></p></div>,null,,,,,,,,,,,
,html-keyboard-response,18,32008,0.0-18.0,277,,,<div class='center'><img src='../static/images/tutorial/blue.png' height='500'></p></div>,49,,,,,,,,,,,
,html-keyboard-response,19,33513,0.0-19.0,null,,,<div class='center'><p><img src='../static/images/tutorial/blue_win.png' height='500'></p></div>,null,,,,,,,,,,,
,html-keyboard-response,20,33659,0.0-20.0,144.80000019073486,,,<div class='center'><img src='../static/images/tutorial/blue.png' height='500'></p></div>,49,,,,,,,,,,,
,html-keyboard-response,21,35162,0.0-21.0,null,,,<div class='center'><p><img src='../static/images/tutorial/blue_win.png' height='500'></p></div>,null,,,,,,,,,,,
,html-keyboard-response,22,35917,0.0-22.0,754.2000002861023,,,<div class='center'><img src='../static/images/tutorial/blue.png' height='500'></p></div>,49,,,,,,,,,,,
,html-keyboard-response,23,37421,0.0-23.0,null,,,<div class='center'><p><img src='../static/images/tutorial/blue_no_win.png' height='500'></p></div>,null,,,,,,,,,,,
,html-keyboard-response,24,37765,0.0-24.0,342.90000009536743,,,<div class='center'><img src='../static/images/tutorial/blue.png' height='500'></p></div>,49,,,,,,,,,,,
,html-keyboard-response,25,39270,0.0-25.0,null,,,<div class='center'><p><img src='../static/images/tutorial/blue_win.png' height='500'></p></div>,null,,,,,,,,,,,
,html-keyboard-response,26,39501,0.0-26.0,229.5,,,<div class='center'><img src='../static/images/tutorial/blue.png' height='500'></p></div>,49,,,,,,,,,,,
,html-keyboard-response,27,41014,0.0-27.0,null,,,<div class='center'><p><img src='../static/images/tutorial/blue_win.png' height='500'></p></div>,null,,,,,,,,,,,
,instruc6,28,43030,0.0-28.0,null,,,<div class='center'><p> See, he succeeded in robbing the ships most of the time but not every time. </p></div>,null,<div class='center'><p> See, he succeeded in robbing the ships most of the time but not every time. </p></div>,,,,,,,,,,
,html-keyboard-response,29,44694,0.0-29.0,1662,,,<div class='center'><p> See, he succeeded in robbing the ships most of the time but not every time. </p><p><b>[Press the space bar to continue]</b></p></div>,32,,,,,,,,,,,
,html-keyboard-response,30,46330,0.0-30.0,1635.3000001907349,,,<div class='center'><p>From these three pirates, you will get to choose which one you want to rob the next ship. <p>Press the <b>'1'</b> key on your keyboard to pick the pirate with the red beard.</p><p> Press <b>'2'</b> to pick the pirate with the white beard.</p><p> Press <b>'3'</b> to pick the pirate with the black beard.</p><p>Try picking a pirate now!</p><p><img src='../static/images/tutorial/all_pirates.png' height='500'></p></div>,49,,,,,,,,,,,
,html-keyboard-response,31,46722,0.0-31.0-0.0,388.8999996185303,,,<div class='center'><p>Yay! This pirate succeeded in robbing the ship!</p><p><img src='../static/images/tutorial/red_win.png' height='500'></p><p><b>[Press the space bar to continue]</b></p></div>,32,,,,,,,,,,,
,html-keyboard-response,32,47494,0.0-31.0-1.0,770.7999997138977,,,<div class='center'><p>Now try choosing another.</p><p><img src='../static/images/tutorial/all_pirates.png' height='500'></p></div>,50,,,,,,,,,,,
,html-keyboard-response,33,47797,0.0-32.0-0.0,301.09999990463257,,,<div class='center'><p>Oh no! This pirate did not succeed in robbing the ship.</p><p><img src='../static/images/tutorial/white_no_win.png' height='500'></p><p><b>[Press the space bar to continue]</b></p></div>,32,,,,,,,,,,,
,instruc9,34,49803,0.0-33.0-0.0,null,,,<div class='center'><p>If you don't make your choice fast enough, you'll have to wait a few seconds before you can make another one. </p><p><img src='../static/images/miscellaneous/hurry_up.png' height='500'></p></div>,null,<div class='center'><p>If you don't make your choice fast enough, you'll have to wait a few seconds before you can make another one. </p><p><img src='../static/images/miscellaneous/hurry_up.png' height='500'></p></div>,,,,,,,,,,
,html-keyboard-response,35,51578,0.0-33.0-1.0,1773.1000003814697,,,<div class='center'><p>If you don't make your choice fast enough, you'll have to wait a few seconds before you can make another one. </p><p><img src='../static/images/miscellaneous/hurry_up.png' height='500'></p><p><b>[Press the space bar to continue]</b></p></div>,32,,,,,,,,,,,
,instruc11,36,53582,0.0-33.0-2.0,null,,,<div class='center'><p>How successful a pirate is at robbing ships will depend on the island you're on.</p><p> A pirate may have visited this island many times before and gained a lot of practice robbing ships there.</p><p>So, they're more likely to be successful than a pirate who has never visited the island before.</p></div>,null,<div class='center'><p>How successful a pirate is at robbing ships will depend on the island you're on.</p><p> A pirate may have visited this island many times before and gained a lot of practice robbing ships there.</p><p>So, they're more likely to be successful than a pirate who has never visited the island before.</p></div>,,,,,,,,,,
,html-keyboard-response,37,54056,0.0-33.0-3.0,473.2000002861023,,,<div class='center'><p>How successful a pirate is at robbing ships will depend on the island you're on.</p><p> A pirate may have visited this island many times before and gained a lot of practice robbing ships there.</p><p>So, they're more likely to be successful than a pirate who has never visited the island before.</p><p><b>[Press the space bar to continue]</b></p></div>,32,,,,,,,,,,,
,instruc12,38,56063,0.0-33.0-4.0,null,,,<div class='center'><p>How successful a pirate is at robbing ships can also change over the time spent on the island. </p><p> Ships may hear from islanders about the pirates coming and will improve their protections against the attack. This may make it harder to rob them.</p><p> Ships may also become lazy and weaken the strength of their protections. This may make it easier to rob them.</p><br><p>Things are always changing on the high seas! So, try your best to pay attention!</p><p><img src='../static/images/tutorial/contingency.png' height='500'></p></div>,null,<div class='center'><p>How successful a pirate is at robbing ships can also change over the time spent on the island. </p><p> Ships may hear from islanders about the pirates coming and will improve their protections against the attack. This may make it harder to rob them.</p><p> Ships may also become lazy and weaken the strength of their protections. This may make it easier to rob them.</p><br><p>Things are always changing on the high seas! So, try your best to pay attention!</p><p><img src='../static/images/tutorial/contingency.png' height='500'></p></div>,,,,,,,,,,
,html-keyboard-response,39,58168,0.0-33.0-5.0,2103.4000000953674,,,<div class='center'><p>How successful a pirate is at robbing ships can also change over the time spent on the island. </p><p> Ships may hear from islanders about the pirates coming and will improve their protections against the attack. This may make it harder to rob them.</p><p> Ships may also become lazy and weaken the strength of their protections. This may make it easier to rob them.</p><br><p>Things are always changing on the high seas! So, try your best to pay attention!</p><p><img src='../static/images/tutorial/contingency.png' height='500'></p><p><b>[Press the space bar to continue]</b></p></div>,32,,,,,,,,,,,
,instruc13,40,60175,0.0-33.0-6.0,null,,,<div class='center'><p>Let's go over the instructions quickly again. You have one thing to do: </p><p><b>Pick the pirate who is the best at robbing ships on the current island.</b></p><p>The amount of bonus money you win depends on it.</p><br><p>Let's try a practice game. The game will start by showing you an island. Pick a pirate using the <b>1, 2, 3</b> keys on your keyboard to get it to try and rob one of the ships leaving the island.</p><p>This is just a practice game, so you're not playing for money.</p><p>Good luck! This game will be very difficult but try your best!</p></div>,null,<div class='center'><p>Let's go over the instructions quickly again. You have one thing to do: </p><p><b>Pick the pirate who is the best at robbing ships on the current island.</b></p><p>The amount of bonus money you win depends on it.</p><br><p>Let's try a practice game. The game will start by showing you an island. Pick a pirate using the <b>1, 2, 3</b> keys on your keyboard to get it to try and rob one of the ships leaving the island.</p><p>This is just a practice game, so you're not playing for money.</p><p>Good luck! This game will be very difficult but try your best!</p></div>,,,,,,,,,,
,html-keyboard-response,41,62073,0.0-33.0-7.0,1896.5999999046326,,,<div class='center'><p>Let's go over the instructions quickly again. You have one thing to do: </p><p><b>Pick the pirate who is the best at robbing ships on the current island.</b></p><p>The amount of bonus money you win depends on it.</p><br><p>Let's try a practice game. The game will start by showing you an island. Pick a pirate using the <b>1, 2, 3</b> keys on your keyboard to get it to try and rob one of the ships leaving the island.</p><p>This is just a practice game, so you're not playing for money.</p><p>Good luck! This game will be very difficult but try your best!</p><p><b>[Press the space bar to continue]</b></p></div>,32,,,,,,,,,,,
,do_welcome,42,66089,0.0-33.0-8.0,null,,,,,,null,,,,,,,,,
,do_trial,43,70498,0.0-33.0-9.0,1904.5999999046326,,,,,,49,1,0,0,,,,,,,,
,html-keyboard-response,44,71510,0.0-34.0-0.0,null,,,<p></p>,null,,,,,,,,,,,
,do_trial,45,76210,0.0-34.0-1.0,2183.2000002861023,,,,,,49,1,1,0,,,,,,,,
,html-keyboard-response,46,77214,0.0-35.0-0.0,null,,,<p></p>,null,,,,,,,,,,,
,do_trial,47,79945,0.0-35.0-1.0,223.59999990463257,,,,,,49,1,0,1,,,,,,,,
,html-keyboard-response,48,80959,0.0-36.0-0.0,null,,,<p></p>,null,,,,,,,,,,,
,do_trial,49,83831,0.0-36.0-1.0,361.3999996185303,,,,,,49,0,1,0,,,,,,,,
,html-keyboard-response,50,84833,0.0-37.0-0.0,null,,,<p></p>,null,,,,,,,,,,,
,do_trial,51,88151,0.0-37.0-1.0,811.3000001907349,,,,,,49,1,0,0,,,,,,,,
,do_bye,52,89660,0.0-38.0-0.0,null,,,,,,null,,,,,,,,,
,do_travel,53,98665,0.0-38.0-1.0,null,,,,,,null,,,,,,,,,
,do_welcome,54,102688,0.0-38.0-2.0,null,,,,,,null,,,,,,,,,
,do_trial,55,106027,0.0-38.0-3.0,832.7000002861023,,,,,,49,1,0,0,,,,,,,,
,html-keyboard-response,56,107032,0.0-39.0-0.0,null,,,<p></p>,null,,,,,,,,,,,
,do_trial,57,109763,0.0-39.0-1.0,224.09999990463257,,,,,,49,1,0,1,,,,,,,,
,html-keyboard-response,58,110766,0.0-40.0-0.0,null,,,<p></p>,null,,,,,,,,,,,
,do_trial,59,113978,0.0-40.0-1.0,696.3000001907349,,,,,,49,1,1,0,,,,,,,,
,html-keyboard-response,60,114983,0.0-41.0-0.0,null,,,<p></p>,null,,,,,,,,,,,
,do_trial,61,117956,0.0-41.0-1.0,464.7000002861023,,,,,,49,0,0,1,,,,,,,,
,html-keyboard-response,62,118960,0.0-42.0-0.0,null,,,<p></p>,null,,,,,,,,,,,
,do_trial,63,121975,0.0-42.0-1.0,503.8999996185303,,,,,,49,1,0,1,,,,,,,,
,html-keyboard-response,64,122612,0.0-43.0-0.0,634.3000001907349,,,<div class='center'><p><img src='../static/images/tutorial/prac_best_pirate.png' height='500'></p></div>,49,,,,,,,,,,,
,html-keyboard-response,65,123487,0.0-44.0-0.0,873.6000003814697,,,<div class='center'><p>That's correct! Red beard was the best.</p><p><b>[Press the space bar to continue]</b></p></div>,32,,,,,,,,,,,
,quiz_beginning,66,125496,0.0-44.0-1.0,null,,,<div class='center'><p>Good job on the practice game! Now, you will be asked some true or false questions to make sure you really understand the rules of the game.</p><p> Press <b>'1'</b> on the keyboard for true and press <b>'2'</b> for false.</p></div>,null,<div class='center'><p>Good job on the practice game! Now, you will be asked some true or false questions to make sure you really understand the rules of the game.</p><p> Press <b>'1'</b> on the keyboard for true and press <b>'2'</b> for false.</p></div>,,,,,,,,,,
,html-keyboard-response,67,134357,0.0-44.0-2.0,8860.300000190735,,,<div class='center'><p>You win bonus money by collecting gold coins.</p><p>Press 1 for true and press  2 for false.</p></div>,49,,,,,,,,,,,
,correct,68,136364,0.0-45.0-0.0,null,,,<div class='center'><p>That's correct!</p></div>,null,<div class='center'><p>That's correct!</p></div>,,,,,,,,,,
,html-keyboard-response,69,136677,0.0-45.0-1.0,311.40000009536743,,,<div class='center'><p>That's correct!</p><p><b>[Press the space bar to continue]</b></p></div>,32,,,,,,,,,,,
,html-keyboard-response,70,139950,0.0-45.0-2.0,3273,,,<div class='center'><p>The pirate who is the best at robbing ships when you first arrive on the island will definitely still be the best when you leave the island. </p><p>Press 1 for true and press  2 for false.</p></div>,50,,,,,,,,,,,
,correct,71,141953,0.0-46.0-0.0,null,,,<div class='center'><p>That's correct!</p></div>,null,<div class='center'><p>That's correct!</p></div>,,,,,,,,,,
,html-keyboard-response,72,141987,0.0-46.0-1.0,32.700000286102295,,,<div class='center'><p>That's correct!</p><p><b>[Press the space bar to continue]</b></p></div>,32,,,,,,,,,,,
,html-keyboard-response,73,144270,0.0-46.0-2.0,2282.800000190735,,,<div class='center'><p>The pirate who is the best at robbing ships on the first island will be the best on every other island.</p><p>Press 1 for true and press  2 for false.</p></div>,50,,,,,,,,,,,
,correct,74,146278,0.0-47.0-0.0,null,,,<div class='center'><p>That's correct!</p></div>,null,<div class='center'><p>That's correct!</p></div>,,,,,,,,,,
,html-keyboard-response,75,146603,0.0-47.0-1.0,324.19999980926514,,,<div class='center'><p>That's correct!</p><p><b>[Press the space bar to continue]</b></p></div>,32,,,,,,,,,,,
,html-keyboard-response,76,147800,0.0-47.0-2.0,1195.3000001907349,,,<div class='center'><p>You should remember the island where a pirate robbed a ship.</p><p>Press 1 for true and press  2 for false.</p></div>,49,,,,,,,,,,,
,correct,77,149826,0.0-48.0-0.0,null,,,<div class='center'><p>That's correct!</p></div>,null,<div class='center'><p>That's correct!</p></div>,,,,,,,,,,
,html-keyboard-response,78,152333,0.0-48.0-1.0,2506.199999809265,,,<div class='center'><p>That's correct!</p><p><b>[Press the space bar to continue]</b></p></div>,32,,,,,,,,,,,
,q_all_corr,79,154338,0.0-49.0-0.0,null,,,<div class='center'><p>Good job! You’re now ready to move on to the real game! Remember this game will be difficult but don't get discouraged and try your best!</p></div>,null,<div class='center'><p>Good job! You’re now ready to move on to the real game! Remember this game will be difficult but don't get discouraged and try your best!</p></div>,,,,,,,,,,
,html-keyboard-response,80,155500,0.0-49.0-1.0,1159.7999997138977,,,<div class='center'><p>Good job! You’re now ready to move on to the real game! Remember this game will be difficult but don't get discouraged and try your best!</p><p><b>[Press the space bar to continue]</b></p></div>,32,,,,,,,,,,,
,do_welcome,81,159531,0.0-50.0-0.0,null,,,,,,null,,,,,,,,,
,do_trial,82,162531,0.0-51.0-0.0,494.19999980926514,,,,,,49,1,1,0,0,forest,0,0.6,0.3,0.1,1,learn
,html-keyboard-response,83,163541,0.0-51.0-1.0,null,,,<p></p>,null,,,,,,,,,,,
,do_trial,84,166488,0.0-52.0-0.0,437.2000002861023,,,,,,49,0,0,0,0,forest,1,0.5071981098214029,0.2404603305328791,0.10230558362148985,0,learn
,html-keyboard-response,85,167504,0.0-52.0-1.0,null,,,<p></p>,null,,,,,,,,,,,
,do_trial,86,170568,0.0-53.0-0.0,557.8000001907349,,,,,,49,1,0,0,0,forest,2,0.5718206466273288,0.22157222769148802,0.24814982962254156,1,learn
,html-keyboard-response,87,171578,0.0-53.0-1.0,null,,,<p></p>,null,,,,,,,,,,,
,do_trial,88,174500,0.0-54.0-0.0,415,,,,,,49,1,0,1,0,forest,3,0.5571573530017914,0.19290400111387096,0.33464040553599433,1,learn
,html-keyboard-response,89,175508,0.0-54.0-1.0,null,,,<p></p>,null,,,,,,,,,,,
,do_trial,90,179405,0.0-55.0-0.0,1384.7999997138977,,,,,,49,1,0,0,0,forest,4,0.5655518033773629,0.11242410304323269,0.17394437916638444,1,learn
,html-keyboard-response,91,180413,0.0-55.0-1.0,null,,,<p></p>,null,,,,,,,,,,,
,do_trial,92,183313,0.0-56.0-0.0,391.40000009536743,,,,,,49,0,0,0,0,forest,5,0.6909236603143358,0.31111541313620605,0.24217794526915828,0,learn
,html-keyboard-response,93,184319,0.0-56.0-1.0,null,,,<p></p>,null,,,,,,,,,,,
,do_trial,94,187055,0.0-57.0-0.0,230.7999997138977,,,,,,49,1,0,1,0,forest,6,0.6892395478353671,0.3009059670290839,0.2079242117289123,1,learn
,html-keyboard-response,95,188064,0.0-57.0-1.0,null,,,<p></p>,null,,,,,,,,,,,
,do_trial,96,190805,0.0-58.0-0.0,233.90000009536743,,,,,,49,1,1,0,0,forest,7,0.7622052852995013,0.2656571659522607,0.14170866651667452,1,learn
,html-keyboard-response,97,191813,0.0-58.0-1.0,null,,,<p></p>,null,,,,,,,,,,,
,do_trial,98,194645,0.0-59.0-0.0,316.2999997138977,,,,,,49,1,0,0,0,forest,8,0.6533529766096661,0.35977788768300395,0.15328296728917296,1,learn
,html-keyboard-response,99,195651,0.0-59.0-1.0,null,,,<p></p>,null,,,,,,,,,,,
,do_trial,100,198505,0.0-60.0-0.0,342.09999990463257,,,,,,49,1,1,0,0,forest,9,0.7013182531921923,0.34359293196249857,0.14740098502614382,1,learn
,html-keyboard-response,101,199513,0.0-60.0-1.0,null,,,<p></p>,null,,,,,,,,,,,
,do_trial,102,202266,0.0-61.0-0.0,245.19999980926514,,,,,,49,0,1,0,0,forest,10,0.7285600450817816,0.46350190903170957,0.11910972591162462,0,learn
,html-keyboard-response,103,203272,0.0-61.0-1.0,null,,,<p></p>,null,,,,,,,,,,,
,do_trial,104,206063,0.0-62.0-0.0,287.90000009536743,,,,,,49,1,0,0,0,forest,11,0.7326911560755318,0.5318339864339218,0.0500909025800668,1,learn
,html-keyboard-response,105,207072,0.0-62.0-1.0,null,,,<p></p>,null,,,,,,,,,,,
,do_trial,106,213106,0.0-63.0-0.0,null,,,,,,null,0,0,0,0,forest,12,0.8096607653270449,0.3859076056584209,0.07963067737079554,,learn
,html-keyboard-response,107,214110,0.0-63.0-1.0,null,,,<p></p>,null,,,,,,,,,,,
,do_trial,108,216894,0.0-64.0-0.0,271.19999980926514,,,,,,49,1,1,0,0,forest,13,0.8662509418811253,0.4378678728000208,0.054925914163210195,1,learn
,html-keyboard-response,109,217903,0.0-64.0-1.0,null,,,<p></p>,null,,,,,,,,,,,
,do_trial,110,222016,0.0-65.0-0.0,1609.1999998092651,,,,,,49,1,0,0,0,forest,14,0.659833875488643,0.3982145992889855,0.09671339030024641,1,learn
,html-keyboard-response,111,223033,0.0-65.0-1.0,null,,,<p></p>,null,,,,,,,,,,,
,do_trial,112,225810,0.0-66.0-0.0,257.2000002861023,,,,,,49,1,0,0,0,forest,15,0.7248719168998484,0.39081086482438765,0.0855026706990702,1,learn
,html-keyboard-response,113,226824,0.0-66.0-1.0,null,,,<p></p>,null,,,,,,,,,,,
,do_trial,114,229610,0.0-67.0-0.0,270.2999997138977,,,,,,49,0,0,0,0,forest,16,0.6812530626322092,0.36368975371172374,0.06839505512509764,0,learn
,html-keyboard-response,115,230618,0.0-67.0-1.0,null,,,<p></p>,null,,,,,,,,,,,
,do_trial,116,235791,0.0-68.0-0.0,2660.5,,,,,,49,1,0,0,0,forest,17,0.7533862844690947,0.294927159678048,0.15114690435997827,1,learn
,html-keyboard-response,117,236801,0.0-68.0-1.0,null,,,<p></p>,null,,,,,,,,,,,
,do_trial,118,239970,0.0-69.0-0.0,661.1999998092651,,,,,,49,0,1,0,0,forest,18,0.7445970222230787,0.26487785088077925,0.11229596136597593,0,learn
,html-keyboard-response,119,240987,0.0-69.0-1.0,null,,,<p></p>,null,,,,,,,,,,,
,do_trial,120,243660,0.0-70.0-0.0,162.7000002861023,,,,,,49,1,0,0,0,forest,19,0.7847462909884577,0.3139077898170418,0.1312504288967119,1,learn
,html-keyboard-response,121,244670,0.0-70.0-1.0,null,,,<p></p>,null,,,,,,,,,,,
,do_trial,122,247480,0.0-71.0-0.0,292.5,,,,,,49,1,0,0,0,forest,20,0.5136129417989598,0.3269980359038845,0.3046881686439161,1,learn
,html-keyboard-response,123,248487,0.0-71.0-1.0,null,,,<p></p>,null,,,,,,,,,,,
,do_trial,124,251285,0.0-72.0-0.0,278.5,,,,,,49,0,0,0,0,forest,21,0.4819852831035059,0.36422852420325735,0.15782701648015635,0,learn
,html-keyboard-response,125,252294,0.0-72.0-1.0,null,,,<p></p>,null,,,,,,,,,,,
,do_trial,126,256410,0.0-73.0-0.0,1604.7999997138977,,,,,,49,1,0,1,0,forest,22,0.6054656118245579,0.3968501990596673,0.16748659298172974,1,learn
,html-keyboard-response,127,257422,0.0-73.0-1.0,null,,,<p></p>,null,,,,,,,,,,,
,do_trial,128,260552,0.0-74.0-0.0,624.1999998092651,,,,,,49,0,0,1,0,forest,23,0.5901734122125488,0.16316263698407496,0.07873102205787351,0,learn
,html-keyboard-response,129,261560,0.0-74.0-1.0,null,,,<p></p>,null,,,,,,,,,,,
,do_trial,130,265785,0.0-75.0-0.0,1716.2000002861023,,,,,,49,0,0,0,0,forest,24,0.4999155183018532,0.16683418248827545,0.16075989279193767,0,learn
,html-keyboard-response,131,266793,0.0-75.0-1.0,null,,,<p></p>,null,,,,,,,,,,,
,do_trial,132,269619,0.0-76.0-0.0,306.1000003814697,,,,,,49,0,0,0,0,forest,25,0.5543355251955987,0.20715382959697706,0.10252919445993205,0,learn
,html-keyboard-response,133,270635,0.0-76.0-1.0,null,,,<p></p>,null,,,,,,,,,,,
,do_trial,134,273426,0.0-77.0-0.0,281.7999997138977,,,,,,49,1,0,0,0,forest,26,0.7085895543903505,0.3432966771231803,0.13926259821798959,1,learn
,html-keyboard-response,135,274441,0.0-77.0-1.0,null,,,<p></p>,null,,,,,,,,,,,
,do_trial,136,277490,0.0-78.0-0.0,538.1999998092651,,,,,,49,0,0,0,0,forest,27,0.6338825132738394,0.3316655882837662,0.23713114609311667,0,learn
,html-keyboard-response,137,278493,0.0-78.0-1.0,null,,,<p></p>,null,,,,,,,,,,,
,do_trial,138,281619,0.0-79.0-0.0,614.4000000953674,,,,,,49,0,0,0,0,forest,28,0.5117909501877699,0.45175798071782985,0.1966331006418974,0,learn
,html-keyboard-response,139,282625,0.0-79.0-1.0,null,,,<p></p>,null,,,,,,,,,,,
,do_trial,140,285832,0.0-80.0-0.0,700.2999997138977,,,,,,49,0,0,0,0,forest,29,0.5715461375546492,0.45547367032228053,0.15816113598638493,0,learn
,html-keyboard-response,141,286842,0.0-80.0-1.0,null,,,<p></p>,null,,,,,,,,,,,
,do_bye,142,288357,0.0-81.0-0.0,null,,,,,,null,,,,,,,,,
,do_travel,143,297369,0.0-82.0-0.0,null,,,,,,null,,,,,,,,,
,do_welcome,144,301390,0.0-82.0-1.0,null,,,,,,null,,,,,,,,,
,do_trial,145,306592,0.0-83.0-0.0,2689.5999999046326,,,,,,49,1,0,0,1,mountain,30,1,0.3298391173915919,0.0893440827093427,1,learn
,html-keyboard-response,146,307607,0.0-83.0-1.0,null,,,<p></p>,null,,,,,,,,,,,
,do_trial,147,311322,0.0-84.0-0.0,1197.8999996185303,,,,,,49,1,0,1,1,mountain,31,1,0.23078086760822675,0.1739669643611653,1,learn
,html-keyboard-response,148,312324,0.0-84.0-1.0,null,,,<p></p>,null,,,,,,,,,,,
,do_trial,149,315434,0.0-85.0-0.0,604.1999998092651,,,,,,49,1,0,1,1,mountain,32,1,0.26502377078310174,0.206350211222735,1,learn
,html-keyboard-response,150,316444,0.0-85.0-1.0,null,,,<p></p>,null,,,,,,,,,,,
,do_trial,151,319258,0.0-86.0-0.0,303.69999980926514,,,,,,49,1,0,0,1,mountain,33,0.7779452753680611,0.28497865757133356,0.13137394628926186,1,learn
,html-keyboard-response,152,320274,0.0-86.0-1.0,null,,,<p></p>,null,,,,,,,,,,,
,do_trial,153,324144,0.0-87.0-0.0,1356.6999998092651,,,,,,49,0,1,1,1,mountain,34,0.9012297982066175,0.28450641410306843,0.17276004675715304,0,learn
,html-keyboard-response,154,325163,0.0-87.0-1.0,null,,,<p></p>,null,,,,,,,,,,,
,do_trial,155,328524,0.0-88.0-0.0,853.6000003814697,,,,,,49,1,0,0,1,mountain,35,0.8586504536091718,0.30065319400958773,0.11463674237129787,1,learn
,html-keyboard-response,156,329532,0.0-88.0-1.0,null,,,<p></p>,null,,,,,,,,,,,
,do_trial,157,335557,0.0-89.0-0.0,null,,,,,,null,1,1,0,1,mountain,36,0.658732391063559,0.19202183136403875,0.07966063843463571,,learn
,html-keyboard-response,158,336566,0.0-89.0-1.0,null,,,<p></p>,null,,,,,,,,,,,
,do_trial,159,339350,0.0-90.0-0.0,277.2999997138977,,,,,,49,1,0,0,1,mountain,37,0.560168687355718,0.19622867663836005,0.16967517852783354,1,learn
,html-keyboard-response,160,340367,0.0-90.0-1.0,null,,,<p></p>,null,,,,,,,,,,,
,do_trial,161,345215,0.0-91.0-0.0,2341.5,,,,,,49,0,1,0,1,mountain,38,0.5803131057739782,0.24936996948833984,0.3088100750685959,0,learn
,html-keyboard-response,162,346224,0.0-91.0-1.0,null,,,<p></p>,null,,,,,,,,,,,
,do_trial,163,349245,0.0-92.0-0.0,508.59999990463257,,,,,,49,0,0,0,1,mountain,39,0.5533106407002678,0.1462647398158407,0.23011250694303237,0,learn
,html-keyboard-response,164,350248,0.0-92.0-1.0,null,,,<p></p>,null,,,,,,,,,,,
,do_trial,165,353496,0.0-93.0-0.0,731.2000002861023,,,,,,49,0,0,0,1,mountain,40,0.4527103618069468,0.06835348987027005,0.3115132109584196,0,learn
,html-keyboard-response,166,354504,0.0-93.0-1.0,null,,,<p></p>,null,,,,,,,,,,,
,do_trial,167,357324,0.0-94.0-0.0,313.3999996185303,,,,,,49,0,0,0,1,mountain,41,0.3776351205624442,0.223164717021313,0.3692206463195165,0,learn
,html-keyboard-response,168,358332,0.0-94.0-1.0,null,,,<p></p>,null,,,,,,,,,,,
,do_trial,169,361329,0.0-95.0-0.0,492.2000002861023,,,,,,49,0,0,1,1,mountain,42,0.3655583515993044,0.4090396494659556,0.379432232603888,0,learn
,html-keyboard-response,170,362333,0.0-95.0-1.0,null,,,<p></p>,null,,,,,,,,,,,
,do_trial,171,365412,0.0-96.0-0.0,571.0999999046326,,,,,,49,0,0,0,1,mountain,43,0.24953200389326463,0.4577566653702481,0.25969124945953165,0,learn
,html-keyboard-response,172,366423,0.0-96.0-1.0,null,,,<p></p>,null,,,,,,,,,,,
,do_trial,173,371870,0.0-97.0-0.0,2930.300000190735,,,,,,49,1,0,1,1,mountain,44,0.31607129799279754,0.5566387083159817,0.46220355268374536,1,learn
,html-keyboard-response,174,372885,0.0-97.0-1.0,null,,,<p></p>,null,,,,,,,,,,,
,do_trial,175,376584,0.0-98.0-0.0,1187.3000001907349,,,,,,49,0,1,0,1,mountain,45,0.1593144016617946,0.5761776370410193,0.35600475684031485,0,learn
,html-keyboard-response,176,377593,0.0-98.0-1.0,null,,,<p></p>,null,,,,,,,,,,,
,do_trial,177,381336,0.0-99.0-0.0,1230.6999998092651,,,,,,49,0,0,0,1,mountain,46,0.10442721253014547,0.6314310873380986,0.3443789321051456,0,learn
,html-keyboard-response,178,382341,0.0-99.0-1.0,null,,,<p></p>,null,,,,,,,,,,,
,do_trial,179,385846,0.0-100.0-0.0,996.2000002861023,,,,,,49,1,0,0,1,mountain,47,0.14047627819560743,0.5607918334874314,0.21051799674179555,1,learn
,html-keyboard-response,180,386848,0.0-100.0-1.0,null,,,<p></p>,null,,,,,,,,,,,
,do_trial,181,389663,0.0-101.0-0.0,302.40000009536743,,,,,,49,0,1,1,1,mountain,48,0.29030574423375877,0.5122811773603373,0.2668758927424421,0,learn
,html-keyboard-response,182,390667,0.0-101.0-1.0,null,,,<p></p>,null,,,,,,,,,,,
,do_trial,183,393425,0.0-102.0-0.0,249.80000019073486,,,,,,49,0,0,0,1,mountain,49,0.19153911300746146,0.42775843552893233,0.2464827987033619,0,learn
,html-keyboard-response,184,394442,0.0-102.0-1.0,null,,,<p></p>,null,,,,,,,,,,,
,do_trial,185,398113,0.0-103.0-0.0,1161.5999999046326,,,,,,49,0,1,1,1,mountain,50,0.05097105564396527,0.46118061987253256,0.33387499511281205,0,learn
,html-keyboard-response,186,399121,0.0-103.0-1.0,null,,,<p></p>,null,,,,,,,,,,,
,do_trial,187,402343,0.0-104.0-0.0,715.8000001907349,,,,,,49,0,0,0,1,mountain,51,0.09303644518629785,0.5175617287834762,0.3057561645011585,0,learn
,html-keyboard-response,188,403353,0.0-104.0-1.0,null,,,<p></p>,null,,,,,,,,,,,
,do_trial,189,407278,0.0-105.0-0.0,1419.7999997138977,,,,,,49,0,0,1,1,mountain,52,0.06690181044772171,0.5605998980050303,0.27617978641825686,0,learn
,html-keyboard-response,190,408295,0.0-105.0-1.0,null,,,<p></p>,null,,,,,,,,,,,
,do_trial,191,411278,0.0-106.0-0.0,470.09999990463257,,,,,,49,0,1,1,1,mountain,53,0.16502581064866892,0.5308942951380159,0.3608806022773446,0,learn
,html-keyboard-response,192,412288,0.0-106.0-1.0,null,,,<p></p>,null,,,,,,,,,,,
,do_trial,193,415076,0.0-107.0-0.0,271.5,,,,,,49,0,1,0,1,mountain,54,0.1257026038235273,0.6411087953424025,0.2232638813191044,0,learn
,html-keyboard-response,194,416085,0.0-107.0-1.0,null,,,<p></p>,null,,,,,,,,,,,
,do_trial,195,419745,0.0-108.0-0.0,1155.4000000953674,,,,,,49,0,1,0,1,mountain,55,0.16654026617936868,0.5712141591082814,0.2614465655953725,0,learn
,html-keyboard-response,196,420753,0.0-108.0-1.0,null,,,<p></p>,null,,,,,,,,,,,
,do_trial,197,424301,0.0-109.0-0.0,1037.1999998092651,,,,,,49,0,0,0,1,mountain,56,0.11002586160364003,0.5918328067703067,0.2714619185769214,0,learn
,html-keyboard-response,198,425310,0.0-109.0-1.0,null,,,<p></p>,null,,,,,,,,,,,
,do_trial,199,428229,0.0-110.0-0.0,409.90000009536743,,,,,,49,0,0,0,1,mountain,57,0.05104697631395331,0.5710264060857263,0.2640700040254457,0,learn
,html-keyboard-response,200,429238,0.0-110.0-1.0,null,,,<p></p>,null,,,,,,,,,,,
,do_trial,201,431963,0.0-111.0-0.0,212.90000009536743,,,,,,49,0,1,1,1,mountain,58,0.07824791238920673,0.5668608807570598,0.41705830588491394,0,learn
,html-keyboard-response,202,432968,0.0-111.0-1.0,null,,,<p></p>,null,,,,,,,,,,,
,do_trial,203,435717,0.0-112.0-0.0,237.39999961853027,,,,,,49,0,0,0,1,mountain,59,0.18227089285582815,0.533583991712868,0.4916730368658112,0,learn
,html-keyboard-response,204,436733,0.0-112.0-1.0,null,,,<p></p>,null,,,,,,,,,,,
,do_trial,205,439496,0.0-113.0-0.0,256.2000002861023,,,,,,49,0,1,0,1,mountain,60,0.25056252104691246,0.5844669279051169,0.43810247789425044,0,learn
,html-keyboard-response,206,440500,0.0-113.0-1.0,null,,,<p></p>,null,,,,,,,,,,,
,do_trial,207,443265,0.0-114.0-0.0,251.59999990463257,,,,,,49,1,0,0,1,mountain,61,0.17357592446040568,0.5463491262402365,0.4645846073228708,1,learn
,html-keyboard-response,208,444275,0.0-114.0-1.0,null,,,<p></p>,null,,,,,,,,,,,
,do_trial,209,447073,0.0-115.0-0.0,290.1000003814697,,,,,,49,0,0,0,1,mountain,62,0.11564297952260826,0.5155193149152248,0.3513361202015971,0,learn
,html-keyboard-response,210,448075,0.0-115.0-1.0,null,,,<p></p>,null,,,,,,,,,,,
,do_trial,211,451050,0.0-116.0-0.0,459,,,,,,49,0,1,0,1,mountain,63,0.1973511503515637,0.6175823332566364,0.2515444714631711,0,learn
,html-keyboard-response,212,452060,0.0-116.0-1.0,null,,,<p></p>,null,,,,,,,,,,,
,do_trial,213,454842,0.0-117.0-0.0,265.2999997138977,,,,,,49,1,1,1,1,mountain,64,0.11823929310974202,0.539018226558315,0.29497803052089927,1,learn
,html-keyboard-response,214,455854,0.0-117.0-1.0,null,,,<p></p>,null,,,,,,,,,,,
,do_trial,215,458609,0.0-118.0-0.0,243.80000019073486,,,,,,49,0,0,0,1,mountain,65,0.23200523502939696,0.4667557258272209,0.17785018294379654,0,learn
,html-keyboard-response,216,459616,0.0-118.0-1.0,null,,,<p></p>,null,,,,,,,,,,,
,do_trial,217,462395,0.0-119.0-0.0,270.2999997138977,,,,,,49,0,0,0,1,mountain,66,0.1770949174456381,0.48442208013800786,0.2762756799653896,0,learn
,html-keyboard-response,218,463409,0.0-119.0-1.0,null,,,<p></p>,null,,,,,,,,,,,
,do_trial,219,466150,0.0-120.0-0.0,228.59999990463257,,,,,,49,0,0,1,1,mountain,67,0.183090796110017,0.6597413082487682,0.16161078370752394,0,learn
,html-keyboard-response,220,467155,0.0-120.0-1.0,null,,,<p></p>,null,,,,,,,,,,,
,do_trial,221,469917,0.0-121.0-0.0,255.09999990463257,,,,,,49,0,0,1,1,mountain,68,0.09663991160940767,0.5665185195875637,0.16152748327037295,0,learn
,html-keyboard-response,222,470926,0.0-121.0-1.0,null,,,<p></p>,null,,,,,,,,,,,
,do_trial,223,473805,0.0-122.0-0.0,371.59999990463257,,,,,,49,0,1,1,1,mountain,69,0.06925194992144805,0.579620735012862,0.06391001313479443,0,learn
,html-keyboard-response,224,474818,0.0-122.0-1.0,null,,,<p></p>,null,,,,,,,,,,,
,do_bye,225,476323,0.0-123.0-0.0,null,,,,,,null,,,,,,,,,
,do_travel,226,485331,0.0-124.0-0.0,null,,,,,,null,,,,,,,,,
