success,trial_type,trial_index,time_elapsed,internal_node_id,rt,responses,subject_id,stimulus,key_press,prompt,response,choice_outcomes,context_n,context_img_id,trial_n,pR_red,pR_white,pR_black,outcome,phase,passed
true,fullscreen,0,4056,0.0-0.0,,,,,,,,,,,,,,,,,
,survey-html-form,1,94197,0.0-1.0,90138.69999992847,{worker_id:Reid Wilson},Reid Wilson,,,,,,,,,,,,,,
,instruc1,2,96200,0.0-2.0,null,,Reid Wilson,<div class='center'><p>Welcome! This study will last ~30 minutes. After the instructions there will be a practice game and quiz to make sure you understand the task. Today you will be the head captain of a pirate ship traveling around the world to different islands. Here is an overview of what you will be doing:</p><br><p> 1. Try to find the most successful pirate on 6 different islands</p><p> 2. Recall which pirates did the best on each island</p><br><p>,null,<div class='center'><p>Welcome! This study will last ~30 minutes. After the instructions there will be a practice game and quiz to make sure you understand the task. Today you will be the head captain of a pirate ship traveling around the world to different islands. Here is an overview of what you will be doing:</p><br><p> 1. Try to find the most successful pirate on 6 different islands</p><p> 2. Recall which pirates did the best on each island</p><br><p>,,,,,,,,,,,
,html-keyboard-response,3,138725,0.0-3.0,42523.10000002384,,,<div class='center'><p>Welcome! This study will last ~30 minutes. After the instructions there will be a practice game and quiz to make sure you understand the task. Today you will be the head captain of a pirate ship traveling around the world to different islands. Here is an overview of what you will be doing:</p><br><p> 1. Try to find the most successful pirate on 6 different islands</p><p> 2. Recall which pirates did the best on each island</p><br><p><p><b>[Press the space bar to continue]</b></p></div>,32,,,,,,,,,,,,
,instruc2,4,140726,0.0-4.0,null,,,<div class='center'><p>You are going to visit these 6 islands on your journey. You'll be able to see these islands from your ship.</p><p><img src='../static/images/contexts/all_contexts.png' height='500'></p></div>,null,<div class='center'><p>You are going to visit these 6 islands on your journey. You'll be able to see these islands from your ship.</p><p><img src='../static/images/contexts/all_contexts.png' height='500'></p></div>,,,,,,,,,,,
,html-keyboard-response,5,173131,0.0-5.0,32403.399999976158,,,<div class='center'><p>You are going to visit these 6 islands on your journey. You'll be able to see these islands from your ship.</p><p><img src='../static/images/contexts/all_contexts.png' height='500'></p><p><b>[Press the space bar to continue]</b></p></div>,32,,,,,,,,,,,,
,instruc4,6,175132,0.0-6.0,null,,,<div class='center'><p>As the head captain, you do not have to rob any ships yourself. Another pirate will be doing the robbing for you. First, you will choose a pirate to rob the next ship.</p><p><img src='../static/images/tutorial/pirates_all_crop.png' height='200'></p><p>Then, you'll see if the pirate successfully robbed the ship of their gold. If they were successful, then you'll get a stack of gold coins like this:</p><p><img src='../static/images/tutorial/reward.png' height='150'></p><p> If they were <b>not</b> successful, then you'll get no gold coins, and you'll see a big red x like this: </p><p><img src='../static/images/tutorial/reward_no.png' height='150'></p><p> How much bonus money you make is based on how many gold coins you collect.</p><div>,null,<div class='center'><p>As the head captain, you do not have to rob any ships yourself. Another pirate will be doing the robbing for you. First, you will choose a pirate to rob the next ship.</p><p><img src='../static/images/tutorial/pirates_all_crop.png' height='200'></p><p>Then, you'll see if the pirate successfully robbed the ship of their gold. If they were successful, then you'll get a stack of gold coins like this:</p><p><img src='../static/images/tutorial/reward.png' height='150'></p><p> If they were <b>not</b> successful, then you'll get no gold coins, and you'll see a big red x like this: </p><p><img src='../static/images/tutorial/reward_no.png' height='150'></p><p> How much bonus money you make is based on how many gold coins you collect.</p><div>,,,,,,,,,,,
,html-keyboard-response,7,223322,0.0-7.0,48188.10000002384,,,<div class='center'><p>As the head captain, you do not have to rob any ships yourself. Another pirate will be doing the robbing for you. First, you will choose a pirate to rob the next ship.</p><p><img src='../static/images/tutorial/pirates_all_crop.png' height='200'></p><p>Then, you'll see if the pirate successfully robbed the ship of their gold. If they were successful, then you'll get a stack of gold coins like this:</p><p><img src='../static/images/tutorial/reward.png' height='150'></p><p> If they were <b>not</b> successful, then you'll get no gold coins, and you'll see a big red x like this: </p><p><img src='../static/images/tutorial/reward_no.png' height='150'></p><p> How much bonus money you make is based on how many gold coins you collect.</p><div><p><b>[Press the space bar to continue]</b></p></div>,32,,,,,,,,,,,,
,instruc5,8,243396,0.0-8.0,20073.199999928474,,,<div class='center'><p>Even the most skilled pirate can not rob EVERY ship.</p><p> Some ships will have very strong protections against pirate attacks.</p><p> Blue beard, here, is very, very good at robbing ships, but he won't be successful every time he tries to rob one.</p><p> You can press the <b>'1'</b> key on the keyboard to choose him.</p><p> Try choosing him 10 times to see how often he succeeds at robbing a ship. </p><p><img src='../static/images/tutorial/blue.png' height='500'></p></div>,49,<div class='center'><p>Even the most skilled pirate can not rob EVERY ship.</p><p> Some ships will have very strong protections against pirate attacks.</p><p> Blue beard, here, is very, very good at robbing ships, but he won't be successful every time he tries to rob one.</p><p> You can press the <b>'1'</b> key on the keyboard to choose him.</p><p> Try choosing him 10 times to see how often he succeeds at robbing a ship. </p><p><img src='../static/images/tutorial/blue.png' height='500'></p></div>,,,,,,,,,,,
,html-keyboard-response,9,244900,0.0-9.0,null,,,<div class='center'><p><img src='../static/images/tutorial/blue_win.png' height='500'></p></div>,null,,,,,,,,,,,,
,html-keyboard-response,10,247249,0.0-10.0,2348.2999999523163,,,<div class='center'><img src='../static/images/tutorial/blue.png' height='500'></p></div>,49,,,,,,,,,,,,
,html-keyboard-response,11,248751,0.0-11.0,null,,,<div class='center'><p><img src='../static/images/tutorial/blue_win.png' height='500'></p></div>,null,,,,,,,,,,,,
,html-keyboard-response,12,249750,0.0-12.0,997.6000000238419,,,<div class='center'><img src='../static/images/tutorial/blue.png' height='500'></p></div>,49,,,,,,,,,,,,
,html-keyboard-response,13,251252,0.0-13.0,null,,,<div class='center'><p><img src='../static/images/tutorial/blue_win.png' height='500'></p></div>,null,,,,,,,,,,,,
,html-keyboard-response,14,252710,0.0-14.0,1456.5,,,<div class='center'><img src='../static/images/tutorial/blue.png' height='500'></p></div>,49,,,,,,,,,,,,
,html-keyboard-response,15,254211,0.0-15.0,null,,,<div class='center'><p><img src='../static/images/tutorial/blue_no_win.png' height='500'></p></div>,null,,,,,,,,,,,,
,html-keyboard-response,16,255244,0.0-16.0,1031.7000000476837,,,<div class='center'><img src='../static/images/tutorial/blue.png' height='500'></p></div>,49,,,,,,,,,,,,
,html-keyboard-response,17,256746,0.0-17.0,null,,,<div class='center'><p><img src='../static/images/tutorial/blue_win.png' height='500'></p></div>,null,,,,,,,,,,,,
,html-keyboard-response,18,258454,0.0-18.0,1707.2000000476837,,,<div class='center'><img src='../static/images/tutorial/blue.png' height='500'></p></div>,49,,,,,,,,,,,,
,html-keyboard-response,19,259956,0.0-19.0,null,,,<div class='center'><p><img src='../static/images/tutorial/blue_win.png' height='500'></p></div>,null,,,,,,,,,,,,
,html-keyboard-response,20,261167,0.0-20.0,1210.0999999046326,,,<div class='center'><img src='../static/images/tutorial/blue.png' height='500'></p></div>,49,,,,,,,,,,,,
,html-keyboard-response,21,262681,0.0-21.0,null,,,<div class='center'><p><img src='../static/images/tutorial/blue_win.png' height='500'></p></div>,null,,,,,,,,,,,,
,html-keyboard-response,22,263881,0.0-22.0,1198.8999999761581,,,<div class='center'><img src='../static/images/tutorial/blue.png' height='500'></p></div>,49,,,,,,,,,,,,
,html-keyboard-response,23,265382,0.0-23.0,null,,,<div class='center'><p><img src='../static/images/tutorial/blue_no_win.png' height='500'></p></div>,null,,,,,,,,,,,,
,html-keyboard-response,24,266293,0.0-24.0,910.6999999284744,,,<div class='center'><img src='../static/images/tutorial/blue.png' height='500'></p></div>,49,,,,,,,,,,,,
,html-keyboard-response,25,267796,0.0-25.0,null,,,<div class='center'><p><img src='../static/images/tutorial/blue_win.png' height='500'></p></div>,null,,,,,,,,,,,,
,html-keyboard-response,26,269391,0.0-26.0,1594.0999999046326,,,<div class='center'><img src='../static/images/tutorial/blue.png' height='500'></p></div>,49,,,,,,,,,,,,
,html-keyboard-response,27,270891,0.0-27.0,null,,,<div class='center'><p><img src='../static/images/tutorial/blue_win.png' height='500'></p></div>,null,,,,,,,,,,,,
,instruc6,28,272893,0.0-28.0,null,,,<div class='center'><p> See, he succeeded in robbing the ships most of the time but not every time. </p></div>,null,<div class='center'><p> See, he succeeded in robbing the ships most of the time but not every time. </p></div>,,,,,,,,,,,
,html-keyboard-response,29,278257,0.0-29.0,5362.799999952316,,,<div class='center'><p> See, he succeeded in robbing the ships most of the time but not every time. </p><p><b>[Press the space bar to continue]</b></p></div>,32,,,,,,,,,,,,
,html-keyboard-response,30,289439,0.0-30.0,11181.899999976158,,,<div class='center'><p>From these three pirates, you will get to choose which one you want to rob the next ship. <p>Press the <b>'1'</b> key on your keyboard to pick the pirate with the red beard.</p><p> Press <b>'2'</b> to pick the pirate with the white beard.</p><p> Press <b>'3'</b> to pick the pirate with the black beard.</p><p>Try picking a pirate now!</p><p><img src='../static/images/tutorial/all_pirates.png' height='500'></p></div>,51,,,,,,,,,,,,
,audio-keyboard-response,31,298067,0.0-31.0-0.0,8624.600000023842,,,../static/audio/clip_8_chosen_pirate_win.m4a,32,,,,,,,,,,,,
,html-keyboard-response,32,306213,0.0-31.0-1.0,8145.800000071526,,,<div class='center'><p>Now try choosing another.</p><p><img src='../static/images/tutorial/all_pirates.png' height='500'></p></div>,51,,,,,,,,,,,,
,audio-keyboard-response,33,311596,0.0-32.0-0.0,5380.799999952316,,,../static/audio/clip_10_chosen_pirate_loss.m4a,32,,,,,,,,,,,,
,instruc9,34,313597,0.0-33.0-0.0,null,,,<div class='center'><p>If you don't make your choice fast enough, you'll have to wait a few seconds before you can make another one. </p><p><img src='../static/images/miscellaneous/hurry_up.png' height='500'></p></div>,null,<div class='center'><p>If you don't make your choice fast enough, you'll have to wait a few seconds before you can make another one. </p><p><img src='../static/images/miscellaneous/hurry_up.png' height='500'></p></div>,,,,,,,,,,,
,html-keyboard-response,35,318958,0.0-33.0-1.0,5359.899999976158,,,<div class='center'><p>If you don't make your choice fast enough, you'll have to wait a few seconds before you can make another one. </p><p><img src='../static/images/miscellaneous/hurry_up.png' height='500'></p><p><b>[Press the space bar to continue]</b></p></div>,32,,,,,,,,,,,,
,instruc11,36,320959,0.0-33.0-2.0,null,,,<div class='center'><p>How successful a pirate is at robbing ships will depend on the island you're on.</p><p> A pirate may have visited this island many times before and gained a lot of practice robbing ships there.</p><p>So, they're more likely to be successful than a pirate who has never visited the island before.</p></div>,null,<div class='center'><p>How successful a pirate is at robbing ships will depend on the island you're on.</p><p> A pirate may have visited this island many times before and gained a lot of practice robbing ships there.</p><p>So, they're more likely to be successful than a pirate who has never visited the island before.</p></div>,,,,,,,,,,,
,html-keyboard-response,37,337741,0.0-33.0-3.0,16781.300000071526,,,<div class='center'><p>How successful a pirate is at robbing ships will depend on the island you're on.</p><p> A pirate may have visited this island many times before and gained a lot of practice robbing ships there.</p><p>So, they're more likely to be successful than a pirate who has never visited the island before.</p><p><b>[Press the space bar to continue]</b></p></div>,32,,,,,,,,,,,,
,instruc12,38,339742,0.0-33.0-4.0,null,,,<div class='center'><p>How successful a pirate is at robbing ships can also change over the time spent on the island. </p><p> Ships may hear from islanders about the pirates coming and will improve their protections against the attack. This may make it harder to rob them.</p><p> Ships may also become lazy and weaken the strength of their protections. This may make it easier to rob them.</p><br><p>Things are always changing on the high seas! So, try your best to pay attention!</p><p><img src='../static/images/tutorial/contingency.png' height='500'></p></div>,null,<div class='center'><p>How successful a pirate is at robbing ships can also change over the time spent on the island. </p><p> Ships may hear from islanders about the pirates coming and will improve their protections against the attack. This may make it harder to rob them.</p><p> Ships may also become lazy and weaken the strength of their protections. This may make it easier to rob them.</p><br><p>Things are always changing on the high seas! So, try your best to pay attention!</p><p><img src='../static/images/tutorial/contingency.png' height='500'></p></div>,,,,,,,,,,,
,html-keyboard-response,39,366815,0.0-33.0-5.0,27071.899999976158,,,<div class='center'><p>How successful a pirate is at robbing ships can also change over the time spent on the island. </p><p> Ships may hear from islanders about the pirates coming and will improve their protections against the attack. This may make it harder to rob them.</p><p> Ships may also become lazy and weaken the strength of their protections. This may make it easier to rob them.</p><br><p>Things are always changing on the high seas! So, try your best to pay attention!</p><p><img src='../static/images/tutorial/contingency.png' height='500'></p><p><b>[Press the space bar to continue]</b></p></div>,32,,,,,,,,,,,,
,instruc13,40,368817,0.0-33.0-6.0,null,,,<div class='center'><p>Let's go over the instructions quickly again. You have one thing to do: </p><b><p> Pick the pirate who is the best at robbing ships on the current island. </p></b><b><p> The amount of bonus money you win depends on it.</p><p><br><p>Let's try a practice game. The game will start by showing you an island. Pick a pirate using the <b> 1, 2, 3 </b> keys on your keyboard to get it to try and rob one of the ships leaving the island.</p><p>This is just a practice game, so you're not playing for money. </p><p> Good luck! This game will be very difficult but try your best!</p></div>,null,<div class='center'><p>Let's go over the instructions quickly again. You have one thing to do: </p><b><p> Pick the pirate who is the best at robbing ships on the current island. </p></b><b><p> The amount of bonus money you win depends on it.</p><p><br><p>Let's try a practice game. The game will start by showing you an island. Pick a pirate using the <b> 1, 2, 3 </b> keys on your keyboard to get it to try and rob one of the ships leaving the island.</p><p>This is just a practice game, so you're not playing for money. </p><p> Good luck! This game will be very difficult but try your best!</p></div>,,,,,,,,,,,
,html-keyboard-response,41,382406,0.0-33.0-7.0,13588.600000023842,,,<div class='center'><p>Let's go over the instructions quickly again. You have one thing to do: </p><b><p> Pick the pirate who is the best at robbing ships on the current island. </p></b><b><p> The amount of bonus money you win depends on it.</p><p><br><p>Let's try a practice game. The game will start by showing you an island. Pick a pirate using the <b> 1, 2, 3 </b> keys on your keyboard to get it to try and rob one of the ships leaving the island.</p><p>This is just a practice game, so you're not playing for money. </p><p> Good luck! This game will be very difficult but try your best!</p><p><b>[Press the space bar to continue]</b></p></div>,32,,,,,,,,,,,,
,do_welcome,42,386414,0.0-33.0-8.0,null,,,,,,null,,,,,,,,,,
,do_trial,43,389968,0.0-33.0-9.0,1049.5,,,,,,49,1,0,0,,,,,,,,,
,html-keyboard-response,44,390970,0.0-34.0-0.0,null,,,<p></p>,null,,,,,,,,,,,,
,do_trial,45,394599,0.0-34.0-1.0,1126.5,,,,,,50,1,1,0,,,,,,,,,
,html-keyboard-response,46,395609,0.0-35.0-0.0,null,,,<p></p>,null,,,,,,,,,,,,
,do_trial,47,398748,0.0-35.0-1.0,634.1000000238419,,,,,,49,1,0,1,,,,,,,,,
,html-keyboard-response,48,399750,0.0-36.0-0.0,null,,,<p></p>,null,,,,,,,,,,,,
,do_trial,49,402613,0.0-36.0-1.0,358.89999997615814,,,,,,50,0,1,0,,,,,,,,,
,html-keyboard-response,50,403616,0.0-37.0-0.0,null,,,<p></p>,null,,,,,,,,,,,,
,do_trial,51,406593,0.0-37.0-1.0,465.5,,,,,,51,1,0,0,,,,,,,,,
,do_bye,52,408098,0.0-38.0-0.0,null,,,,,,null,,,,,,,,,,
,do_travel,53,417102,0.0-38.0-1.0,null,,,,,,null,,,,,,,,,,
,do_welcome,54,421107,0.0-38.0-2.0,null,,,,,,null,,,,,,,,,,
,do_trial,55,424875,0.0-38.0-3.0,1263.7000000476837,,,,,,51,1,0,0,,,,,,,,,
,html-keyboard-response,56,425877,0.0-39.0-0.0,null,,,<p></p>,null,,,,,,,,,,,,
,do_trial,57,429372,0.0-39.0-1.0,991.8999999761581,,,,,,50,1,0,1,,,,,,,,,
,html-keyboard-response,58,430375,0.0-40.0-0.0,null,,,<p></p>,null,,,,,,,,,,,,
,do_trial,59,433201,0.0-40.0-1.0,312.3000000715256,,,,,,49,1,1,0,,,,,,,,,
,html-keyboard-response,60,434212,0.0-41.0-0.0,null,,,<p></p>,null,,,,,,,,,,,,
,do_trial,61,437270,0.0-41.0-1.0,554.3000000715256,,,,,,49,0,0,1,,,,,,,,,
,html-keyboard-response,62,438272,0.0-42.0-0.0,null,,,<p></p>,null,,,,,,,,,,,,
,do_trial,63,441317,0.0-42.0-1.0,541,,,,,,49,1,0,1,,,,,,,,,
,html-keyboard-response,64,442882,0.0-43.0-0.0,1564.1999999284744,,,<div class='center'><p><img src='../static/images/tutorial/prac_best_pirate.png' height='500'></p></div>,49,,,,,,,,,,,,
,html-keyboard-response,65,446275,0.0-44.0-0.0,3392.399999976158,,,<div class='center'><p>That's correct! Red beard was the best.</p><p><b>[Press the space bar to continue]</b></p></div>,32,,,,,,,,,,,,
,quiz_beginning,66,448277,0.0-44.0-1.0,null,,,<div class='center'><p>Good job on the practice game! Now, you will be asked some true or false questions to make sure you really understand the rules of the game.</p><p> Press <b>'1'</b> on the keyboard for true and press <b>'2'</b> for false.</p></div>,null,<div class='center'><p>Good job on the practice game! Now, you will be asked some true or false questions to make sure you really understand the rules of the game.</p><p> Press <b>'1'</b> on the keyboard for true and press <b>'2'</b> for false.</p></div>,,,,,,,,,,,
,html-keyboard-response,67,460914,0.0-44.0-2.0,12635.799999952316,,,<div class='center'><p>You win bonus money by collecting gold coins.</p><p>Press 1 for true and press  2 for false.</p></div>,50,,,,,,,,,,,,
,q1_err,68,462918,0.0-45.0-0.0,null,,,<div class='center'><p>That’s incorrect. You win bonus money by collecting gold coins.</p></div>,null,<div class='center'><p>That’s incorrect. You win bonus money by collecting gold coins.</p></div>,,,,,,,,,,,
,html-keyboard-response,69,465636,0.0-45.0-1.0,2718,,,<div class='center'><p>That’s incorrect. You win bonus money by collecting gold coins.</p><p><b>[Press the space bar to continue]</b></p></div>,32,,,,,,,,,,,,
,html-keyboard-response,70,485136,0.0-45.0-2.0,19498.800000071526,,,<div class='center'><p>The pirate who is the best at robbing ships when you first arrive on the island will definitely still be the best when you leave the island. </p><p>Press 1 for true and press  2 for false.</p></div>,50,,,,,,,,,,,,
,correct,71,487137,0.0-46.0-0.0,null,,,<div class='center'><p>That's correct!</p></div>,null,<div class='center'><p>That's correct!</p></div>,,,,,,,,,,,
,html-keyboard-response,72,487859,0.0-46.0-1.0,721.2999999523163,,,<div class='center'><p>That's correct!</p><p><b>[Press the space bar to continue]</b></p></div>,32,,,,,,,,,,,,
,html-keyboard-response,73,491037,0.0-46.0-2.0,3177,,,<div class='center'><p>The pirate who is the best at robbing ships on the first island will be the best on every other island.</p><p>Press 1 for true and press  2 for false.</p></div>,50,,,,,,,,,,,,
,correct,74,493038,0.0-47.0-0.0,null,,,<div class='center'><p>That's correct!</p></div>,null,<div class='center'><p>That's correct!</p></div>,,,,,,,,,,,
,html-keyboard-response,75,493704,0.0-47.0-1.0,664.5,,,<div class='center'><p>That's correct!</p><p><b>[Press the space bar to continue]</b></p></div>,32,,,,,,,,,,,,
,html-keyboard-response,76,498065,0.0-47.0-2.0,4361.200000047684,,,<div class='center'><p>You should remember the island where a pirate robbed a ship.</p><p>Press 1 for true and press  2 for false.</p></div>,49,,,,,,,,,,,,
,correct,77,500068,0.0-48.0-0.0,null,,,<div class='center'><p>That's correct!</p></div>,null,<div class='center'><p>That's correct!</p></div>,,,,,,,,,,,
,html-keyboard-response,78,501019,0.0-48.0-1.0,951.1000000238419,,,<div class='center'><p>That's correct!</p><p><b>[Press the space bar to continue]</b></p></div>,32,,,,,,,,,,,,
,q_all_err,79,503022,0.0-49.0-0.0,null,,,<div class='center'><p>Oops, you missed some questions. Now that you’ve heard the correct answers. Try the quiz again! </p></div>,null,<div class='center'><p>Oops, you missed some questions. Now that you’ve heard the correct answers. Try the quiz again! </p></div>,,,,,,,,,,,
,html-keyboard-response,80,504995,0.0-49.0-1.0,1972,,,<div class='center'><p>Oops, you missed some questions. Now that you’ve heard the correct answers. Try the quiz again! </p><p><b>[Press the space bar to continue]</b></p></div>,32,,,,,,,,,,,,
,html-keyboard-response,81,506199,0.0-49.0-2.0,1204,,,<div class='center'><p>You win bonus money by collecting gold coins.</p><p>Press 1 for true and press  2 for false.</p></div>,49,,,,,,,,,,,,
,correct,82,508201,0.0-50.0-0.0,null,,,<div class='center'><p>That's correct!</p></div>,null,<div class='center'><p>That's correct!</p></div>,,,,,,,,,,,
,html-keyboard-response,83,508599,0.0-50.0-1.0,397.5,,,<div class='center'><p>That's correct!</p><p><b>[Press the space bar to continue]</b></p></div>,32,,,,,,,,,,,,
,html-keyboard-response,84,510622,0.0-50.0-2.0,2022.3000000715256,,,<div class='center'><p>The pirate who is the best at robbing ships when you first arrive on the island will definitely still be the best when you leave the island. </p><p>Press 1 for true and press  2 for false.</p></div>,50,,,,,,,,,,,,
,correct,85,512624,0.0-51.0-0.0,null,,,<div class='center'><p>That's correct!</p></div>,null,<div class='center'><p>That's correct!</p></div>,,,,,,,,,,,
,html-keyboard-response,86,513231,0.0-51.0-1.0,607.1000000238419,,,<div class='center'><p>That's correct!</p><p><b>[Press the space bar to continue]</b></p></div>,32,,,,,,,,,,,,
,html-keyboard-response,87,517130,0.0-51.0-2.0,3898.5,,,<div class='center'><p>The pirate who is the best at robbing ships on the first island will be the best on every other island.</p><p>Press 1 for true and press  2 for false.</p></div>,50,,,,,,,,,,,,
,correct,88,519132,0.0-52.0-0.0,null,,,<div class='center'><p>That's correct!</p></div>,null,<div class='center'><p>That's correct!</p></div>,,,,,,,,,,,
,html-keyboard-response,89,519991,0.0-52.0-1.0,858.2000000476837,,,<div class='center'><p>That's correct!</p><p><b>[Press the space bar to continue]</b></p></div>,32,,,,,,,,,,,,
,html-keyboard-response,90,523421,0.0-52.0-2.0,3429.2999999523163,,,<div class='center'><p>You should remember the island where a pirate robbed a ship.</p><p>Press 1 for true and press  2 for false.</p></div>,49,,,,,,,,,,,,
,correct,91,525448,0.0-53.0-0.0,null,,,<div class='center'><p>That's correct!</p></div>,null,<div class='center'><p>That's correct!</p></div>,,,,,,,,,,,
,html-keyboard-response,92,526201,0.0-53.0-1.0,751.6000000238419,,,<div class='center'><p>That's correct!</p><p><b>[Press the space bar to continue]</b></p></div>,32,,,,,,,,,,,,
,q_all_corr,93,528202,0.0-54.0-0.0,null,,,<div class='center'><p>Good job! You’re now ready to move on to the real game! Remember this game will be difficult but don't get discouraged and try your best!</p></div>,null,<div class='center'><p>Good job! You’re now ready to move on to the real game! Remember this game will be difficult but don't get discouraged and try your best!</p></div>,,,,,,,,,,,
,html-keyboard-response,94,537328,0.0-54.0-1.0,9125.100000023842,,,<div class='center'><p>Good job! You’re now ready to move on to the real game! Remember this game will be difficult but don't get discouraged and try your best!</p><p><b>[Press the space bar to continue]</b></p></div>,32,,,,,,,,,,,,
,do_welcome,95,541340,0.0-55.0-0.0,null,,,,,,null,,,,,,,,,,
,do_trial,96,544762,0.0-56.0-0.0,919.1000000238419,,,,,,51,1,1,1,0,city,0,0.6,0.3,0.1,1,learn,
,html-keyboard-response,97,545764,0.0-56.0-1.0,null,,,<p></p>,null,,,,,,,,,,,,
,do_trial,98,548820,0.0-57.0-0.0,552.1999999284744,,,,,,51,0,0,0,0,city,1,0.4182510380705003,0.33021670232336603,0.07223368664866914,0,learn,
,html-keyboard-response,99,549822,0.0-57.0-1.0,null,,,<p></p>,null,,,,,,,,,,,,
,do_trial,100,552658,0.0-58.0-0.0,331.89999997615814,,,,,,50,1,0,0,0,city,2,0.4881915848734585,0.18644251258453368,0.0952499458945908,0,learn,
,html-keyboard-response,101,553659,0.0-58.0-1.0,null,,,<p></p>,null,,,,,,,,,,,,
,do_trial,102,556450,0.0-59.0-0.0,286.60000002384186,,,,,,49,0,1,0,0,city,3,0.5259198557233226,0.17997106133023358,0.1820395520213776,0,learn,
,html-keyboard-response,103,557452,0.0-59.0-1.0,null,,,<p></p>,null,,,,,,,,,,,,
,do_trial,104,560218,0.0-60.0-0.0,262,,,,,,51,1,0,0,0,city,4,0.4511377464177226,0.2737614024915323,0.10246235987203417,0,learn,
,html-keyboard-response,105,561220,0.0-60.0-1.0,null,,,<p></p>,null,,,,,,,,,,,,
,do_trial,106,564310,0.0-61.0-0.0,587.1999999284744,,,,,,49,1,0,0,0,city,5,0.517140248898356,0.11335986796210555,0.06640462143379253,1,learn,
,html-keyboard-response,107,565311,0.0-61.0-1.0,null,,,<p></p>,null,,,,,,,,,,,,
,do_trial,108,568189,0.0-62.0-0.0,374.7999999523163,,,,,,49,0,1,1,0,city,6,0.6357432783520985,0.1589441099586022,0.07955989650508109,0,learn,
,html-keyboard-response,109,569191,0.0-62.0-1.0,null,,,<p></p>,null,,,,,,,,,,,,
,do_trial,110,572130,0.0-63.0-0.0,435.89999997615814,,,,,,51,0,0,1,0,city,7,0.5141174205503167,0.14090633137625258,0.24196280457543687,1,learn,
,html-keyboard-response,111,573135,0.0-63.0-1.0,null,,,<p></p>,null,,,,,,,,,,,,
,do_trial,112,575956,0.0-64.0-0.0,316.89999997615814,,,,,,51,0,0,0,0,city,8,0.5425734343494265,0.21684607571475906,0.2861602106611435,0,learn,
,html-keyboard-response,113,576957,0.0-64.0-1.0,null,,,<p></p>,null,,,,,,,,,,,,
,do_trial,114,579771,0.0-65.0-0.0,310,,,,,,50,1,0,0,0,city,9,0.6177114359942334,0.19039276171857594,0.1570403701481759,0,learn,
,html-keyboard-response,115,580773,0.0-65.0-1.0,null,,,<p></p>,null,,,,,,,,,,,,
,do_trial,116,583588,0.0-66.0-0.0,301.39999997615814,,,,,,51,1,0,0,0,city,10,0.609772781883959,0.09303513095518948,0.3156530569306558,0,learn,
,html-keyboard-response,117,584590,0.0-66.0-1.0,null,,,<p></p>,null,,,,,,,,,,,,
,do_trial,118,587555,0.0-67.0-0.0,461.3000000715256,,,,,,49,1,0,1,0,city,11,0.6793394688707215,0.2522036249974481,0.17885468086759093,1,learn,
,html-keyboard-response,119,588557,0.0-67.0-1.0,null,,,<p></p>,null,,,,,,,,,,,,
,do_trial,120,591376,0.0-68.0-0.0,315.8000000715256,,,,,,49,1,0,0,0,city,12,0.5998260664290821,0.19705530371120653,0.18019457504402311,1,learn,
,html-keyboard-response,121,592393,0.0-68.0-1.0,null,,,<p></p>,null,,,,,,,,,,,,
,do_trial,122,595267,0.0-69.0-0.0,369.60000002384186,,,,,,49,0,0,0,0,city,13,0.581800578154297,0.2269870298451912,0.06435446702960813,0,learn,
,html-keyboard-response,123,596269,0.0-69.0-1.0,null,,,<p></p>,null,,,,,,,,,,,,
,do_trial,124,599034,0.0-70.0-0.0,262.7999999523163,,,,,,49,1,0,0,0,city,14,0.6196276574539398,0.40605707305021094,0.10674820831358268,1,learn,
,html-keyboard-response,125,600036,0.0-70.0-1.0,null,,,<p></p>,null,,,,,,,,,,,,
,do_trial,126,602836,0.0-71.0-0.0,296.8000000715256,,,,,,49,1,1,1,0,city,15,0.6386741514803004,0.3982152014289122,0.13734774291941168,1,learn,
,html-keyboard-response,127,603838,0.0-71.0-1.0,null,,,<p></p>,null,,,,,,,,,,,,
,do_trial,128,606874,0.0-72.0-0.0,532,,,,,,49,0,0,1,0,city,16,0.5261096847453759,0.3642532964653028,0.09169973826554688,0,learn,
,html-keyboard-response,129,607876,0.0-72.0-1.0,null,,,<p></p>,null,,,,,,,,,,,,
,do_trial,130,610678,0.0-73.0-0.0,298.39999997615814,,,,,,49,1,1,0,0,city,17,0.6064219093338098,0.4623954285799103,0.10079582842893293,1,learn,
,html-keyboard-response,131,611681,0.0-73.0-1.0,null,,,<p></p>,null,,,,,,,,,,,,
,do_trial,132,614636,0.0-74.0-0.0,450.10000002384186,,,,,,49,1,1,0,0,city,18,0.4382339666764628,0.39885980607565985,0.10807549358438114,1,learn,
,html-keyboard-response,133,615639,0.0-74.0-1.0,null,,,<p></p>,null,,,,,,,,,,,,
,do_trial,134,618609,0.0-75.0-0.0,467.5,,,,,,49,0,0,0,0,city,19,0.4084188487434507,0.38540700958420027,0.2712509751151361,0,learn,
,html-keyboard-response,135,619611,0.0-75.0-1.0,null,,,<p></p>,null,,,,,,,,,,,,
,do_trial,136,622371,0.0-76.0-0.0,255.89999997615814,,,,,,49,0,0,1,0,city,20,0.4179063659974716,0.21537478607289573,0.1659315465539196,0,learn,
,html-keyboard-response,137,623385,0.0-76.0-1.0,null,,,<p></p>,null,,,,,,,,,,,,
,do_trial,138,626194,0.0-77.0-0.0,306,,,,,,49,1,0,0,0,city,21,0.5666448981698441,0.19109755221955446,0.29150859678784186,1,learn,
,html-keyboard-response,139,627195,0.0-77.0-1.0,null,,,<p></p>,null,,,,,,,,,,,,
,do_trial,140,630461,0.0-78.0-0.0,763,,,,,,49,1,0,1,0,city,22,0.5468385533450865,0.06752382771636099,0.2505174601700986,1,learn,
,html-keyboard-response,141,631464,0.0-78.0-1.0,null,,,<p></p>,null,,,,,,,,,,,,
,do_trial,142,634312,0.0-79.0-0.0,330.10000002384186,,,,,,49,0,0,0,0,city,23,0.47463347328768685,0.2355906520450381,0.1850805135701752,0,learn,
,html-keyboard-response,143,635314,0.0-79.0-1.0,null,,,<p></p>,null,,,,,,,,,,,,
,do_trial,144,638079,0.0-80.0-0.0,261.6999999284744,,,,,,49,0,1,1,0,city,24,0.539102285707223,0.2635116582572353,0.2685615550374561,0,learn,
,html-keyboard-response,145,639080,0.0-80.0-1.0,null,,,<p></p>,null,,,,,,,,,,,,
,do_trial,146,641893,0.0-81.0-0.0,308.5,,,,,,49,1,0,1,0,city,25,0.4647664709338922,0.3127635347078173,0.29956884773663467,1,learn,
,html-keyboard-response,147,642895,0.0-81.0-1.0,null,,,<p></p>,null,,,,,,,,,,,,
,do_trial,148,645713,0.0-82.0-0.0,303.7000000476837,,,,,,49,1,1,0,0,city,26,0.46562644348678917,0.29746890398375153,0.27465406537334214,1,learn,
,html-keyboard-response,149,646715,0.0-82.0-1.0,null,,,<p></p>,null,,,,,,,,,,,,
,do_trial,150,649577,0.0-83.0-0.0,357.59999990463257,,,,,,49,0,0,0,0,city,27,0.5280805145750805,0.2723775515861796,0.08815190824660583,0,learn,
,html-keyboard-response,151,650578,0.0-83.0-1.0,null,,,<p></p>,null,,,,,,,,,,,,
,do_trial,152,653386,0.0-84.0-0.0,303.60000002384186,,,,,,49,1,0,1,0,city,28,0.5368243382274688,0.27877338838628346,0.09833173960275302,1,learn,
,html-keyboard-response,153,654388,0.0-84.0-1.0,null,,,<p></p>,null,,,,,,,,,,,,
,do_trial,154,657311,0.0-85.0-0.0,420.10000002384186,,,,,,49,0,1,1,0,city,29,0.42996677518977594,0.3081610897295501,0.22697718604823355,0,learn,
,html-keyboard-response,155,658314,0.0-85.0-1.0,null,,,<p></p>,null,,,,,,,,,,,,
,attention_check,156,661126,0.0-86.0-0.0,2811,,,<div style='position:relative; margin-top: 600px;'><p>Before we set sail — press the <b>Z</b> key to continue!</p></div>,90,,,,,,,,,,,,true
,do_bye,157,662630,0.0-86.0-1.0,null,,,,,,null,,,,,,,,,,
,break,158,673092,0.0-86.0-2.0,10460.5,,,<div class='center'><p>Time to take a quick break! You have 2 minutes to rest, but you can move on sooner if you'd like.</p><p> Press the <b>space bar</b> to continue.</p></div>,32,,,,,,,,,,,,
,do_travel,159,682094,0.0-87.0-0.0,null,,,,,,null,,,,,,,,,,
,do_welcome,160,686107,0.0-87.0-1.0,null,,,,,,null,,,,,,,,,,
,do_trial,161,689809,0.0-88.0-0.0,1196.8999999761581,,,,,,49,1,0,1,1,highway,30,1,0.31874462723089453,0.3244784491461593,1,learn,
,html-keyboard-response,162,690811,0.0-88.0-1.0,null,,,<p></p>,null,,,,,,,,,,,,
,do_trial,163,693699,0.0-89.0-0.0,384.10000002384186,,,,,,49,1,0,0,1,highway,31,1,0.2915561979295338,0.24712478057871398,1,learn,
,html-keyboard-response,164,694701,0.0-89.0-1.0,null,,,<p></p>,null,,,,,,,,,,,,
,do_trial,165,697500,0.0-90.0-0.0,295.1999999284744,,,,,,50,1,1,0,1,highway,32,1,0.40985808435468196,0.3132882256920594,1,learn,
,html-keyboard-response,166,698502,0.0-90.0-1.0,null,,,<p></p>,null,,,,,,,,,,,,
,do_trial,167,701300,0.0-91.0-0.0,295,,,,,,50,1,0,0,1,highway,33,0.8748996572923639,0.40498702286258403,0.3106445806167795,0,learn,
,html-keyboard-response,168,702302,0.0-91.0-1.0,null,,,<p></p>,null,,,,,,,,,,,,
,do_trial,169,705156,0.0-92.0-0.0,349.7000000476837,,,,,,51,1,1,0,1,highway,34,0.778592481906782,0.3259005649141035,0.27511005886769996,0,learn,
,html-keyboard-response,170,706157,0.0-92.0-1.0,null,,,<p></p>,null,,,,,,,,,,,,
,do_trial,171,708984,0.0-93.0-0.0,323.2000000476837,,,,,,49,1,0,0,1,highway,35,0.702031734300887,0.15352291334241266,0.15514106901044597,1,learn,
,html-keyboard-response,172,709987,0.0-93.0-1.0,null,,,<p></p>,null,,,,,,,,,,,,
,do_trial,173,712776,0.0-94.0-0.0,285.7000000476837,,,,,,49,1,0,0,1,highway,36,0.6821318586499414,0.2657425671239792,0.07573482716692649,1,learn,
,html-keyboard-response,174,713777,0.0-94.0-1.0,null,,,<p></p>,null,,,,,,,,,,,,
,do_trial,175,716585,0.0-95.0-0.0,303.7000000476837,,,,,,49,1,0,1,1,highway,37,0.7830073807014961,0.2628748245036287,0.0763895781407968,1,learn,
,html-keyboard-response,176,717587,0.0-95.0-1.0,null,,,<p></p>,null,,,,,,,,,,,,
,do_trial,177,720360,0.0-96.0-0.0,269.39999997615814,,,,,,49,1,0,0,1,highway,38,0.734735544515504,0.2676706824747759,0.09256979864679778,1,learn,
,html-keyboard-response,178,721362,0.0-96.0-1.0,null,,,<p></p>,null,,,,,,,,,,,,
,do_trial,179,724248,0.0-97.0-0.0,381.8000000715256,,,,,,49,0,1,0,1,highway,39,0.6963898586079553,0.2697991037442105,0.07036435974158271,0,learn,
,html-keyboard-response,180,725250,0.0-97.0-1.0,null,,,<p></p>,null,,,,,,,,,,,,
,do_trial,181,728022,0.0-98.0-0.0,268.2999999523163,,,,,,49,1,0,0,1,highway,40,0.5668772579182095,0.2366330040107688,0.06984288524888341,1,learn,
,html-keyboard-response,182,729025,0.0-98.0-1.0,null,,,<p></p>,null,,,,,,,,,,,,
,do_trial,183,731935,0.0-99.0-0.0,406.6999999284744,,,,,,49,1,0,0,1,highway,41,0.47254851839295314,0.18420820038515,0.24653858976266343,1,learn,
,html-keyboard-response,184,732936,0.0-99.0-1.0,null,,,<p></p>,null,,,,,,,,,,,,
,do_trial,185,735917,0.0-100.0-0.0,477.39999997615814,,,,,,49,0,0,0,1,highway,42,0.3768125650601216,0.2003606976914994,0.18779144212178778,0,learn,
,html-keyboard-response,186,736920,0.0-100.0-1.0,null,,,<p></p>,null,,,,,,,,,,,,
,do_trial,187,739750,0.0-101.0-0.0,326.39999997615814,,,,,,49,0,0,0,1,highway,43,0.13147484023869688,0.34124863934708316,0.3437254139992446,0,learn,
,html-keyboard-response,188,740752,0.0-101.0-1.0,null,,,<p></p>,null,,,,,,,,,,,,
,do_trial,189,743622,0.0-102.0-0.0,366.3000000715256,,,,,,50,0,0,0,1,highway,44,0.1151251915244257,0.29541518339972106,0.36004179946307235,0,learn,
,html-keyboard-response,190,744624,0.0-102.0-1.0,null,,,<p></p>,null,,,,,,,,,,,,
,do_trial,191,747395,0.0-103.0-0.0,266.8000000715256,,,,,,50,0,1,1,1,highway,45,0.13452531500586737,0.280113896033402,0.5314828978893444,1,learn,
,html-keyboard-response,192,748397,0.0-103.0-1.0,null,,,<p></p>,null,,,,,,,,,,,,
,do_trial,193,751212,0.0-104.0-0.0,310.7999999523163,,,,,,50,0,0,0,1,highway,46,0.23335990872588014,0.24835449645140403,0.42355938914503904,0,learn,
,html-keyboard-response,194,752215,0.0-104.0-1.0,null,,,<p></p>,null,,,,,,,,,,,,
,do_trial,195,755060,0.0-105.0-0.0,329.60000002384186,,,,,,50,1,1,0,1,highway,47,0.18637846635858035,0.2136709959692065,0.48034067813536013,1,learn,
,html-keyboard-response,196,756062,0.0-105.0-1.0,null,,,<p></p>,null,,,,,,,,,,,,
,do_trial,197,758898,0.0-106.0-0.0,332.10000002384186,,,,,,50,0,0,0,1,highway,48,0.21221917274362018,0.21660763775767336,0.4863128732650061,0,learn,
,html-keyboard-response,198,759900,0.0-106.0-1.0,null,,,<p></p>,null,,,,,,,,,,,,
,do_trial,199,762681,0.0-107.0-0.0,276.7000000476837,,,,,,49,0,0,0,1,highway,49,0.20054391422874368,0.18174688927742622,0.6003816685160897,0,learn,
,html-keyboard-response,200,763683,0.0-107.0-1.0,null,,,<p></p>,null,,,,,,,,,,,,
,do_trial,201,766542,0.0-108.0-0.0,354.7000000476837,,,,,,49,0,0,1,1,highway,50,0.055678401051495074,0.2675274704677166,0.6856092828656389,0,learn,
,html-keyboard-response,202,767544,0.0-108.0-1.0,null,,,<p></p>,null,,,,,,,,,,,,
,do_trial,203,770603,0.0-109.0-0.0,555.7999999523163,,,,,,49,0,0,1,1,highway,51,0.07055933898825704,0.3777702463721813,0.574825600233632,0,learn,
,html-keyboard-response,204,771604,0.0-109.0-1.0,null,,,<p></p>,null,,,,,,,,,,,,
,do_trial,205,774420,0.0-110.0-0.0,311.6999999284744,,,,,,51,0,0,0,1,highway,52,0.08427150940467076,0.378709662325034,0.6528298222558653,0,learn,
,html-keyboard-response,206,775422,0.0-110.0-1.0,null,,,<p></p>,null,,,,,,,,,,,,
,do_trial,207,778378,0.0-111.0-0.0,452.7999999523163,,,,,,50,0,0,1,1,highway,53,0.08727649025787242,0.2615936596797539,0.5608524422536992,0,learn,
,html-keyboard-response,208,779380,0.0-111.0-1.0,null,,,<p></p>,null,,,,,,,,,,,,
,do_trial,209,782169,0.0-112.0-0.0,285.89999997615814,,,,,,50,0,0,1,1,highway,54,0.1346324165676064,0.29496442694665453,0.6586188248946236,0,learn,
,html-keyboard-response,210,783170,0.0-112.0-1.0,null,,,<p></p>,null,,,,,,,,,,,,
,do_trial,211,786158,0.0-113.0-0.0,484.7999999523163,,,,,,50,0,0,0,1,highway,55,0.19865098497508749,0.256158318140495,0.5337106209255653,0,learn,
,html-keyboard-response,212,787160,0.0-113.0-1.0,null,,,<p></p>,null,,,,,,,,,,,,
,do_trial,213,789937,0.0-114.0-0.0,274.10000002384186,,,,,,51,0,0,0,1,highway,56,0.11345988839352301,0.4406320230902035,0.7015323083340068,0,learn,
,html-keyboard-response,214,790939,0.0-114.0-1.0,null,,,<p></p>,null,,,,,,,,,,,,
,do_trial,215,793760,0.0-115.0-0.0,317.6999999284744,,,,,,51,0,1,0,1,highway,57,0.13566712906640743,0.3667651106283734,0.5996941216585673,0,learn,
,html-keyboard-response,216,794762,0.0-115.0-1.0,null,,,<p></p>,null,,,,,,,,,,,,
,do_trial,217,797573,0.0-116.0-0.0,307.2999999523163,,,,,,49,0,0,1,1,highway,58,0.1178002001547306,0.30161012414916855,0.5620052651305167,0,learn,
,html-keyboard-response,218,798574,0.0-116.0-1.0,null,,,<p></p>,null,,,,,,,,,,,,
,do_trial,219,801347,0.0-117.0-0.0,266.5,,,,,,49,0,1,1,1,highway,59,0.06190308508944084,0.34043554068197696,0.633480078227329,0,learn,
,html-keyboard-response,220,802348,0.0-117.0-1.0,null,,,<p></p>,null,,,,,,,,,,,,
,do_trial,221,805173,0.0-118.0-0.0,313.7999999523163,,,,,,50,0,0,1,1,highway,60,0.07699403305803103,0.25270663234251795,0.6686443022965086,0,learn,
,html-keyboard-response,222,806175,0.0-118.0-1.0,null,,,<p></p>,null,,,,,,,,,,,,
,do_trial,223,808978,0.0-119.0-0.0,298.90000009536743,,,,,,50,0,0,0,1,highway,61,0.10148121711108286,0.2586998311634829,0.6103855320771683,0,learn,
,html-keyboard-response,224,809980,0.0-119.0-1.0,null,,,<p></p>,null,,,,,,,,,,,,
,do_trial,225,813107,0.0-120.0-0.0,624.4000000953674,,,,,,50,0,0,0,1,highway,62,0.1918264501423085,0.23462535179693866,0.6921314490734324,0,learn,
,html-keyboard-response,226,814109,0.0-120.0-1.0,null,,,<p></p>,null,,,,,,,,,,,,
,do_trial,227,816952,0.0-121.0-0.0,338.8000000715256,,,,,,51,0,0,1,1,highway,63,0.07783750998765589,0.2810065362740856,0.7073516439725621,1,learn,
,html-keyboard-response,228,817953,0.0-121.0-1.0,null,,,<p></p>,null,,,,,,,,,,,,
,do_trial,229,821007,0.0-122.0-0.0,548.3999999761581,,,,,,51,1,0,1,1,highway,64,0.22441061102865104,0.21936373538662374,0.7190380617593595,1,learn,
,html-keyboard-response,230,822008,0.0-122.0-1.0,null,,,<p></p>,null,,,,,,,,,,,,
,do_trial,231,824939,0.0-123.0-0.0,426.5,,,,,,51,0,1,1,1,highway,65,0.18832530996227156,0.38251269931895854,0.6339962373371035,1,learn,
,html-keyboard-response,232,825941,0.0-123.0-1.0,null,,,<p></p>,null,,,,,,,,,,,,
,do_trial,233,828808,0.0-124.0-0.0,363.10000002384186,,,,,,51,0,0,0,1,highway,66,0.0929365923173323,0.42172838146591785,0.7144950487276693,0,learn,
,html-keyboard-response,234,829810,0.0-124.0-1.0,null,,,<p></p>,null,,,,,,,,,,,,
,do_trial,235,832690,0.0-125.0-0.0,377.39999997615814,,,,,,51,1,1,1,1,highway,67,0.20182182543092084,0.4825018714940662,0.6795795387754511,1,learn,
,html-keyboard-response,236,833692,0.0-125.0-1.0,null,,,<p></p>,null,,,,,,,,,,,,
,do_trial,237,836631,0.0-126.0-0.0,434.09999990463257,,,,,,51,0,0,1,1,highway,68,0.059345355558932694,0.44080201082879067,0.6096256722361024,1,learn,
,html-keyboard-response,238,837633,0.0-126.0-1.0,null,,,<p></p>,null,,,,,,,,,,,,
,do_trial,239,840895,0.0-127.0-0.0,758.8000000715256,,,,,,51,0,0,1,1,highway,69,0.0671605864491091,0.28256909416461784,0.4529277011164302,1,learn,
,html-keyboard-response,240,841897,0.0-127.0-1.0,null,,,<p></p>,null,,,,,,,,,,,,
,attention_check,241,844463,0.0-128.0-0.0,2565.0999999046326,,,<div style='position:relative; margin-top: 600px;'><p>Before we set sail — press the <b>Z</b> key to continue!</p></div>,90,,,,,,,,,,,,true
,do_bye,242,845968,0.0-128.0-1.0,null,,,,,,null,,,,,,,,,,
,break,243,873572,0.0-128.0-2.0,27602.600000023842,,,<div class='center'><p>Time to take a quick break! You have 2 minutes to rest, but you can move on sooner if you'd like.</p><p> Press the <b>space bar</b> to continue.</p></div>,32,,,,,,,,,,,,
,do_travel,244,882575,0.0-129.0-0.0,null,,,,,,null,,,,,,,,,,
