success,trial_type,trial_index,time_elapsed,internal_node_id,rt,responses,subject_id,stimulus,key_press,prompt,response,choice_outcomes,context_n,context_img_id,trial_n,pR_red,pR_white,pR_black,outcome,phase,passed
true,fullscreen,0,4539,0.0-0.0,,,,,,,,,,,,,,,,,
,survey-html-form,1,10319,0.0-1.0,5777.800000000279,{worker_id:ryan},ryan,,,,,,,,,,,,,,
,instruc1,2,12320,0.0-2.0,null,,ryan,<div class='center'><p>Welcome! This study will last ~30 minutes. After the instructions there will be a practice game and quiz to make sure you understand the task. Today you will be the head captain of a pirate ship traveling around the world to different islands. Here is an overview of what you will be doing:</p><br><p> 1. Try to find the most successful pirate on 6 different islands</p><p> 2. Recall which pirates did the best on each island</p><br><p>,null,<div class='center'><p>Welcome! This study will last ~30 minutes. After the instructions there will be a practice game and quiz to make sure you understand the task. Today you will be the head captain of a pirate ship traveling around the world to different islands. Here is an overview of what you will be doing:</p><br><p> 1. Try to find the most successful pirate on 6 different islands</p><p> 2. Recall which pirates did the best on each island</p><br><p>,,,,,,,,,,,
,html-keyboard-response,3,45045,0.0-3.0,32723.399999999907,,,<div class='center'><p>Welcome! This study will last ~30 minutes. After the instructions there will be a practice game and quiz to make sure you understand the task. Today you will be the head captain of a pirate ship traveling around the world to different islands. Here is an overview of what you will be doing:</p><br><p> 1. Try to find the most successful pirate on 6 different islands</p><p> 2. Recall which pirates did the best on each island</p><br><p><p><b>[Press the space bar to continue]</b></p></div>,32,,,,,,,,,,,,
,instruc2,4,47047,0.0-4.0,null,,,<div class='center'><p>You are going to visit these 6 islands on your journey. You'll be able to see these islands from your ship.</p><p><img src='../static/images/contexts/all_contexts.png' height='500'></p></div>,null,<div class='center'><p>You are going to visit these 6 islands on your journey. You'll be able to see these islands from your ship.</p><p><img src='../static/images/contexts/all_contexts.png' height='500'></p></div>,,,,,,,,,,,
,html-keyboard-response,5,62664,0.0-5.0,15615.400000000373,,,<div class='center'><p>You are going to visit these 6 islands on your journey. You'll be able to see these islands from your ship.</p><p><img src='../static/images/contexts/all_contexts.png' height='500'></p><p><b>[Press the space bar to continue]</b></p></div>,32,,,,,,,,,,,,
,instruc4,6,64667,0.0-6.0,null,,,<div class='center'><p>As the head captain, you do not have to rob any ships yourself. Another pirate will be doing the robbing for you. First, you will choose a pirate to rob the next ship.</p><p><img src='../static/images/tutorial/pirates_all_crop.png' height='200'></p><p>Then, you'll see if the pirate successfully robbed the ship of their gold. If they were successful, then you'll get a stack of gold coins like this:</p><p><img src='../static/images/tutorial/reward.png' height='150'></p><p> If they were <b>not</b> successful, then you'll get no gold coins, and you'll see a big red x like this: </p><p><img src='../static/images/tutorial/reward_no.png' height='150'></p><p> How much bonus money you make is based on how many gold coins you collect.</p><div>,null,<div class='center'><p>As the head captain, you do not have to rob any ships yourself. Another pirate will be doing the robbing for you. First, you will choose a pirate to rob the next ship.</p><p><img src='../static/images/tutorial/pirates_all_crop.png' height='200'></p><p>Then, you'll see if the pirate successfully robbed the ship of their gold. If they were successful, then you'll get a stack of gold coins like this:</p><p><img src='../static/images/tutorial/reward.png' height='150'></p><p> If they were <b>not</b> successful, then you'll get no gold coins, and you'll see a big red x like this: </p><p><img src='../static/images/tutorial/reward_no.png' height='150'></p><p> How much bonus money you make is based on how many gold coins you collect.</p><div>,,,,,,,,,,,
,html-keyboard-response,7,84431,0.0-7.0,19762,,,<div class='center'><p>As the head captain, you do not have to rob any ships yourself. Another pirate will be doing the robbing for you. First, you will choose a pirate to rob the next ship.</p><p><img src='../static/images/tutorial/pirates_all_crop.png' height='200'></p><p>Then, you'll see if the pirate successfully robbed the ship of their gold. If they were successful, then you'll get a stack of gold coins like this:</p><p><img src='../static/images/tutorial/reward.png' height='150'></p><p> If they were <b>not</b> successful, then you'll get no gold coins, and you'll see a big red x like this: </p><p><img src='../static/images/tutorial/reward_no.png' height='150'></p><p> How much bonus money you make is based on how many gold coins you collect.</p><div><p><b>[Press the space bar to continue]</b></p></div>,32,,,,,,,,,,,,
,instruc5,8,104837,0.0-8.0,20405,,,<div class='center'><p>Even the most skilled pirate can not rob EVERY ship.</p><p> Some ships will have very strong protections against pirate attacks.</p><p> Blue beard, here, is very, very good at robbing ships, but he won't be successful every time he tries to rob one.</p><p> You can press the <b>'1'</b> key on the keyboard to choose him.</p><p> Try choosing him 10 times to see how often he succeeds at robbing a ship. </p><p><img src='../static/images/tutorial/blue.png' height='500'></p></div>,49,<div class='center'><p>Even the most skilled pirate can not rob EVERY ship.</p><p> Some ships will have very strong protections against pirate attacks.</p><p> Blue beard, here, is very, very good at robbing ships, but he won't be successful every time he tries to rob one.</p><p> You can press the <b>'1'</b> key on the keyboard to choose him.</p><p> Try choosing him 10 times to see how often he succeeds at robbing a ship. </p><p><img src='../static/images/tutorial/blue.png' height='500'></p></div>,,,,,,,,,,,
,html-keyboard-response,9,106340,0.0-9.0,null,,,<div class='center'><p><img src='../static/images/tutorial/blue_win.png' height='500'></p></div>,null,,,,,,,,,,,,
,html-keyboard-response,10,110473,0.0-10.0,4131.399999999907,,,<div class='center'><img src='../static/images/tutorial/blue.png' height='500'></p></div>,49,,,,,,,,,,,,
,html-keyboard-response,11,111975,0.0-11.0,null,,,<div class='center'><p><img src='../static/images/tutorial/blue_win.png' height='500'></p></div>,null,,,,,,,,,,,,
,html-keyboard-response,12,113151,0.0-12.0,1174.5,,,<div class='center'><img src='../static/images/tutorial/blue.png' height='500'></p></div>,49,,,,,,,,,,,,
,html-keyboard-response,13,114653,0.0-13.0,null,,,<div class='center'><p><img src='../static/images/tutorial/blue_win.png' height='500'></p></div>,null,,,,,,,,,,,,
,html-keyboard-response,14,115183,0.0-14.0,528.1999999997206,,,<div class='center'><img src='../static/images/tutorial/blue.png' height='500'></p></div>,49,,,,,,,,,,,,
,html-keyboard-response,15,116685,0.0-15.0,null,,,<div class='center'><p><img src='../static/images/tutorial/blue_no_win.png' height='500'></p></div>,null,,,,,,,,,,,,
,html-keyboard-response,16,117155,0.0-16.0,469.10000000009313,,,<div class='center'><img src='../static/images/tutorial/blue.png' height='500'></p></div>,49,,,,,,,,,,,,
,html-keyboard-response,17,118658,0.0-17.0,null,,,<div class='center'><p><img src='../static/images/tutorial/blue_win.png' height='500'></p></div>,null,,,,,,,,,,,,
,html-keyboard-response,18,119128,0.0-18.0,468.89999999990687,,,<div class='center'><img src='../static/images/tutorial/blue.png' height='500'></p></div>,49,,,,,,,,,,,,
,html-keyboard-response,19,120631,0.0-19.0,null,,,<div class='center'><p><img src='../static/images/tutorial/blue_win.png' height='500'></p></div>,null,,,,,,,,,,,,
,html-keyboard-response,20,121356,0.0-20.0,724.3000000002794,,,<div class='center'><img src='../static/images/tutorial/blue.png' height='500'></p></div>,49,,,,,,,,,,,,
,html-keyboard-response,21,122859,0.0-21.0,null,,,<div class='center'><p><img src='../static/images/tutorial/blue_win.png' height='500'></p></div>,null,,,,,,,,,,,,
,html-keyboard-response,22,123347,0.0-22.0,486.70000000018626,,,<div class='center'><img src='../static/images/tutorial/blue.png' height='500'></p></div>,49,,,,,,,,,,,,
,html-keyboard-response,23,124849,0.0-23.0,null,,,<div class='center'><p><img src='../static/images/tutorial/blue_no_win.png' height='500'></p></div>,null,,,,,,,,,,,,
,html-keyboard-response,24,125617,0.0-24.0,766.7000000001863,,,<div class='center'><img src='../static/images/tutorial/blue.png' height='500'></p></div>,49,,,,,,,,,,,,
,html-keyboard-response,25,127120,0.0-25.0,null,,,<div class='center'><p><img src='../static/images/tutorial/blue_win.png' height='500'></p></div>,null,,,,,,,,,,,,
,html-keyboard-response,26,127704,0.0-26.0,583.1000000000931,,,<div class='center'><img src='../static/images/tutorial/blue.png' height='500'></p></div>,49,,,,,,,,,,,,
,html-keyboard-response,27,129206,0.0-27.0,null,,,<div class='center'><p><img src='../static/images/tutorial/blue_win.png' height='500'></p></div>,null,,,,,,,,,,,,
,instruc6,28,131209,0.0-28.0,null,,,<div class='center'><p> See, he succeeded in robbing the ships most of the time but not every time. </p></div>,null,<div class='center'><p> See, he succeeded in robbing the ships most of the time but not every time. </p></div>,,,,,,,,,,,
,html-keyboard-response,29,134782,0.0-29.0,3572.4000000003725,,,<div class='center'><p> See, he succeeded in robbing the ships most of the time but not every time. </p><p><b>[Press the space bar to continue]</b></p></div>,32,,,,,,,,,,,,
,html-keyboard-response,30,143210,0.0-30.0,8426.5,,,<div class='center'><p>From these three pirates, you will get to choose which one you want to rob the next ship. <p>Press the <b>'1'</b> key on your keyboard to pick the pirate with the red beard.</p><p> Press <b>'2'</b> to pick the pirate with the white beard.</p><p> Press <b>'3'</b> to pick the pirate with the black beard.</p><p>Try picking a pirate now!</p><p><img src='../static/images/tutorial/all_pirates.png' height='500'></p></div>,49,,,,,,,,,,,,
,audio-keyboard-response,31,145388,0.0-31.0-0.0,2174.6999999997206,,,../static/audio/clip_8_chosen_pirate_win.m4a,32,,,,,,,,,,,,
,html-keyboard-response,32,147382,0.0-31.0-1.0,1992.3999999999069,,,<div class='center'><p>Now try choosing another.</p><p><img src='../static/images/tutorial/all_pirates.png' height='500'></p></div>,49,,,,,,,,,,,,
,audio-keyboard-response,33,148224,0.0-32.0-0.0,840.1000000000931,,,../static/audio/clip_10_chosen_pirate_loss.m4a,32,,,,,,,,,,,,
,instruc9,34,150227,0.0-33.0-0.0,null,,,<div class='center'><p>If you don't make your choice fast enough, you'll have to wait a few seconds before you can make another one. </p><p><img src='../static/images/miscellaneous/hurry_up.png' height='500'></p></div>,null,<div class='center'><p>If you don't make your choice fast enough, you'll have to wait a few seconds before you can make another one. </p><p><img src='../static/images/miscellaneous/hurry_up.png' height='500'></p></div>,,,,,,,,,,,
,html-keyboard-response,35,153384,0.0-33.0-1.0,3155.2000000001863,,,<div class='center'><p>If you don't make your choice fast enough, you'll have to wait a few seconds before you can make another one. </p><p><img src='../static/images/miscellaneous/hurry_up.png' height='500'></p><p><b>[Press the space bar to continue]</b></p></div>,32,,,,,,,,,,,,
,instruc11,36,155385,0.0-33.0-2.0,null,,,<div class='center'><p>How successful a pirate is at robbing ships will depend on the island you're on.</p><p> A pirate may have visited this island many times before and gained a lot of practice robbing ships there.</p><p>So, they're more likely to be successful than a pirate who has never visited the island before.</p></div>,null,<div class='center'><p>How successful a pirate is at robbing ships will depend on the island you're on.</p><p> A pirate may have visited this island many times before and gained a lot of practice robbing ships there.</p><p>So, they're more likely to be successful than a pirate who has never visited the island before.</p></div>,,,,,,,,,,,
,html-keyboard-response,37,156923,0.0-33.0-3.0,1536.7000000001863,,,<div class='center'><p>How successful a pirate is at robbing ships will depend on the island you're on.</p><p> A pirate may have visited this island many times before and gained a lot of practice robbing ships there.</p><p>So, they're more likely to be successful than a pirate who has never visited the island before.</p><p><b>[Press the space bar to continue]</b></p></div>,32,,,,,,,,,,,,
,instruc12,38,158925,0.0-33.0-4.0,null,,,<div class='center'><p>How successful a pirate is at robbing ships can also change over the time spent on the island. </p><p> Ships may hear from islanders about the pirates coming and will improve their protections against the attack. This may make it harder to rob them.</p><p> Ships may also become lazy and weaken the strength of their protections. This may make it easier to rob them.</p><br><p>Things are always changing on the high seas! So, try your best to pay attention!</p><p><img src='../static/images/tutorial/contingency.png' height='500'></p></div>,null,<div class='center'><p>How successful a pirate is at robbing ships can also change over the time spent on the island. </p><p> Ships may hear from islanders about the pirates coming and will improve their protections against the attack. This may make it harder to rob them.</p><p> Ships may also become lazy and weaken the strength of their protections. This may make it easier to rob them.</p><br><p>Things are always changing on the high seas! So, try your best to pay attention!</p><p><img src='../static/images/tutorial/contingency.png' height='500'></p></div>,,,,,,,,,,,
,html-keyboard-response,39,163586,0.0-33.0-5.0,4659.199999999721,,,<div class='center'><p>How successful a pirate is at robbing ships can also change over the time spent on the island. </p><p> Ships may hear from islanders about the pirates coming and will improve their protections against the attack. This may make it harder to rob them.</p><p> Ships may also become lazy and weaken the strength of their protections. This may make it easier to rob them.</p><br><p>Things are always changing on the high seas! So, try your best to pay attention!</p><p><img src='../static/images/tutorial/contingency.png' height='500'></p><p><b>[Press the space bar to continue]</b></p></div>,32,,,,,,,,,,,,
,instruc13,40,165588,0.0-33.0-6.0,null,,,<div class='center'><p>Let's go over the instructions quickly again. You have one thing to do: </p><b><p> Pick the pirate who is the best at robbing ships on the current island. </p></b><b><p> The amount of bonus money you win depends on it.</p><p><br><p>Let's try a practice game. The game will start by showing you an island. Pick a pirate using the <b> 1, 2, 3 </b> keys on your keyboard to get it to try and rob one of the ships leaving the island.</p><p>This is just a practice game, so you're not playing for money. </p><p> Good luck! This game will be very difficult but try your best!</p></div>,null,<div class='center'><p>Let's go over the instructions quickly again. You have one thing to do: </p><b><p> Pick the pirate who is the best at robbing ships on the current island. </p></b><b><p> The amount of bonus money you win depends on it.</p><p><br><p>Let's try a practice game. The game will start by showing you an island. Pick a pirate using the <b> 1, 2, 3 </b> keys on your keyboard to get it to try and rob one of the ships leaving the island.</p><p>This is just a practice game, so you're not playing for money. </p><p> Good luck! This game will be very difficult but try your best!</p></div>,,,,,,,,,,,
,html-keyboard-response,41,173325,0.0-33.0-7.0,7735.399999999907,,,<div class='center'><p>Let's go over the instructions quickly again. You have one thing to do: </p><b><p> Pick the pirate who is the best at robbing ships on the current island. </p></b><b><p> The amount of bonus money you win depends on it.</p><p><br><p>Let's try a practice game. The game will start by showing you an island. Pick a pirate using the <b> 1, 2, 3 </b> keys on your keyboard to get it to try and rob one of the ships leaving the island.</p><p>This is just a practice game, so you're not playing for money. </p><p> Good luck! This game will be very difficult but try your best!</p><p><b>[Press the space bar to continue]</b></p></div>,32,,,,,,,,,,,,
,do_welcome,42,177333,0.0-33.0-8.0,null,,,,,,null,,,,,,,,,,
,do_trial,43,182343,0.0-33.0-9.0,2501.899999999907,,,,,,49,1,0,0,,,,,,,,,
,html-keyboard-response,44,183346,0.0-34.0-0.0,null,,,<p></p>,null,,,,,,,,,,,,
,do_trial,45,186913,0.0-34.0-1.0,1060.8999999999069,,,,,,49,1,1,0,,,,,,,,,
,html-keyboard-response,46,187916,0.0-35.0-0.0,null,,,<p></p>,null,,,,,,,,,,,,
,do_trial,47,190856,0.0-35.0-1.0,433.5,,,,,,49,1,0,1,,,,,,,,,
,html-keyboard-response,48,191859,0.0-36.0-0.0,null,,,<p></p>,null,,,,,,,,,,,,
,do_trial,49,195145,0.0-36.0-1.0,779.1000000000931,,,,,,49,0,1,0,,,,,,,,,
,html-keyboard-response,50,196148,0.0-37.0-0.0,null,,,<p></p>,null,,,,,,,,,,,,
,do_trial,51,201644,0.0-37.0-1.0,2989.3000000002794,,,,,,50,1,0,0,,,,,,,,,
,do_bye,52,203152,0.0-38.0-0.0,null,,,,,,null,,,,,,,,,,
,do_travel,53,212157,0.0-38.0-1.0,null,,,,,,null,,,,,,,,,,
,do_welcome,54,216164,0.0-38.0-2.0,null,,,,,,null,,,,,,,,,,
,do_trial,55,220739,0.0-38.0-3.0,2067.600000000093,,,,,,49,1,0,0,,,,,,,,,
,html-keyboard-response,56,221743,0.0-39.0-0.0,null,,,<p></p>,null,,,,,,,,,,,,
,do_trial,57,225270,0.0-39.0-1.0,1021.3999999999069,,,,,,49,1,0,1,,,,,,,,,
,html-keyboard-response,58,226273,0.0-40.0-0.0,null,,,<p></p>,null,,,,,,,,,,,,
,do_trial,59,229275,0.0-40.0-1.0,496,,,,,,49,1,1,0,,,,,,,,,
,html-keyboard-response,60,230278,0.0-41.0-0.0,null,,,<p></p>,null,,,,,,,,,,,,
,do_trial,61,233311,0.0-41.0-1.0,527.5,,,,,,51,0,0,1,,,,,,,,,
,html-keyboard-response,62,234315,0.0-42.0-0.0,null,,,<p></p>,null,,,,,,,,,,,,
,do_trial,63,237197,0.0-42.0-1.0,374.89999999990687,,,,,,51,1,0,1,,,,,,,,,
,html-keyboard-response,64,240526,0.0-43.0-0.0,3327.600000000093,,,<div class='center'><p><img src='../static/images/tutorial/prac_best_pirate.png' height='500'></p></div>,49,,,,,,,,,,,,
,html-keyboard-response,65,243042,0.0-44.0-0.0,2513.7000000001863,,,<div class='center'><p>That's correct! Red beard was the best.</p><p><b>[Press the space bar to continue]</b></p></div>,32,,,,,,,,,,,,
,quiz_beginning,66,245044,0.0-44.0-1.0,null,,,<div class='center'><p>Good job on the practice game! Now, you will be asked some true or false questions to make sure you really understand the rules of the game.</p><p> Press <b>'1'</b> on the keyboard for true and press <b>'2'</b> for false.</p></div>,null,<div class='center'><p>Good job on the practice game! Now, you will be asked some true or false questions to make sure you really understand the rules of the game.</p><p> Press <b>'1'</b> on the keyboard for true and press <b>'2'</b> for false.</p></div>,,,,,,,,,,,
,html-keyboard-response,67,250483,0.0-44.0-2.0,5437.9000000003725,,,<div class='center'><p>You win bonus money by collecting gold coins.</p><p>Press 1 for true and press  2 for false.</p></div>,49,,,,,,,,,,,,
,correct,68,252485,0.0-45.0-0.0,null,,,<div class='center'><p>That's correct!</p></div>,null,<div class='center'><p>That's correct!</p></div>,,,,,,,,,,,
,html-keyboard-response,69,253148,0.0-45.0-1.0,661.5,,,<div class='center'><p>That's correct!</p><p><b>[Press the space bar to continue]</b></p></div>,32,,,,,,,,,,,,
,html-keyboard-response,70,257959,0.0-45.0-2.0,4810.699999999721,,,<div class='center'><p>The pirate who is the best at robbing ships when you first arrive on the island will definitely still be the best when you leave the island. </p><p>Press 1 for true and press  2 for false.</p></div>,50,,,,,,,,,,,,
,correct,71,259962,0.0-46.0-0.0,null,,,<div class='center'><p>That's correct!</p></div>,null,<div class='center'><p>That's correct!</p></div>,,,,,,,,,,,
,html-keyboard-response,72,260827,0.0-46.0-1.0,864,,,<div class='center'><p>That's correct!</p><p><b>[Press the space bar to continue]</b></p></div>,32,,,,,,,,,,,,
,html-keyboard-response,73,265249,0.0-46.0-2.0,4421.600000000093,,,<div class='center'><p>The pirate who is the best at robbing ships on the first island will be the best on every other island.</p><p>Press 1 for true and press  2 for false.</p></div>,50,,,,,,,,,,,,
,correct,74,267252,0.0-47.0-0.0,null,,,<div class='center'><p>That's correct!</p></div>,null,<div class='center'><p>That's correct!</p></div>,,,,,,,,,,,
,html-keyboard-response,75,267746,0.0-47.0-1.0,493.5,,,<div class='center'><p>That's correct!</p><p><b>[Press the space bar to continue]</b></p></div>,32,,,,,,,,,,,,
,html-keyboard-response,76,273220,0.0-47.0-2.0,5474.0999999996275,,,<div class='center'><p>You should remember the island where a pirate robbed a ship.</p><p>Press 1 for true and press  2 for false.</p></div>,49,,,,,,,,,,,,
,correct,77,275244,0.0-48.0-0.0,null,,,<div class='center'><p>That's correct!</p></div>,null,<div class='center'><p>That's correct!</p></div>,,,,,,,,,,,
,html-keyboard-response,78,275855,0.0-48.0-1.0,610.2999999998137,,,<div class='center'><p>That's correct!</p><p><b>[Press the space bar to continue]</b></p></div>,32,,,,,,,,,,,,
,q_all_corr,79,277858,0.0-49.0-0.0,null,,,<div class='center'><p>Good job! You’re now ready to move on to the real game! Remember this game will be difficult but don't get discouraged and try your best!</p></div>,null,<div class='center'><p>Good job! You’re now ready to move on to the real game! Remember this game will be difficult but don't get discouraged and try your best!</p></div>,,,,,,,,,,,
,html-keyboard-response,80,281331,0.0-49.0-1.0,3471.100000000093,,,<div class='center'><p>Good job! You’re now ready to move on to the real game! Remember this game will be difficult but don't get discouraged and try your best!</p><p><b>[Press the space bar to continue]</b></p></div>,32,,,,,,,,,,,,
,do_welcome,81,285342,0.0-50.0-0.0,null,,,,,,null,,,,,,,,,,
,do_trial,82,288688,0.0-51.0-0.0,838.5,,,,,,49,1,0,0,0,city,0,0.6,0.3,0.1,1,learn,
,html-keyboard-response,83,289692,0.0-51.0-1.0,null,,,<p></p>,null,,,,,,,,,,,,
,do_trial,84,292497,0.0-52.0-0.0,298.8000000002794,,,,,,49,0,1,0,0,city,1,0.7040666669280193,0.32135683287001293,0.08023465001340098,0,learn,
,html-keyboard-response,85,293500,0.0-52.0-1.0,null,,,<p></p>,null,,,,,,,,,,,,
,do_trial,86,296425,0.0-53.0-0.0,417.40000000037253,,,,,,50,1,0,0,0,city,2,0.6707858720977166,0.3860112465802025,0.18749731183455112,0,learn,
,html-keyboard-response,87,297428,0.0-53.0-1.0,null,,,<p></p>,null,,,,,,,,,,,,
,do_trial,88,300751,0.0-54.0-0.0,816.2000000001863,,,,,,51,1,1,0,0,city,3,0.8129219481220801,0.45051682239675817,0.269343406306751,0,learn,
,html-keyboard-response,89,301754,0.0-54.0-1.0,null,,,<p></p>,null,,,,,,,,,,,,
,do_trial,90,304893,0.0-55.0-0.0,631.8999999999069,,,,,,49,1,0,1,0,city,4,0.7043042719636342,0.3994273590057394,0.13291075271028985,1,learn,
,html-keyboard-response,91,305896,0.0-55.0-1.0,null,,,<p></p>,null,,,,,,,,,,,,
,do_trial,92,309168,0.0-56.0-0.0,765.6000000000931,,,,,,49,1,0,0,0,city,5,0.6201295894070186,0.29528738930539455,0.08335337728199385,1,learn,
,html-keyboard-response,93,310171,0.0-56.0-1.0,null,,,<p></p>,null,,,,,,,,,,,,
,do_trial,94,313096,0.0-57.0-0.0,418.1999999997206,,,,,,49,1,1,0,0,city,6,0.6177042176639297,0.3700108009970603,0.13609188348997606,1,learn,
,html-keyboard-response,95,314099,0.0-57.0-1.0,null,,,<p></p>,null,,,,,,,,,,,,
,do_trial,96,317030,0.0-58.0-0.0,424.5,,,,,,49,1,0,1,0,city,7,0.5403240431910846,0.30537124708530866,0.09586530305288365,1,learn,
,html-keyboard-response,97,318033,0.0-58.0-1.0,null,,,<p></p>,null,,,,,,,,,,,,
,do_trial,98,320840,0.0-59.0-0.0,300.6999999997206,,,,,,49,1,0,0,0,city,8,0.6394554060534058,0.22240967379635637,0.15272195255531748,1,learn,
,html-keyboard-response,99,321843,0.0-59.0-1.0,null,,,<p></p>,null,,,,,,,,,,,,
,do_trial,100,324668,0.0-60.0-0.0,320.39999999990687,,,,,,49,1,0,0,0,city,9,0.7100745231171444,0.40454611109496674,0.13077980871745795,1,learn,
,html-keyboard-response,101,325672,0.0-60.0-1.0,null,,,<p></p>,null,,,,,,,,,,,,
,do_trial,102,328508,0.0-61.0-0.0,328.70000000018626,,,,,,49,0,0,0,0,city,10,0.6555107009089455,0.3451465886952835,0.2090585003907455,0,learn,
,html-keyboard-response,103,329511,0.0-61.0-1.0,null,,,<p></p>,null,,,,,,,,,,,,
,do_trial,104,332526,0.0-62.0-0.0,509.89999999990687,,,,,,49,1,1,0,0,city,11,0.6199411746162656,0.3220517274420923,0.26663921646574656,1,learn,
,html-keyboard-response,105,333529,0.0-62.0-1.0,null,,,<p></p>,null,,,,,,,,,,,,
,do_trial,106,337233,0.0-63.0-0.0,1196.6999999997206,,,,,,49,1,0,0,0,city,12,0.7129562755548317,0.46680668220210697,0.13677557799939163,1,learn,
,html-keyboard-response,107,338236,0.0-63.0-1.0,null,,,<p></p>,null,,,,,,,,,,,,
,do_trial,108,341063,0.0-64.0-0.0,321.5,,,,,,49,0,1,0,0,city,13,0.6428774594443981,0.4984771655683272,0.18682620562153357,0,learn,
,html-keyboard-response,109,342066,0.0-64.0-1.0,null,,,<p></p>,null,,,,,,,,,,,,
,do_trial,110,344934,0.0-65.0-0.0,361.79999999981374,,,,,,50,1,1,0,0,city,14,0.6870717170683863,0.5229887966445922,0.19522770092258113,1,learn,
,html-keyboard-response,111,345937,0.0-65.0-1.0,null,,,<p></p>,null,,,,,,,,,,,,
,do_trial,112,349285,0.0-66.0-0.0,840.6999999997206,,,,,,50,0,1,0,0,city,15,0.5715867800764611,0.44594456861332193,0.1593474270881543,1,learn,
,html-keyboard-response,113,350288,0.0-66.0-1.0,null,,,<p></p>,null,,,,,,,,,,,,
,do_trial,114,353261,0.0-67.0-0.0,466.59999999962747,,,,,,50,1,0,0,0,city,16,0.5889743394859055,0.36584397550654046,0.2051727249158401,0,learn,
,html-keyboard-response,115,354263,0.0-67.0-1.0,null,,,<p></p>,null,,,,,,,,,,,,
,do_trial,116,358099,0.0-68.0-0.0,1329.2000000001863,,,,,,51,0,0,0,0,city,17,0.49201786618676296,0.3424688812682307,0.1361948995975135,0,learn,
,html-keyboard-response,117,359102,0.0-68.0-1.0,null,,,<p></p>,null,,,,,,,,,,,,
,do_trial,118,361904,0.0-69.0-0.0,293.89999999990687,,,,,,49,1,0,1,0,city,18,0.5768072499502326,0.19428223772977718,0.13909088547753376,1,learn,
,html-keyboard-response,119,362907,0.0-69.0-1.0,null,,,<p></p>,null,,,,,,,,,,,,
,do_trial,120,365672,0.0-70.0-0.0,258.39999999990687,,,,,,49,1,0,0,0,city,19,0.605513577724979,0.20520960959817713,0.12655250967459275,1,learn,
,html-keyboard-response,121,366675,0.0-70.0-1.0,null,,,<p></p>,null,,,,,,,,,,,,
,do_trial,122,369494,0.0-71.0-0.0,313.89999999990687,,,,,,49,0,0,0,0,city,20,0.5568344545587272,0.33580692907124166,0.21410183470892377,0,learn,
,html-keyboard-response,123,370497,0.0-71.0-1.0,null,,,<p></p>,null,,,,,,,,,,,,
,do_trial,124,373374,0.0-72.0-0.0,370.20000000018626,,,,,,49,0,0,0,0,city,21,0.4825639760779697,0.43202137870654206,0.1658210414340744,0,learn,
,html-keyboard-response,125,374377,0.0-72.0-1.0,null,,,<p></p>,null,,,,,,,,,,,,
,do_trial,126,377175,0.0-73.0-0.0,290.20000000018626,,,,,,50,0,1,0,0,city,22,0.608580305279083,0.3898125835534926,0.1558328850227138,1,learn,
,html-keyboard-response,127,378177,0.0-73.0-1.0,null,,,<p></p>,null,,,,,,,,,,,,
,do_trial,128,381095,0.0-74.0-0.0,412,,,,,,50,0,1,0,0,city,23,0.41522799824811907,0.47228094303899737,0.19174386312359432,1,learn,
,html-keyboard-response,129,382099,0.0-74.0-1.0,null,,,<p></p>,null,,,,,,,,,,,,
,do_trial,130,385021,0.0-75.0-0.0,416.10000000009313,,,,,,50,1,0,0,0,city,24,0.31836004694432296,0.5017718986593911,0.07735431085438461,0,learn,
,html-keyboard-response,131,386024,0.0-75.0-1.0,null,,,<p></p>,null,,,,,,,,,,,,
,do_trial,132,388792,0.0-76.0-0.0,261.79999999981374,,,,,,50,0,1,0,0,city,25,0.4133370985710112,0.4282988827925149,0.1034154676258065,1,learn,
,html-keyboard-response,133,389796,0.0-76.0-1.0,null,,,<p></p>,null,,,,,,,,,,,,
,do_trial,134,392689,0.0-77.0-0.0,386.3000000002794,,,,,,50,1,0,0,0,city,26,0.48272736287640344,0.31932911110673057,0.1050901219295326,0,learn,
,html-keyboard-response,135,393692,0.0-77.0-1.0,null,,,<p></p>,null,,,,,,,,,,,,
,do_trial,136,398900,0.0-78.0-0.0,2702.399999999907,,,,,,49,1,0,0,0,city,27,0.5039595478117922,0.35624016148669085,0.1385095066130416,1,learn,
,html-keyboard-response,137,399903,0.0-78.0-1.0,null,,,<p></p>,null,,,,,,,,,,,,
,do_trial,138,403110,0.0-79.0-0.0,700.1000000000931,,,,,,49,1,0,1,0,city,28,0.5822212621961328,0.32012963944099054,0.21236843686131643,1,learn,
,html-keyboard-response,139,404113,0.0-79.0-1.0,null,,,<p></p>,null,,,,,,,,,,,,
,do_trial,140,407384,0.0-80.0-0.0,764.7000000001863,,,,,,49,1,1,0,0,city,29,0.5899543623060526,0.46207971011644755,0.12133281865714071,1,learn,
,html-keyboard-response,141,408388,0.0-80.0-1.0,null,,,<p></p>,null,,,,,,,,,,,,
,attention_check,142,411913,0.0-81.0-0.0,3524.100000000093,,,<div style='position:relative; margin-top: 600px;'><p>Before we set sail — press the <b>Z</b> key to continue!</p></div>,90,,,,,,,,,,,,true
,do_bye,143,413420,0.0-81.0-1.0,null,,,,,,null,,,,,,,,,,
,break,144,421744,0.0-81.0-2.0,8323,,,<div class='center'><p>Time to take a quick break! You have 2 minutes to rest, but you can move on sooner if you'd like.</p><p> Press the <b>space bar</b> to continue.</p></div>,32,,,,,,,,,,,,
,do_travel,145,430748,0.0-82.0-0.0,null,,,,,,null,,,,,,,,,,
,do_welcome,146,434760,0.0-82.0-1.0,null,,,,,,null,,,,,,,,,,
,do_trial,147,438323,0.0-83.0-0.0,1055,,,,,,49,1,0,0,1,coast,30,1,0.4181008225478407,0.08894599049824159,1,learn,
,html-keyboard-response,148,439326,0.0-83.0-1.0,null,,,<p></p>,null,,,,,,,,,,,,
,do_trial,149,442085,0.0-84.0-0.0,251.10000000009313,,,,,,49,1,0,0,1,coast,31,1,0.31067968791880846,0.05474683731009909,1,learn,
,html-keyboard-response,150,443088,0.0-84.0-1.0,null,,,<p></p>,null,,,,,,,,,,,,
,do_trial,151,445958,0.0-85.0-0.0,363.09999999962747,,,,,,49,1,1,1,1,coast,32,1,0.32068346713988144,0.12038146629850005,1,learn,
,html-keyboard-response,152,446960,0.0-85.0-1.0,null,,,<p></p>,null,,,,,,,,,,,,
,do_trial,153,449756,0.0-86.0-0.0,289.70000000018626,,,,,,49,0,1,0,1,coast,33,0.7947710272295367,0.33742025090610944,0.13327278423976774,0,learn,
,html-keyboard-response,154,450759,0.0-86.0-1.0,null,,,<p></p>,null,,,,,,,,,,,,
,do_trial,155,453562,0.0-87.0-0.0,297.10000000009313,,,,,,50,0,1,0,1,coast,34,0.7930870070242594,0.3950640092941459,0.16797756839180664,1,learn,
,html-keyboard-response,156,454565,0.0-87.0-1.0,null,,,<p></p>,null,,,,,,,,,,,,
,do_trial,157,457427,0.0-88.0-0.0,354.10000000009313,,,,,,50,0,1,0,1,coast,35,0.6309853422877916,0.4220532492721892,0.05749892861851178,1,learn,
,html-keyboard-response,158,458429,0.0-88.0-1.0,null,,,<p></p>,null,,,,,,,,,,,,
,do_trial,159,461275,0.0-89.0-0.0,337.29999999981374,,,,,,50,1,0,0,1,coast,36,0.6001342919605398,0.4441919780525839,0.12098040910331179,0,learn,
,html-keyboard-response,160,462277,0.0-89.0-1.0,null,,,<p></p>,null,,,,,,,,,,,,
,do_trial,161,465166,0.0-90.0-0.0,383.10000000009313,,,,,,51,0,1,0,1,coast,37,0.4656934164876008,0.41537980853918294,0.19546784091345465,0,learn,
,html-keyboard-response,162,466170,0.0-90.0-1.0,null,,,<p></p>,null,,,,,,,,,,,,
,do_trial,163,469022,0.0-91.0-0.0,345.5,,,,,,49,1,0,0,1,coast,38,0.49956467383274644,0.2943170761027279,0.18397052624775506,1,learn,
,html-keyboard-response,164,470026,0.0-91.0-1.0,null,,,<p></p>,null,,,,,,,,,,,,
,do_trial,165,473043,0.0-92.0-0.0,512.0999999996275,,,,,,49,0,1,1,1,coast,39,0.5647163135611468,0.2433221050108735,0.21563347484200923,0,learn,
,html-keyboard-response,166,474046,0.0-92.0-1.0,null,,,<p></p>,null,,,,,,,,,,,,
,do_trial,167,476828,0.0-93.0-0.0,274.8000000002794,,,,,,50,1,0,1,1,coast,40,0.620449333452512,0.27107391219170296,0.20128579707437344,0,learn,
,html-keyboard-response,168,477832,0.0-93.0-1.0,null,,,<p></p>,null,,,,,,,,,,,,
,do_trial,169,480481,0.0-94.0-0.0,142.79999999981374,,,,,,51,1,0,0,1,coast,41,0.6152265386095896,0.30770357564934914,0.11343705985398385,0,learn,
,html-keyboard-response,170,481485,0.0-94.0-1.0,null,,,<p></p>,null,,,,,,,,,,,,
,do_trial,171,484063,0.0-95.0-0.0,73,,,,,,49,1,0,0,1,coast,42,0.6032057308644,0.5019347603680037,0.14316345258357208,1,learn,
,html-keyboard-response,172,485066,0.0-95.0-1.0,null,,,<p></p>,null,,,,,,,,,,,,
,do_trial,173,487940,0.0-96.0-0.0,367.20000000018626,,,,,,49,1,1,0,1,coast,43,0.4677763985752777,0.5392769119385868,0.1764541450722051,1,learn,
,html-keyboard-response,174,488942,0.0-96.0-1.0,null,,,<p></p>,null,,,,,,,,,,,,
,do_trial,175,491875,0.0-97.0-0.0,425.89999999990687,,,,,,49,1,0,0,1,coast,44,0.29494067505465155,0.4131770927402177,0.26047827975176774,1,learn,
,html-keyboard-response,176,492877,0.0-97.0-1.0,null,,,<p></p>,null,,,,,,,,,,,,
,do_trial,177,495656,0.0-98.0-0.0,273.60000000009313,,,,,,49,0,0,0,1,coast,45,0.47989753105317645,0.6006708676899298,0.34501081553895835,0,learn,
,html-keyboard-response,178,496660,0.0-98.0-1.0,null,,,<p></p>,null,,,,,,,,,,,,
,do_trial,179,499482,0.0-99.0-0.0,315.10000000009313,,,,,,49,1,1,0,1,coast,46,0.32215682638328497,0.5722308569644593,0.1544748998289162,1,learn,
,html-keyboard-response,180,500485,0.0-99.0-1.0,null,,,<p></p>,null,,,,,,,,,,,,
,do_trial,181,503463,0.0-100.0-0.0,470.60000000009313,,,,,,49,0,0,0,1,coast,47,0.44981462566221053,0.5911123720781732,0.05866262024454423,0,learn,
,html-keyboard-response,182,504466,0.0-100.0-1.0,null,,,<p></p>,null,,,,,,,,,,,,
,do_trial,183,507219,0.0-101.0-0.0,246,,,,,,49,1,0,1,1,coast,48,0.4819911829024129,0.5937080594120022,0.08140320271167557,1,learn,
,html-keyboard-response,184,508222,0.0-101.0-1.0,null,,,<p></p>,null,,,,,,,,,,,,
,do_trial,185,510975,0.0-102.0-0.0,246.3000000002794,,,,,,50,1,0,0,1,coast,49,0.47445898291316896,0.6867507084666243,0.12393337046227408,0,learn,
,html-keyboard-response,186,511978,0.0-102.0-1.0,null,,,<p></p>,null,,,,,,,,,,,,
,do_trial,187,514767,0.0-103.0-0.0,282.5,,,,,,49,0,1,0,1,coast,50,0.2992663815724567,0.6821096008567442,0.05817563915232718,0,learn,
,html-keyboard-response,188,515770,0.0-103.0-1.0,null,,,<p></p>,null,,,,,,,,,,,,
,do_trial,189,518636,0.0-104.0-0.0,359.20000000018626,,,,,,50,0,0,1,1,coast,51,0.43553828536808553,0.7336802397956029,0.1852506835352776,0,learn,
,html-keyboard-response,190,519639,0.0-104.0-1.0,null,,,<p></p>,null,,,,,,,,,,,,
,do_trial,191,522498,0.0-105.0-0.0,353.29999999981374,,,,,,51,0,1,0,1,coast,52,0.4091960684477566,0.6794633778338215,0.14774623128539732,0,learn,
,html-keyboard-response,192,523501,0.0-105.0-1.0,null,,,<p></p>,null,,,,,,,,,,,,
,do_trial,193,526321,0.0-106.0-0.0,312.89999999990687,,,,,,49,1,1,0,1,coast,53,0.32542794233847633,0.6698791879097321,0.15454321227528905,1,learn,
,html-keyboard-response,194,527324,0.0-106.0-1.0,null,,,<p></p>,null,,,,,,,,,,,,
,do_trial,195,530129,0.0-107.0-0.0,299.60000000009313,,,,,,49,0,0,0,1,coast,54,0.38554146239325454,0.7167361306617166,0.22982572071001223,0,learn,
,html-keyboard-response,196,531132,0.0-107.0-1.0,null,,,<p></p>,null,,,,,,,,,,,,
,do_trial,197,534154,0.0-108.0-0.0,515.2999999998137,,,,,,49,0,1,0,1,coast,55,0.3031464703996595,0.7627092742185625,0.08066349273402727,0,learn,
,html-keyboard-response,198,535157,0.0-108.0-1.0,null,,,<p></p>,null,,,,,,,,,,,,
,do_trial,199,538123,0.0-109.0-0.0,459.79999999981374,,,,,,50,1,1,0,1,coast,56,0.30565355052734283,0.8179109384440143,0.05328356504585168,1,learn,
,html-keyboard-response,200,539125,0.0-109.0-1.0,null,,,<p></p>,null,,,,,,,,,,,,
,do_trial,201,542692,0.0-110.0-0.0,1061.5,,,,,,50,0,0,0,1,coast,57,0.44672714002128716,0.6619577239399026,0.15860481387089065,0,learn,
,html-keyboard-response,202,543696,0.0-110.0-1.0,null,,,<p></p>,null,,,,,,,,,,,,
,do_trial,203,546724,0.0-111.0-0.0,522.2999999998137,,,,,,50,0,1,0,1,coast,58,0.40733084939522657,0.6762136995432384,0.13155596968192637,1,learn,
,html-keyboard-response,204,547727,0.0-111.0-1.0,null,,,<p></p>,null,,,,,,,,,,,,
,do_trial,205,550526,0.0-112.0-0.0,292.60000000009313,,,,,,50,1,1,0,1,coast,59,0.4012228851628312,0.7932552367528158,0.2959506645112694,1,learn,
,html-keyboard-response,206,551529,0.0-112.0-1.0,null,,,<p></p>,null,,,,,,,,,,,,
,do_trial,207,554851,0.0-113.0-0.0,815.8999999999069,,,,,,51,0,0,0,1,coast,60,0.2847745757512855,0.6581060379022826,0.07157312140789703,0,learn,
,html-keyboard-response,208,555855,0.0-113.0-1.0,null,,,<p></p>,null,,,,,,,,,,,,
,do_trial,209,558709,0.0-114.0-0.0,347.39999999990687,,,,,,50,0,0,0,1,coast,61,0.35225108385927506,0.46124733658869715,0.18479886435164905,0,learn,
,html-keyboard-response,210,559712,0.0-114.0-1.0,null,,,<p></p>,null,,,,,,,,,,,,
,do_trial,211,562510,0.0-115.0-0.0,292.6999999997206,,,,,,50,0,0,0,1,coast,62,0.3742288571705605,0.5058969354522507,0.1719928511677321,0,learn,
,html-keyboard-response,212,563514,0.0-115.0-1.0,null,,,<p></p>,null,,,,,,,,,,,,
,do_trial,213,566937,0.0-116.0-0.0,917.5,,,,,,50,0,1,0,1,coast,63,0.3294355859305939,0.5852855840913443,0.24100387214417296,1,learn,
,html-keyboard-response,214,567941,0.0-116.0-1.0,null,,,<p></p>,null,,,,,,,,,,,,
,do_trial,215,570713,0.0-117.0-0.0,266.20000000018626,,,,,,50,0,0,0,1,coast,64,0.14161570533217724,0.6074297571322292,0.0850183892178775,0,learn,
,html-keyboard-response,216,571716,0.0-117.0-1.0,null,,,<p></p>,null,,,,,,,,,,,,
,do_trial,217,574354,0.0-118.0-0.0,132.3000000002794,,,,,,49,1,1,0,1,coast,65,0.2799819573322982,0.5700849317618262,0.15546528555442313,1,learn,
,html-keyboard-response,218,575357,0.0-118.0-1.0,null,,,<p></p>,null,,,,,,,,,,,,
,do_trial,219,578305,0.0-119.0-0.0,441.1999999997206,,,,,,49,0,1,0,1,coast,66,0.23879015348888188,0.7019977133245473,0.06942249633707456,0,learn,
,html-keyboard-response,220,579308,0.0-119.0-1.0,null,,,<p></p>,null,,,,,,,,,,,,
,do_trial,221,582069,0.0-120.0-0.0,252.70000000018626,,,,,,49,1,1,1,1,coast,67,0.25099669707120364,0.590885172076611,0.11795960493542562,1,learn,
,html-keyboard-response,222,583072,0.0-120.0-1.0,null,,,<p></p>,null,,,,,,,,,,,,
,do_trial,223,585999,0.0-121.0-0.0,420.5,,,,,,49,0,1,0,1,coast,68,0.38787246901147177,0.7220704322876149,0.21091701461552093,0,learn,
,html-keyboard-response,224,587002,0.0-121.0-1.0,null,,,<p></p>,null,,,,,,,,,,,,
,do_trial,225,590030,0.0-122.0-0.0,520.7000000001863,,,,,,49,0,1,0,1,coast,69,0.3474495831107016,0.6183883713937991,0.27263700953506415,0,learn,
,html-keyboard-response,226,591033,0.0-122.0-1.0,null,,,<p></p>,null,,,,,,,,,,,,
,attention_check,227,592894,0.0-123.0-0.0,1859.3000000002794,,,<div style='position:relative; margin-top: 600px;'><p>Before we set sail — press the <b>Z</b> key to continue!</p></div>,90,,,,,,,,,,,,true
,do_bye,228,594399,0.0-123.0-1.0,null,,,,,,null,,,,,,,,,,
,break,229,596443,0.0-123.0-2.0,2042.5,,,<div class='center'><p>Time to take a quick break! You have 2 minutes to rest, but you can move on sooner if you'd like.</p><p> Press the <b>space bar</b> to continue.</p></div>,32,,,,,,,,,,,,
,do_travel,230,605447,0.0-124.0-0.0,null,,,,,,null,,,,,,,,,,
,do_welcome,231,609460,0.0-124.0-1.0,null,,,,,,null,,,,,,,,,,
,do_trial,232,613941,0.0-125.0-0.0,1974.5,,,,,,49,0,1,0,2,forest,70,0.3993132381856325,1,0.05710427915341846,0,learn,
,html-keyboard-response,233,614945,0.0-125.0-1.0,null,,,<p></p>,null,,,,,,,,,,,,
,do_trial,234,617888,0.0-126.0-0.0,435.70000000018626,,,,,,50,0,1,0,2,forest,71,0.34277235491764024,1,0.18968223051584054,1,learn,
,html-keyboard-response,235,618890,0.0-126.0-1.0,null,,,<p></p>,null,,,,,,,,,,,,
,do_trial,236,621947,0.0-127.0-0.0,549.8999999999069,,,,,,50,0,0,0,2,forest,72,0.4322047257652235,0.75669059773684,0.1551203555668107,0,learn,
,html-keyboard-response,237,622950,0.0-127.0-1.0,null,,,<p></p>,null,,,,,,,,,,,,
,do_trial,238,625784,0.0-128.0-0.0,328.20000000018626,,,,,,51,0,1,0,2,forest,73,0.20239654375363203,0.5626247898019144,0.1877600137697538,0,learn,
,html-keyboard-response,239,626787,0.0-128.0-1.0,null,,,<p></p>,null,,,,,,,,,,,,
,do_trial,240,629719,0.0-129.0-0.0,427.3000000002794,,,,,,51,1,1,1,2,forest,74,0.25910886871279254,0.47675637114434366,0.23206290595953882,1,learn,
,html-keyboard-response,241,630722,0.0-129.0-1.0,null,,,<p></p>,null,,,,,,,,,,,,
,do_trial,242,634769,0.0-130.0-0.0,1541.2999999998137,,,,,,49,0,0,0,2,forest,75,0.38821033791171633,0.46237446547982125,0.16856462588068907,0,learn,
,html-keyboard-response,243,635772,0.0-130.0-1.0,null,,,<p></p>,null,,,,,,,,,,,,
,do_trial,244,638693,0.0-131.0-0.0,412.79999999981374,,,,,,51,1,0,0,2,forest,76,0.31911211918286403,0.623215551803497,0.10118088865333835,0,learn,
,html-keyboard-response,245,639696,0.0-131.0-1.0,null,,,<p></p>,null,,,,,,,,,,,,
,do_trial,246,642475,0.0-132.0-0.0,272.60000000009313,,,,,,50,1,1,1,2,forest,77,0.2071227981995773,0.5565126104276279,0.18550403675587596,1,learn,
,html-keyboard-response,247,643478,0.0-132.0-1.0,null,,,<p></p>,null,,,,,,,,,,,,
,do_trial,248,646056,0.0-133.0-0.0,72.5,,,,,,50,0,0,0,2,forest,78,0.31036662291226935,0.6384580355821927,0.0741228843273636,0,learn,
,html-keyboard-response,249,647059,0.0-133.0-1.0,null,,,<p></p>,null,,,,,,,,,,,,
,do_trial,250,649819,0.0-134.0-0.0,253.20000000018626,,,,,,50,0,0,0,2,forest,79,0.15444435342117033,0.6625171384225291,0.08039420115308156,0,learn,
,html-keyboard-response,251,650822,0.0-134.0-1.0,null,,,<p></p>,null,,,,,,,,,,,,
,do_trial,252,653575,0.0-135.0-0.0,246.6999999997206,,,,,,51,0,0,0,2,forest,80,0.16181640713376078,0.5428254096916669,0.14490065095160598,0,learn,
,html-keyboard-response,253,654578,0.0-135.0-1.0,null,,,<p></p>,null,,,,,,,,,,,,
,do_trial,254,657482,0.0-136.0-0.0,397.10000000009313,,,,,,51,0,0,0,2,forest,81,0.20395560145547242,0.5638312477444114,0.0751194522662623,0,learn,
,html-keyboard-response,255,658485,0.0-136.0-1.0,null,,,<p></p>,null,,,,,,,,,,,,
,do_trial,256,661389,0.0-137.0-0.0,396.20000000018626,,,,,,49,0,1,0,2,forest,82,0.4526475167230795,0.4410717136453689,0.18012892718072424,0,learn,
,html-keyboard-response,257,662392,0.0-137.0-1.0,null,,,<p></p>,null,,,,,,,,,,,,
,do_trial,258,665166,0.0-138.0-0.0,267.70000000018626,,,,,,50,1,0,0,2,forest,83,0.5471435358807559,0.18432460767887754,0.17972022708566956,0,learn,
,html-keyboard-response,259,666169,0.0-138.0-1.0,null,,,<p></p>,null,,,,,,,,,,,,
,do_trial,260,668921,0.0-139.0-0.0,245.60000000009313,,,,,,50,0,0,0,2,forest,84,0.4388060580412028,0.11854694399531482,0.29807798507563976,0,learn,
,html-keyboard-response,261,669924,0.0-139.0-1.0,null,,,<p></p>,null,,,,,,,,,,,,
,do_trial,262,672723,0.0-140.0-0.0,292.70000000018626,,,,,,51,0,0,1,2,forest,85,0.3975116168244604,0.06766075977026023,0.27705549940123964,1,learn,
,html-keyboard-response,263,673726,0.0-140.0-1.0,null,,,<p></p>,null,,,,,,,,,,,,
,do_trial,264,676281,0.0-141.0-0.0,48.299999999813735,,,,,,51,0,0,0,2,forest,86,0.45994537048112416,0.12668607089246342,0.27882849904580786,0,learn,
,html-keyboard-response,265,677284,0.0-141.0-1.0,null,,,<p></p>,null,,,,,,,,,,,,
,do_trial,266,681196,0.0-142.0-0.0,1406.2999999998137,,,,,,51,1,0,0,2,forest,87,0.4331165391236916,0.15086928885009535,0.4068478838583686,0,learn,
,html-keyboard-response,267,682199,0.0-142.0-1.0,null,,,<p></p>,null,,,,,,,,,,,,
,do_trial,268,684990,0.0-143.0-0.0,284.29999999981374,,,,,,50,0,0,0,2,forest,88,0.5365088846326195,0.2059436519860591,0.2092786685041096,0,learn,
,html-keyboard-response,269,685994,0.0-143.0-1.0,null,,,<p></p>,null,,,,,,,,,,,,
,do_trial,270,688880,0.0-144.0-0.0,380.6999999997206,,,,,,49,0,1,0,2,forest,89,0.42471967631558216,0.13653596693168815,0.2498923628877402,0,learn,
,html-keyboard-response,271,689883,0.0-144.0-1.0,null,,,<p></p>,null,,,,,,,,,,,,
,do_trial,272,692910,0.0-145.0-0.0,519.4000000003725,,,,,,50,1,0,1,2,forest,90,0.5839267655566929,0.23247016794659675,0.17696093393829204,0,learn,
,html-keyboard-response,273,693914,0.0-145.0-1.0,null,,,<p></p>,null,,,,,,,,,,,,
,do_trial,274,696779,0.0-146.0-0.0,359.5,,,,,,51,1,0,1,2,forest,91,0.5788322294255762,0.18092420919750557,0.2997046787239833,1,learn,
,html-keyboard-response,275,697782,0.0-146.0-1.0,null,,,<p></p>,null,,,,,,,,,,,,
,do_trial,276,700694,0.0-147.0-0.0,406,,,,,,51,1,0,0,2,forest,92,0.623275858834659,0.13892625072057724,0.32573010383385365,0,learn,
,html-keyboard-response,277,701697,0.0-147.0-1.0,null,,,<p></p>,null,,,,,,,,,,,,
,do_trial,278,704534,0.0-148.0-0.0,329.39999999990687,,,,,,51,1,0,0,2,forest,93,0.536337785079898,0.08567089784339929,0.34549538875251673,0,learn,
,html-keyboard-response,279,705536,0.0-148.0-1.0,null,,,<p></p>,null,,,,,,,,,,,,
,do_trial,280,708868,0.0-149.0-0.0,824.6000000000931,,,,,,51,1,0,0,2,forest,94,0.5867191192834679,0.06454179110424119,0.30343793544127706,0,learn,
,html-keyboard-response,281,709871,0.0-149.0-1.0,null,,,<p></p>,null,,,,,,,,,,,,
,do_trial,282,712410,0.0-150.0-0.0,33.6999999997206,,,,,,50,0,0,0,2,forest,95,0.5797678817673988,0.05763499803204018,0.3420361306720466,0,learn,
,html-keyboard-response,283,713414,0.0-150.0-1.0,null,,,<p></p>,null,,,,,,,,,,,,
,do_trial,284,716152,0.0-151.0-0.0,233.29999999981374,,,,,,51,1,0,0,2,forest,96,0.6269522357251962,0.07403286818800918,0.4384200671170908,0,learn,
,html-keyboard-response,285,717156,0.0-151.0-1.0,null,,,<p></p>,null,,,,,,,,,,,,
,do_trial,286,720113,0.0-152.0-0.0,451.5,,,,,,51,1,0,0,2,forest,97,0.6143478895307437,0.1296922946607907,0.30302530279165785,0,learn,
,html-keyboard-response,287,721116,0.0-152.0-1.0,null,,,<p></p>,null,,,,,,,,,,,,
,do_trial,288,724188,0.0-153.0-0.0,564.8000000002794,,,,,,51,1,0,1,2,forest,98,0.6162812693082834,0.11001770711471304,0.2405462851940469,1,learn,
,html-keyboard-response,289,725191,0.0-153.0-1.0,null,,,<p></p>,null,,,,,,,,,,,,
,do_trial,290,729199,0.0-154.0-0.0,1500.6999999997206,,,,,,51,0,0,1,2,forest,99,0.61466399270273,0.15282031042747973,0.4970026812524991,1,learn,
,html-keyboard-response,291,730202,0.0-154.0-1.0,null,,,<p></p>,null,,,,,,,,,,,,
,do_trial,292,733044,0.0-155.0-0.0,335.10000000009313,,,,,,51,1,0,1,2,forest,100,0.5517597587216545,0.1341255118669626,0.47999643457096414,1,learn,
,html-keyboard-response,293,734047,0.0-155.0-1.0,null,,,<p></p>,null,,,,,,,,,,,,
,do_trial,294,736808,0.0-156.0-0.0,254.6999999997206,,,,,,51,0,0,0,2,forest,101,0.6741018925070955,0.07480186210749447,0.44820603511486,0,learn,
,html-keyboard-response,295,737811,0.0-156.0-1.0,null,,,<p></p>,null,,,,,,,,,,,,
,do_trial,296,740437,0.0-157.0-0.0,120.5,,,,,,51,1,0,1,2,forest,102,0.6637906752343515,0.19609409022602553,0.3187442869708029,1,learn,
,html-keyboard-response,297,741440,0.0-157.0-1.0,null,,,<p></p>,null,,,,,,,,,,,,
,do_trial,298,744188,0.0-158.0-0.0,242.5,,,,,,51,1,0,0,2,forest,103,0.5556922425594164,0.10517617075469084,0.3689954339924686,0,learn,
,html-keyboard-response,299,745191,0.0-158.0-1.0,null,,,<p></p>,null,,,,,,,,,,,,
,do_trial,300,747964,0.0-159.0-0.0,265.6999999997206,,,,,,51,1,1,0,2,forest,104,0.5367519785071919,0.15951349600826234,0.36767554439487393,0,learn,
,html-keyboard-response,301,748967,0.0-159.0-1.0,null,,,<p></p>,null,,,,,,,,,,,,
,do_trial,302,751715,0.0-160.0-0.0,240.5,,,,,,51,0,0,0,2,forest,105,0.6312671050230587,0.12761540593145587,0.3376635079455821,0,learn,
,html-keyboard-response,303,752718,0.0-160.0-1.0,null,,,<p></p>,null,,,,,,,,,,,,
,do_trial,304,755751,0.0-161.0-0.0,527.1000000000931,,,,,,51,1,0,0,2,forest,106,0.7648650867541248,0.23018983381719374,0.35419602994957516,0,learn,
,html-keyboard-response,305,756754,0.0-161.0-1.0,null,,,<p></p>,null,,,,,,,,,,,,
,do_trial,306,759802,0.0-162.0-0.0,540.5999999996275,,,,,,51,1,0,1,2,forest,107,0.6861782700639603,0.07437565585267172,0.4310181006092643,1,learn,
,html-keyboard-response,307,760804,0.0-162.0-1.0,null,,,<p></p>,null,,,,,,,,,,,,
,do_trial,308,764906,0.0-163.0-0.0,1596.6000000000931,,,,,,51,0,0,1,2,forest,108,0.6823698052558227,0.15995003260022914,0.49521687283901733,1,learn,
,html-keyboard-response,309,765909,0.0-163.0-1.0,null,,,<p></p>,null,,,,,,,,,,,,
,do_trial,310,768891,0.0-164.0-0.0,476.59999999962747,,,,,,51,1,0,1,2,forest,109,0.6243777950938261,0.20100194198160726,0.293937794452173,1,learn,
,html-keyboard-response,311,769894,0.0-164.0-1.0,null,,,<p></p>,null,,,,,,,,,,,,
,attention_check,312,770920,0.0-165.0-0.0,1024.3000000002794,,,<div style='position:relative; margin-top: 600px;'><p>Before we set sail — press the <b>Z</b> key to continue!</p></div>,90,,,,,,,,,,,,true
,do_bye,313,772426,0.0-165.0-1.0,null,,,,,,null,,,,,,,,,,
,break,314,774057,0.0-165.0-2.0,1629.8000000002794,,,<div class='center'><p>Time to take a quick break! You have 2 minutes to rest, but you can move on sooner if you'd like.</p><p> Press the <b>space bar</b> to continue.</p></div>,32,,,,,,,,,,,,
,do_travel,315,783062,0.0-166.0-0.0,null,,,,,,null,,,,,,,,,,
,do_welcome,316,787076,0.0-166.0-1.0,null,,,,,,null,,,,,,,,,,
,do_trial,317,791207,0.0-167.0-0.0,1624.8999999999069,,,,,,49,1,0,1,3,mountain,110,1,0.15626971004256462,0.4420517137082101,1,learn,
,html-keyboard-response,318,792211,0.0-167.0-1.0,null,,,<p></p>,null,,,,,,,,,,,,
,do_trial,319,794964,0.0-168.0-0.0,247.20000000018626,,,,,,49,1,0,0,3,mountain,111,1,0.13615939130118024,0.48359488310445403,1,learn,
,html-keyboard-response,320,795968,0.0-168.0-1.0,null,,,<p></p>,null,,,,,,,,,,,,
,do_trial,321,798770,0.0-169.0-0.0,295.09999999962747,,,,,,49,1,1,0,3,mountain,112,0.8849279071099396,0.13685218879514996,0.20714971881205507,1,learn,
,html-keyboard-response,322,799773,0.0-169.0-1.0,null,,,<p></p>,null,,,,,,,,,,,,
,do_trial,323,802613,0.0-170.0-0.0,333.6999999997206,,,,,,49,1,0,0,3,mountain,113,0.7883830925840632,0.07785286697027237,0.2587081852847901,1,learn,
,html-keyboard-response,324,803616,0.0-170.0-1.0,null,,,<p></p>,null,,,,,,,,,,,,
,do_trial,325,806516,0.0-171.0-0.0,392.1999999997206,,,,,,49,1,0,0,3,mountain,114,0.7844055626475485,0.052555338153039866,0.42319160827736496,1,learn,
,html-keyboard-response,326,807519,0.0-171.0-1.0,null,,,<p></p>,null,,,,,,,,,,,,
,do_trial,327,810279,0.0-172.0-0.0,252,,,,,,49,0,0,0,3,mountain,115,0.722446271321172,0.14129742112747604,0.32353344247559096,0,learn,
,html-keyboard-response,328,811282,0.0-172.0-1.0,null,,,<p></p>,null,,,,,,,,,,,,
,do_trial,329,814033,0.0-173.0-0.0,244,,,,,,50,1,0,1,3,mountain,116,0.5835070026254234,0.16367000432061882,0.38306732413741884,0,learn,
,html-keyboard-response,330,815037,0.0-173.0-1.0,null,,,<p></p>,null,,,,,,,,,,,,
,do_trial,331,817553,0.0-174.0-0.0,8.300000000279397,,,,,,51,1,0,1,3,mountain,117,0.4947073984892598,0.12121706922674955,0.4414659784967322,1,learn,
,html-keyboard-response,332,818556,0.0-174.0-1.0,null,,,<p></p>,null,,,,,,,,,,,,
,do_trial,333,821354,0.0-175.0-0.0,291,,,,,,51,0,0,0,3,mountain,118,0.5695560861696005,0.1739946435089569,0.3412682548831993,0,learn,
,html-keyboard-response,334,822357,0.0-175.0-1.0,null,,,<p></p>,null,,,,,,,,,,,,
,do_trial,335,828363,0.0-176.0-0.0,null,,,,,,null,0,0,0,3,mountain,119,0.7656838166154419,0.10779214992369923,0.18809997699105702,,learn,
,html-keyboard-response,336,829367,0.0-176.0-1.0,null,,,<p></p>,null,,,,,,,,,,,,
,do_trial,337,832212,0.0-177.0-0.0,337.39999999990687,,,,,,49,1,0,0,3,mountain,120,0.7356703606882471,0.10455856339156551,0.1291628243895009,1,learn,
,html-keyboard-response,338,833215,0.0-177.0-1.0,null,,,<p></p>,null,,,,,,,,,,,,
,do_trial,339,835989,0.0-178.0-0.0,268.20000000018626,,,,,,49,1,0,0,3,mountain,121,0.6431942228806843,0.19000822491208852,0.14362558016453736,1,learn,
,html-keyboard-response,340,836992,0.0-178.0-1.0,null,,,<p></p>,null,,,,,,,,,,,,
,do_trial,341,839861,0.0-179.0-0.0,362,,,,,,49,0,0,0,3,mountain,122,0.49253344399414517,0.26862611804630404,0.19038598728011635,0,learn,
,html-keyboard-response,342,840864,0.0-179.0-1.0,null,,,<p></p>,null,,,,,,,,,,,,
,do_trial,343,843382,0.0-180.0-0.0,12.200000000186265,,,,,,49,0,1,1,3,mountain,123,0.10577299117458427,0.44464419840049363,0.31995712702379914,0,learn,
,html-keyboard-response,344,844386,0.0-180.0-1.0,null,,,<p></p>,null,,,,,,,,,,,,
,do_trial,345,847120,0.0-181.0-0.0,227.40000000037253,,,,,,50,0,1,0,3,mountain,124,0.1434262679514457,0.5344899441605974,0.3027613466338587,1,learn,
,html-keyboard-response,346,848124,0.0-181.0-1.0,null,,,<p></p>,null,,,,,,,,,,,,
,do_trial,347,851003,0.0-182.0-0.0,373.39999999990687,,,,,,50,1,0,0,3,mountain,125,0.1893707023262448,0.501459734477193,0.1999662707256461,0,learn,
,html-keyboard-response,348,852006,0.0-182.0-1.0,null,,,<p></p>,null,,,,,,,,,,,,
,do_trial,349,854622,0.0-183.0-0.0,109.40000000037253,,,,,,51,0,1,0,3,mountain,126,0.24138252119631226,0.5210468741928816,0.26871509701511626,0,learn,
,html-keyboard-response,350,855625,0.0-183.0-1.0,null,,,<p></p>,null,,,,,,,,,,,,
,do_trial,351,858233,0.0-184.0-0.0,102.10000000009313,,,,,,49,1,0,0,3,mountain,127,0.28312242920812714,0.5951820028165458,0.2735358845440469,1,learn,
,html-keyboard-response,352,859236,0.0-184.0-1.0,null,,,<p></p>,null,,,,,,,,,,,,
,do_trial,353,861942,0.0-185.0-0.0,199.6999999997206,,,,,,49,0,0,0,3,mountain,128,0.13536219210097908,0.5330003576167095,0.19818438266614613,0,learn,
,html-keyboard-response,354,862946,0.0-185.0-1.0,null,,,<p></p>,null,,,,,,,,,,,,
,do_trial,355,865703,0.0-186.0-0.0,250.79999999981374,,,,,,49,0,0,0,3,mountain,129,0.09762378360519282,0.6795986509938107,0.19552936926947617,0,learn,
,html-keyboard-response,356,866705,0.0-186.0-1.0,null,,,<p></p>,null,,,,,,,,,,,,
,do_trial,357,869369,0.0-187.0-0.0,156,,,,,,50,0,1,0,3,mountain,130,0.05705004579976744,0.6336939506582185,0.14018331975512274,1,learn,
,html-keyboard-response,358,870372,0.0-187.0-1.0,null,,,<p></p>,null,,,,,,,,,,,,
,do_trial,359,873216,0.0-188.0-0.0,337.79999999981374,,,,,,50,1,0,0,3,mountain,131,0.108600584256227,0.7547145819006927,0.24885134152794158,0,learn,
,html-keyboard-response,360,874219,0.0-188.0-1.0,null,,,<p></p>,null,,,,,,,,,,,,
,do_trial,361,877266,0.0-189.0-0.0,541,,,,,,49,0,0,0,3,mountain,132,0.1547385597751469,0.672401683459621,0.14376467796058007,0,learn,
,html-keyboard-response,362,878270,0.0-189.0-1.0,null,,,<p></p>,null,,,,,,,,,,,,
,do_trial,363,881612,0.0-190.0-0.0,836.5,,,,,,50,0,1,0,3,mountain,133,0.17158028285608407,0.7817998416986106,0.27266333664753306,1,learn,
,html-keyboard-response,364,882616,0.0-190.0-1.0,null,,,<p></p>,null,,,,,,,,,,,,
,do_trial,365,885440,0.0-191.0-0.0,317.79999999981374,,,,,,50,0,1,1,3,mountain,134,0.2758443897039247,0.7894334471460064,0.31073222651152377,1,learn,
,html-keyboard-response,366,886443,0.0-191.0-1.0,null,,,<p></p>,null,,,,,,,,,,,,
,do_trial,367,889380,0.0-192.0-0.0,428.60000000009313,,,,,,50,0,1,1,3,mountain,135,0.29263299511186,0.7059816585283997,0.3094703380263275,1,learn,
,html-keyboard-response,368,890383,0.0-192.0-1.0,null,,,<p></p>,null,,,,,,,,,,,,
,do_trial,369,893480,0.0-193.0-0.0,589.6000000000931,,,,,,50,0,1,0,3,mountain,136,0.24033975304866986,0.6589854791982357,0.36441030779279,1,learn,
,html-keyboard-response,370,894483,0.0-193.0-1.0,null,,,<p></p>,null,,,,,,,,,,,,
,do_trial,371,897353,0.0-194.0-0.0,362.39999999990687,,,,,,50,1,0,0,3,mountain,137,0.2500611745824186,0.7049786817739979,0.36164378954602905,0,learn,
,html-keyboard-response,372,898355,0.0-194.0-1.0,null,,,<p></p>,null,,,,,,,,,,,,
,do_trial,373,902103,0.0-195.0-0.0,1240.2999999998137,,,,,,50,0,1,0,3,mountain,138,0.1467940879164224,0.6717737645379414,0.31366935641048704,1,learn,
,html-keyboard-response,374,903106,0.0-195.0-1.0,null,,,<p></p>,null,,,,,,,,,,,,
,do_trial,375,906059,0.0-196.0-0.0,446.5,,,,,,50,0,0,1,3,mountain,139,0.18498398141995517,0.5914441940390937,0.4987555441171807,0,learn,
,html-keyboard-response,376,907063,0.0-196.0-1.0,null,,,<p></p>,null,,,,,,,,,,,,
,do_trial,377,910020,0.0-197.0-0.0,451.10000000009313,,,,,,50,0,0,1,3,mountain,140,0.050831166833892175,0.6895524730728205,0.5615960124995955,0,learn,
,html-keyboard-response,378,911023,0.0-197.0-1.0,null,,,<p></p>,null,,,,,,,,,,,,
,do_trial,379,914081,0.0-198.0-0.0,550.2999999998137,,,,,,50,1,0,1,3,mountain,141,0.22125426786014607,0.6354680306118118,0.44240608702999135,0,learn,
,html-keyboard-response,380,915084,0.0-198.0-1.0,null,,,<p></p>,null,,,,,,,,,,,,
,do_trial,381,917945,0.0-199.0-0.0,353,,,,,,49,0,0,0,3,mountain,142,0.1227579008393105,0.5989910102438636,0.24864024403495144,0,learn,
,html-keyboard-response,382,918948,0.0-199.0-1.0,null,,,<p></p>,null,,,,,,,,,,,,
,do_trial,383,921592,0.0-200.0-0.0,137.20000000018626,,,,,,49,0,0,0,3,mountain,143,0.27282663843405003,0.674662390497876,0.2984901666314692,0,learn,
,html-keyboard-response,384,922595,0.0-200.0-1.0,null,,,<p></p>,null,,,,,,,,,,,,
,do_trial,385,925385,0.0-201.0-0.0,283.3000000002794,,,,,,51,1,1,0,3,mountain,144,0.2478194781617026,0.6113998088363871,0.28245511751050845,0,learn,
,html-keyboard-response,386,926388,0.0-201.0-1.0,null,,,<p></p>,null,,,,,,,,,,,,
,do_trial,387,928935,0.0-202.0-0.0,40.200000000186265,,,,,,50,0,0,0,3,mountain,145,0.15457903340815496,0.5453818330213219,0.4420061897149597,0,learn,
,html-keyboard-response,388,929938,0.0-202.0-1.0,null,,,<p></p>,null,,,,,,,,,,,,
,do_trial,389,932510,0.0-203.0-0.0,65.29999999981374,,,,,,50,0,0,0,3,mountain,146,0.13418493617738064,0.5738823378494157,0.3449502786687414,0,learn,
,html-keyboard-response,390,933513,0.0-203.0-1.0,null,,,<p></p>,null,,,,,,,,,,,,
,do_trial,391,936320,0.0-204.0-0.0,299.89999999990687,,,,,,50,1,1,0,3,mountain,147,0.07599725044109021,0.5380190355410922,0.3554552412809057,1,learn,
,html-keyboard-response,392,937323,0.0-204.0-1.0,null,,,<p></p>,null,,,,,,,,,,,,
,do_trial,393,940132,0.0-205.0-0.0,301.3000000002794,,,,,,50,0,0,0,3,mountain,148,0.1692803349363782,0.4975177200611874,0.2488249725555384,0,learn,
,html-keyboard-response,394,941134,0.0-205.0-1.0,null,,,<p></p>,null,,,,,,,,,,,,
,do_trial,395,945477,0.0-206.0-0.0,1836.8000000002794,,,,,,50,0,0,1,3,mountain,149,0.08939250386881108,0.45213212076337167,0.25734236737134863,0,learn,
,html-keyboard-response,396,946480,0.0-206.0-1.0,null,,,<p></p>,null,,,,,,,,,,,,
,attention_check,397,947636,0.0-207.0-0.0,1155.2999999998137,,,<div style='position:relative; margin-top: 600px;'><p>Before we set sail — press the <b>Z</b> key to continue!</p></div>,90,,,,,,,,,,,,true
,do_bye,398,949143,0.0-207.0-1.0,null,,,,,,null,,,,,,,,,,
,break,399,1002586,0.0-207.0-2.0,53441.39999999991,,,<div class='center'><p>Time to take a quick break! You have 2 minutes to rest, but you can move on sooner if you'd like.</p><p> Press the <b>space bar</b> to continue.</p></div>,32,,,,,,,,,,,,
,do_travel,400,1011591,0.0-208.0-0.0,null,,,,,,null,,,,,,,,,,
,do_welcome,401,1015606,0.0-208.0-1.0,null,,,,,,null,,,,,,,,,,
,do_trial,402,1018829,0.0-209.0-0.0,715.5,,,,,,49,0,1,0,4,highway,150,0.2929513475638553,1,0.25895617925086645,0,learn,
,html-keyboard-response,403,1019833,0.0-209.0-1.0,null,,,<p></p>,null,,,,,,,,,,,,
,do_trial,404,1022752,0.0-210.0-0.0,412.39999999990687,,,,,,50,0,1,1,4,highway,151,0.2651091314228544,1,0.3559878237134158,1,learn,
,html-keyboard-response,405,1023756,0.0-210.0-1.0,null,,,<p></p>,null,,,,,,,,,,,,
,do_trial,406,1026520,0.0-211.0-0.0,258.29999999981374,,,,,,50,0,1,1,4,highway,152,0.1913074296972798,0.8204677855849487,0.3292628443440136,1,learn,
,html-keyboard-response,407,1027523,0.0-211.0-1.0,null,,,<p></p>,null,,,,,,,,,,,,
,do_trial,408,1030332,0.0-212.0-0.0,301.5,,,,,,50,0,1,0,4,highway,153,0.0663343582629271,0.6983403150781847,0.23636824407709012,1,learn,
,html-keyboard-response,409,1031336,0.0-212.0-1.0,null,,,<p></p>,null,,,,,,,,,,,,
,do_trial,410,1034120,0.0-213.0-0.0,277.60000000009313,,,,,,50,0,0,0,4,highway,154,0.11720607702333222,0.6806606943983272,0.3237936326549305,0,learn,
,html-keyboard-response,411,1035124,0.0-213.0-1.0,null,,,<p></p>,null,,,,,,,,,,,,
,do_trial,412,1037761,0.0-214.0-0.0,130.3000000002794,,,,,,51,0,1,0,4,highway,155,0.12983233464392188,0.7283529867053927,0.3343916339189709,0,learn,
,html-keyboard-response,413,1038764,0.0-214.0-1.0,null,,,<p></p>,null,,,,,,,,,,,,
,do_trial,414,1041307,0.0-215.0-0.0,36.5,,,,,,50,0,1,0,4,highway,156,0.15295223072018035,0.5275716520813455,0.299061806698723,1,learn,
,html-keyboard-response,415,1042310,0.0-215.0-1.0,null,,,<p></p>,null,,,,,,,,,,,,
,do_trial,416,1044991,0.0-216.0-0.0,174,,,,,,50,0,1,1,4,highway,157,0.0852191035353481,0.5881067699511962,0.27104588997358237,1,learn,
,html-keyboard-response,417,1045994,0.0-216.0-1.0,null,,,<p></p>,null,,,,,,,,,,,,
,do_trial,418,1049123,0.0-217.0-0.0,622.1000000000931,,,,,,50,0,1,0,4,highway,158,0.08770378082623174,0.6380095423960943,0.24293403841882172,1,learn,
,html-keyboard-response,419,1050127,0.0-217.0-1.0,null,,,<p></p>,null,,,,,,,,,,,,
,do_trial,420,1052945,0.0-218.0-0.0,311.3000000002794,,,,,,50,0,1,0,4,highway,159,0.19021074844840513,0.678857087926392,0.07522142206856156,1,learn,
,html-keyboard-response,421,1053948,0.0-218.0-1.0,null,,,<p></p>,null,,,,,,,,,,,,
,do_trial,422,1056810,0.0-219.0-0.0,355.40000000037253,,,,,,50,0,1,0,4,highway,160,0.13873614865473716,0.7220940389842097,0.130915652651442,1,learn,
,html-keyboard-response,423,1057812,0.0-219.0-1.0,null,,,<p></p>,null,,,,,,,,,,,,
,do_trial,424,1061216,0.0-220.0-0.0,897.8999999999069,,,,,,50,0,1,0,4,highway,161,0.228851178407892,0.8674791119899189,0.07949589204922763,1,learn,
,html-keyboard-response,425,1062219,0.0-220.0-1.0,null,,,<p></p>,null,,,,,,,,,,,,
,do_trial,426,1065072,0.0-221.0-0.0,347,,,,,,50,1,1,0,4,highway,162,0.4501590427071819,0.7193216993109818,0.4126195630786402,1,learn,
,html-keyboard-response,427,1066076,0.0-221.0-1.0,null,,,<p></p>,null,,,,,,,,,,,,
,do_trial,428,1068872,0.0-222.0-0.0,290,,,,,,50,1,0,1,4,highway,163,0.617459255825761,0.5911866463301902,0.29746638115298835,0,learn,
,html-keyboard-response,429,1069875,0.0-222.0-1.0,null,,,<p></p>,null,,,,,,,,,,,,
,do_trial,430,1072598,0.0-223.0-0.0,215.79999999981374,,,,,,50,0,1,0,4,highway,164,0.5322720064720323,0.4327197220752556,0.16686816775236402,1,learn,
,html-keyboard-response,431,1073601,0.0-223.0-1.0,null,,,<p></p>,null,,,,,,,,,,,,
,do_trial,432,1076504,0.0-224.0-0.0,396.5,,,,,,50,1,0,1,4,highway,165,0.5883681856069799,0.5314600808690968,0.07252361634027164,0,learn,
,html-keyboard-response,433,1077508,0.0-224.0-1.0,null,,,<p></p>,null,,,,,,,,,,,,
,do_trial,434,1080210,0.0-225.0-0.0,195.39999999990687,,,,,,50,0,0,0,4,highway,166,0.7133804860879773,0.49876809174105957,0.10024250719390387,0,learn,
,html-keyboard-response,435,1081213,0.0-225.0-1.0,null,,,<p></p>,null,,,,,,,,,,,,
,do_trial,436,1083939,0.0-226.0-0.0,219.6999999997206,,,,,,49,1,0,1,4,highway,167,0.6788895496949303,0.4153981201729322,0.08664531553377434,1,learn,
,html-keyboard-response,437,1084942,0.0-226.0-1.0,null,,,<p></p>,null,,,,,,,,,,,,
,do_trial,438,1087895,0.0-227.0-0.0,447.29999999981374,,,,,,49,1,1,1,4,highway,168,0.637135438738795,0.42914728304075733,0.1505240201217735,1,learn,
,html-keyboard-response,439,1088898,0.0-227.0-1.0,null,,,<p></p>,null,,,,,,,,,,,,
,do_trial,440,1091517,0.0-228.0-0.0,113,,,,,,49,0,0,0,4,highway,169,0.5375720268881627,0.39102333975551956,0.13633087032540972,0,learn,
,html-keyboard-response,441,1092520,0.0-228.0-1.0,null,,,<p></p>,null,,,,,,,,,,,,
,do_trial,442,1095957,0.0-229.0-0.0,931.3999999999069,,,,,,49,1,1,1,4,highway,170,0.4892153792378289,0.3967111195709785,0.22852482479222133,1,learn,
,html-keyboard-response,443,1096960,0.0-229.0-1.0,null,,,<p></p>,null,,,,,,,,,,,,
,do_trial,444,1100015,0.0-230.0-0.0,548.3000000002794,,,,,,49,1,1,0,4,highway,171,0.43069106421070547,0.4477870648765676,0.23821946971386546,1,learn,
,html-keyboard-response,445,1101018,0.0-230.0-1.0,null,,,<p></p>,null,,,,,,,,,,,,
,do_trial,446,1104167,0.0-231.0-0.0,642.1999999997206,,,,,,49,1,0,0,4,highway,172,0.5802162308341822,0.3864784873816355,0.14667964898380917,1,learn,
,html-keyboard-response,447,1105170,0.0-231.0-1.0,null,,,<p></p>,null,,,,,,,,,,,,
,do_trial,448,1108159,0.0-232.0-0.0,483.10000000009313,,,,,,49,1,1,1,4,highway,173,0.6404270967133945,0.42842053362816906,0.15119909540612667,1,learn,
,html-keyboard-response,449,1109162,0.0-232.0-1.0,null,,,<p></p>,null,,,,,,,,,,,,
,do_trial,450,1112112,0.0-233.0-0.0,445.1999999997206,,,,,,49,0,0,1,4,highway,174,0.666236782844173,0.42699777796739347,0.18014645449805566,0,learn,
,html-keyboard-response,451,1113116,0.0-233.0-1.0,null,,,<p></p>,null,,,,,,,,,,,,
,do_trial,452,1116319,0.0-234.0-0.0,697.6999999997206,,,,,,49,1,0,0,4,highway,175,0.5871151354507458,0.3716154236965928,0.05968040312630135,1,learn,
,html-keyboard-response,453,1117322,0.0-234.0-1.0,null,,,<p></p>,null,,,,,,,,,,,,
,do_trial,454,1120192,0.0-235.0-0.0,362.89999999990687,,,,,,49,1,0,0,4,highway,176,0.5895399733461631,0.286842582215056,0.09939509315891126,1,learn,
,html-keyboard-response,455,1121196,0.0-235.0-1.0,null,,,<p></p>,null,,,,,,,,,,,,
,do_trial,456,1124116,0.0-236.0-0.0,413.59999999962747,,,,,,49,1,0,0,4,highway,177,0.6075147868771474,0.47209732947065486,0.10827569497466161,1,learn,
,html-keyboard-response,457,1125120,0.0-236.0-1.0,null,,,<p></p>,null,,,,,,,,,,,,
,do_trial,458,1128088,0.0-237.0-0.0,460.89999999990687,,,,,,49,0,0,0,4,highway,178,0.6275783929882709,0.3194158273207642,0.12996829393272524,0,learn,
,html-keyboard-response,459,1129091,0.0-237.0-1.0,null,,,<p></p>,null,,,,,,,,,,,,
,do_trial,460,1131740,0.0-238.0-0.0,142.60000000009313,,,,,,49,1,1,0,4,highway,179,0.5937500089734015,0.34561445086153597,0.08708323281305563,1,learn,
,html-keyboard-response,461,1132743,0.0-238.0-1.0,null,,,<p></p>,null,,,,,,,,,,,,
,do_trial,462,1135530,0.0-239.0-0.0,280.29999999981374,,,,,,49,0,0,0,4,highway,180,0.47972634086100535,0.20318419268442284,0.07411186273802153,0,learn,
,html-keyboard-response,463,1136534,0.0-239.0-1.0,null,,,<p></p>,null,,,,,,,,,,,,
,do_trial,464,1139265,0.0-240.0-0.0,224.59999999962747,,,,,,49,0,0,0,4,highway,181,0.5243279295488747,0.11680985489793946,0.06332306203147488,0,learn,
,html-keyboard-response,465,1140268,0.0-240.0-1.0,null,,,<p></p>,null,,,,,,,,,,,,
,do_trial,466,1143008,0.0-241.0-0.0,233.89999999990687,,,,,,49,1,0,0,4,highway,182,0.6321068102234938,0.2536037715280125,0.19287158204821073,1,learn,
,html-keyboard-response,467,1144011,0.0-241.0-1.0,null,,,<p></p>,null,,,,,,,,,,,,
,do_trial,468,1146733,0.0-242.0-0.0,214.60000000009313,,,,,,49,1,0,0,4,highway,183,0.6731577941634656,0.2728572034247755,0.21705892865325688,1,learn,
,html-keyboard-response,469,1147736,0.0-242.0-1.0,null,,,<p></p>,null,,,,,,,,,,,,
,do_trial,470,1150864,0.0-243.0-0.0,620.1999999997206,,,,,,49,1,0,0,4,highway,184,0.7381643400373862,0.40760670301131313,0.11893434619411851,1,learn,
,html-keyboard-response,471,1151867,0.0-243.0-1.0,null,,,<p></p>,null,,,,,,,,,,,,
,do_trial,472,1155289,0.0-244.0-0.0,915.5,,,,,,49,1,0,1,4,highway,185,0.6620785761789253,0.3532059128090407,0.18975214718071776,1,learn,
,html-keyboard-response,473,1156292,0.0-244.0-1.0,null,,,<p></p>,null,,,,,,,,,,,,
,do_trial,474,1159265,0.0-245.0-0.0,465.29999999981374,,,,,,49,1,1,0,4,highway,186,0.6531422481842172,0.47772040715283154,0.2313346513932464,1,learn,
,html-keyboard-response,475,1160269,0.0-245.0-1.0,null,,,<p></p>,null,,,,,,,,,,,,
,do_trial,476,1162841,0.0-246.0-0.0,64.70000000018626,,,,,,49,0,0,1,4,highway,187,0.5106215871481757,0.32319071769705277,0.08019886202114142,0,learn,
,html-keyboard-response,477,1163844,0.0-246.0-1.0,null,,,<p></p>,null,,,,,,,,,,,,
,do_trial,478,1166606,0.0-247.0-0.0,256.29999999981374,,,,,,49,1,1,0,4,highway,188,0.5170530795444681,0.3431516303331709,0.1895161547406434,1,learn,
,html-keyboard-response,479,1167610,0.0-247.0-1.0,null,,,<p></p>,null,,,,,,,,,,,,
,do_trial,480,1171160,0.0-248.0-0.0,1043,,,,,,49,1,0,1,4,highway,189,0.5597095145081439,0.24222477815082422,0.17522456467573622,1,learn,
,html-keyboard-response,481,1172164,0.0-248.0-1.0,null,,,<p></p>,null,,,,,,,,,,,,
,attention_check,482,1175866,0.0-249.0-0.0,3700.6999999997206,,,<div style='position:relative; margin-top: 600px;'><p>Before we set sail — press the <b>Z</b> key to continue!</p></div>,49,,,,,,,,,,,,false
,do_bye,483,1177372,0.0-249.0-1.0,null,,,,,,null,,,,,,,,,,
,break,484,1205305,0.0-249.0-2.0,27932.100000000093,,,<div class='center'><p>Time to take a quick break! You have 2 minutes to rest, but you can move on sooner if you'd like.</p><p> Press the <b>space bar</b> to continue.</p></div>,32,,,,,,,,,,,,
,do_travel,485,1214311,0.0-250.0-0.0,null,,,,,,null,,,,,,,,,,
