success,trial_type,trial_index,time_elapsed,internal_node_id,rt,responses,subject_id,stimulus,key_press,prompt,response,choice_outcomes,context_n,context_img_id,trial_n,pR_red,pR_white,pR_black,outcome,phase,island_num,passed
true,fullscreen,0,6750,0.0-0.0,,,,,,,,,,,,,,,,,,
,survey-html-form,1,20172,0.0-1.0,13419.300000190735,{worker_id:6733983217b9e8aaa7b1732d},6733983217b9e8aaa7b1732d,,,,,,,,,,,,,,,
,instruc1,2,22174,0.0-2.0,null,,6733983217b9e8aaa7b1732d,<div class='center'><p>Welcome! This study will last ~30 minutes. After the instructions there will be a practice game and quiz to make sure you understand the task. Today you will be the head captain of a pirate ship traveling around the world to different islands. Here is an overview of what you will be doing:</p><br><p> 1. Try to find the most successful pirate on 6 different islands</p><p> 2. Recall which pirates did the best on each island</p><br><p>,null,<div class='center'><p>Welcome! This study will last ~30 minutes. After the instructions there will be a practice game and quiz to make sure you understand the task. Today you will be the head captain of a pirate ship traveling around the world to different islands. Here is an overview of what you will be doing:</p><br><p> 1. Try to find the most successful pirate on 6 different islands</p><p> 2. Recall which pirates did the best on each island</p><br><p>,,,,,,,,,,,,
,html-keyboard-response,3,73179,0.0-3.0,51002.799999952316,,,<div class='center'><p>Welcome! This study will last ~30 minutes. After the instructions there will be a practice game and quiz to make sure you understand the task. Today you will be the head captain of a pirate ship traveling around the world to different islands. Here is an overview of what you will be doing:</p><br><p> 1. Try to find the most successful pirate on 6 different islands</p><p> 2. Recall which pirates did the best on each island</p><br><p><p><b>[Press the space bar to continue]</b></p></div>,32,,,,,,,,,,,,,
,instruc2,4,75196,0.0-4.0,null,,,<div class='center'><p>You are going to visit these 6 islands on your journey. You'll be able to see these islands from your ship.</p><p><img src='../static/images/contexts/all_contexts.png' height='500'></p></div>,null,<div class='center'><p>You are going to visit these 6 islands on your journey. You'll be able to see these islands from your ship.</p><p><img src='../static/images/contexts/all_contexts.png' height='500'></p></div>,,,,,,,,,,,,
,html-keyboard-response,5,92695,0.0-5.0,17497.099999904633,,,<div class='center'><p>You are going to visit these 6 islands on your journey. You'll be able to see these islands from your ship.</p><p><img src='../static/images/contexts/all_contexts.png' height='500'></p><p><b>[Press the space bar to continue]</b></p></div>,32,,,,,,,,,,,,,
,instruc4,6,94697,0.0-6.0,null,,,<div class='center'><p>As the head captain, you do not have to rob any ships yourself. Another pirate will be doing the robbing for you. First, you will choose a pirate to rob the next ship.</p><p><img src='../static/images/tutorial/pirates_all_crop.png' height='200'></p><p>Then, you'll see if the pirate successfully robbed the ship of their gold. If they were successful, then you'll get a stack of gold coins like this:</p><p><img src='../static/images/tutorial/reward.png' height='150'></p><p> If they were <b>not</b> successful, then you'll get no gold coins, and you'll see a big red x like this: </p><p><img src='../static/images/tutorial/reward_no.png' height='150'></p><p> How much bonus money you make is based on how many gold coins you collect.</p><div>,null,<div class='center'><p>As the head captain, you do not have to rob any ships yourself. Another pirate will be doing the robbing for you. First, you will choose a pirate to rob the next ship.</p><p><img src='../static/images/tutorial/pirates_all_crop.png' height='200'></p><p>Then, you'll see if the pirate successfully robbed the ship of their gold. If they were successful, then you'll get a stack of gold coins like this:</p><p><img src='../static/images/tutorial/reward.png' height='150'></p><p> If they were <b>not</b> successful, then you'll get no gold coins, and you'll see a big red x like this: </p><p><img src='../static/images/tutorial/reward_no.png' height='150'></p><p> How much bonus money you make is based on how many gold coins you collect.</p><div>,,,,,,,,,,,,
,html-keyboard-response,7,135148,0.0-7.0,40449.5,,,<div class='center'><p>As the head captain, you do not have to rob any ships yourself. Another pirate will be doing the robbing for you. First, you will choose a pirate to rob the next ship.</p><p><img src='../static/images/tutorial/pirates_all_crop.png' height='200'></p><p>Then, you'll see if the pirate successfully robbed the ship of their gold. If they were successful, then you'll get a stack of gold coins like this:</p><p><img src='../static/images/tutorial/reward.png' height='150'></p><p> If they were <b>not</b> successful, then you'll get no gold coins, and you'll see a big red x like this: </p><p><img src='../static/images/tutorial/reward_no.png' height='150'></p><p> How much bonus money you make is based on how many gold coins you collect.</p><div><p><b>[Press the space bar to continue]</b></p></div>,32,,,,,,,,,,,,,
,instruc5,8,164980,0.0-8.0,29831.900000095367,,,<div class='center'><p>Even the most skilled pirate can not rob EVERY ship.</p><p> Some ships will have very strong protections against pirate attacks.</p><p> Blue beard, here, is very, very good at robbing ships, but he won't be successful every time he tries to rob one.</p><p> You can press the <b>'1'</b> key on the keyboard to choose him.</p><p> Try choosing him 10 times to see how often he succeeds at robbing a ship. </p><p><img src='../static/images/tutorial/blue.png' height='500'></p></div>,49,<div class='center'><p>Even the most skilled pirate can not rob EVERY ship.</p><p> Some ships will have very strong protections against pirate attacks.</p><p> Blue beard, here, is very, very good at robbing ships, but he won't be successful every time he tries to rob one.</p><p> You can press the <b>'1'</b> key on the keyboard to choose him.</p><p> Try choosing him 10 times to see how often he succeeds at robbing a ship. </p><p><img src='../static/images/tutorial/blue.png' height='500'></p></div>,,,,,,,,,,,,
,html-keyboard-response,9,166483,0.0-9.0,null,,,<div class='center'><p><img src='../static/images/tutorial/blue_win.png' height='500'></p></div>,null,,,,,,,,,,,,,
,html-keyboard-response,10,168886,0.0-10.0,2402.0999999046326,,,<div class='center'><img src='../static/images/tutorial/blue.png' height='500'></p></div>,49,,,,,,,,,,,,,
,html-keyboard-response,11,170388,0.0-11.0,null,,,<div class='center'><p><img src='../static/images/tutorial/blue_win.png' height='500'></p></div>,null,,,,,,,,,,,,,
,html-keyboard-response,12,171046,0.0-12.0,657.2000000476837,,,<div class='center'><img src='../static/images/tutorial/blue.png' height='500'></p></div>,49,,,,,,,,,,,,,
,html-keyboard-response,13,172548,0.0-13.0,null,,,<div class='center'><p><img src='../static/images/tutorial/blue_win.png' height='500'></p></div>,null,,,,,,,,,,,,,
,html-keyboard-response,14,173030,0.0-14.0,481,,,<div class='center'><img src='../static/images/tutorial/blue.png' height='500'></p></div>,49,,,,,,,,,,,,,
,html-keyboard-response,15,174531,0.0-15.0,null,,,<div class='center'><p><img src='../static/images/tutorial/blue_no_win.png' height='500'></p></div>,null,,,,,,,,,,,,,
,html-keyboard-response,16,175294,0.0-16.0,762.2999999523163,,,<div class='center'><img src='../static/images/tutorial/blue.png' height='500'></p></div>,49,,,,,,,,,,,,,
,html-keyboard-response,17,176797,0.0-17.0,null,,,<div class='center'><p><img src='../static/images/tutorial/blue_win.png' height='500'></p></div>,null,,,,,,,,,,,,,
,html-keyboard-response,18,177141,0.0-18.0,343.5,,,<div class='center'><img src='../static/images/tutorial/blue.png' height='500'></p></div>,49,,,,,,,,,,,,,
,html-keyboard-response,19,178643,0.0-19.0,null,,,<div class='center'><p><img src='../static/images/tutorial/blue_win.png' height='500'></p></div>,null,,,,,,,,,,,,,
,html-keyboard-response,20,179070,0.0-20.0,425.59999990463257,,,<div class='center'><img src='../static/images/tutorial/blue.png' height='500'></p></div>,49,,,,,,,,,,,,,
,html-keyboard-response,21,180571,0.0-21.0,null,,,<div class='center'><p><img src='../static/images/tutorial/blue_win.png' height='500'></p></div>,null,,,,,,,,,,,,,
,html-keyboard-response,22,181126,0.0-22.0,553.4000000953674,,,<div class='center'><img src='../static/images/tutorial/blue.png' height='500'></p></div>,49,,,,,,,,,,,,,
,html-keyboard-response,23,182627,0.0-23.0,null,,,<div class='center'><p><img src='../static/images/tutorial/blue_no_win.png' height='500'></p></div>,null,,,,,,,,,,,,,
,html-keyboard-response,24,183118,0.0-24.0,489.5,,,<div class='center'><img src='../static/images/tutorial/blue.png' height='500'></p></div>,49,,,,,,,,,,,,,
,html-keyboard-response,25,184619,0.0-25.0,null,,,<div class='center'><p><img src='../static/images/tutorial/blue_win.png' height='500'></p></div>,null,,,,,,,,,,,,,
,html-keyboard-response,26,185046,0.0-26.0,425.2999999523163,,,<div class='center'><img src='../static/images/tutorial/blue.png' height='500'></p></div>,49,,,,,,,,,,,,,
,html-keyboard-response,27,186547,0.0-27.0,null,,,<div class='center'><p><img src='../static/images/tutorial/blue_win.png' height='500'></p></div>,null,,,,,,,,,,,,,
,instruc6,28,188549,0.0-28.0,null,,,<div class='center'><p> See, he succeeded in robbing the ships most of the time but not every time. </p></div>,null,<div class='center'><p> See, he succeeded in robbing the ships most of the time but not every time. </p></div>,,,,,,,,,,,,
,html-keyboard-response,29,192070,0.0-29.0,3520.0999999046326,,,<div class='center'><p> See, he succeeded in robbing the ships most of the time but not every time. </p><p><b>[Press the space bar to continue]</b></p></div>,32,,,,,,,,,,,,,
,html-keyboard-response,30,206007,0.0-30.0,13936.099999904633,,,<div class='center'><p>From these three pirates, you will get to choose which one you want to rob the next ship. <p>Press the <b>'1'</b> key on your keyboard to pick the pirate with the red beard.</p><p> Press <b>'2'</b> to pick the pirate with the white beard.</p><p> Press <b>'3'</b> to pick the pirate with the black beard.</p><p>Try picking a pirate now!</p><p><img src='../static/images/tutorial/all_pirates.png' height='500'></p></div>,50,,,,,,,,,,,,,
,html-keyboard-response,31,209670,0.0-31.0-0.0,3660.5,,,<div class='center'><p>Yay! This pirate succeeded in robbing the ship!</p><p><img src='../static/images/tutorial/white_win.png' height='500'></p><p><b>[Press the space bar to continue]</b></p></div>,32,,,,,,,,,,,,,
,html-keyboard-response,32,212685,0.0-31.0-1.0,3014.5999999046326,,,<div class='center'><p>Now try choosing another.</p><p><img src='../static/images/tutorial/all_pirates.png' height='500'></p></div>,49,,,,,,,,,,,,,
,html-keyboard-response,33,215029,0.0-32.0-0.0,2342,,,<div class='center'><p>Oh no! This pirate did not succeed in robbing the ship.</p><p><img src='../static/images/tutorial/red_no_win.png' height='500'></p><p><b>[Press the space bar to continue]</b></p></div>,32,,,,,,,,,,,,,
,instruc9,34,217031,0.0-33.0-0.0,null,,,<div class='center'><p>If you don't make your choice fast enough, you'll have to wait a few seconds before you can make another one. </p><p><img src='../static/images/miscellaneous/hurry_up.png' height='500'></p></div>,null,<div class='center'><p>If you don't make your choice fast enough, you'll have to wait a few seconds before you can make another one. </p><p><img src='../static/images/miscellaneous/hurry_up.png' height='500'></p></div>,,,,,,,,,,,,
,html-keyboard-response,35,228310,0.0-33.0-1.0,11277.400000095367,,,<div class='center'><p>If you don't make your choice fast enough, you'll have to wait a few seconds before you can make another one. </p><p><img src='../static/images/miscellaneous/hurry_up.png' height='500'></p><p><b>[Press the space bar to continue]</b></p></div>,32,,,,,,,,,,,,,
,instruc11,36,230311,0.0-33.0-2.0,null,,,<div class='center'><p>How successful a pirate is at robbing ships will depend on the island you're on.</p><p> A pirate may have visited this island many times before and gained a lot of practice robbing ships there.</p><p>So, they're more likely to be successful than a pirate who has never visited the island before.</p></div>,null,<div class='center'><p>How successful a pirate is at robbing ships will depend on the island you're on.</p><p> A pirate may have visited this island many times before and gained a lot of practice robbing ships there.</p><p>So, they're more likely to be successful than a pirate who has never visited the island before.</p></div>,,,,,,,,,,,,
,html-keyboard-response,37,244990,0.0-33.0-3.0,14677.799999952316,,,<div class='center'><p>How successful a pirate is at robbing ships will depend on the island you're on.</p><p> A pirate may have visited this island many times before and gained a lot of practice robbing ships there.</p><p>So, they're more likely to be successful than a pirate who has never visited the island before.</p><p><b>[Press the space bar to continue]</b></p></div>,32,,,,,,,,,,,,,
,instruc12,38,246992,0.0-33.0-4.0,null,,,<div class='center'><p>How successful a pirate is at robbing ships can also change over the time spent on the island. </p><p> Ships may hear from islanders about the pirates coming and will improve their protections against the attack. This may make it harder to rob them.</p><p> Ships may also become lazy and weaken the strength of their protections. This may make it easier to rob them.</p><br><p>Things are always changing on the high seas! So, try your best to pay attention!</p><p><img src='../static/images/tutorial/contingency.png' height='500'></p></div>,null,<div class='center'><p>How successful a pirate is at robbing ships can also change over the time spent on the island. </p><p> Ships may hear from islanders about the pirates coming and will improve their protections against the attack. This may make it harder to rob them.</p><p> Ships may also become lazy and weaken the strength of their protections. This may make it easier to rob them.</p><br><p>Things are always changing on the high seas! So, try your best to pay attention!</p><p><img src='../static/images/tutorial/contingency.png' height='500'></p></div>,,,,,,,,,,,,
,html-keyboard-response,39,278765,0.0-33.0-5.0,31772.699999809265,,,<div class='center'><p>How successful a pirate is at robbing ships can also change over the time spent on the island. </p><p> Ships may hear from islanders about the pirates coming and will improve their protections against the attack. This may make it harder to rob them.</p><p> Ships may also become lazy and weaken the strength of their protections. This may make it easier to rob them.</p><br><p>Things are always changing on the high seas! So, try your best to pay attention!</p><p><img src='../static/images/tutorial/contingency.png' height='500'></p><p><b>[Press the space bar to continue]</b></p></div>,32,,,,,,,,,,,,,
,instruc13,40,280767,0.0-33.0-6.0,null,,,<div class='center'><p>Let's go over the instructions quickly again. You have one thing to do: </p><p><b>Pick the pirate who is the best at robbing ships on the current island.</b></p><p>The amount of bonus money you win depends on it.</p><br><p>Let's try a practice game. The game will start by showing you an island. Pick a pirate using the <b>1, 2, 3</b> keys on your keyboard to get it to try and rob one of the ships leaving the island.</p><p>This is just a practice game, so you're not playing for money.</p><p>Good luck! This game will be very difficult but try your best!</p></div>,null,<div class='center'><p>Let's go over the instructions quickly again. You have one thing to do: </p><p><b>Pick the pirate who is the best at robbing ships on the current island.</b></p><p>The amount of bonus money you win depends on it.</p><br><p>Let's try a practice game. The game will start by showing you an island. Pick a pirate using the <b>1, 2, 3</b> keys on your keyboard to get it to try and rob one of the ships leaving the island.</p><p>This is just a practice game, so you're not playing for money.</p><p>Good luck! This game will be very difficult but try your best!</p></div>,,,,,,,,,,,,
,html-keyboard-response,41,308238,0.0-33.0-7.0,27469.199999809265,,,<div class='center'><p>Let's go over the instructions quickly again. You have one thing to do: </p><p><b>Pick the pirate who is the best at robbing ships on the current island.</b></p><p>The amount of bonus money you win depends on it.</p><br><p>Let's try a practice game. The game will start by showing you an island. Pick a pirate using the <b>1, 2, 3</b> keys on your keyboard to get it to try and rob one of the ships leaving the island.</p><p>This is just a practice game, so you're not playing for money.</p><p>Good luck! This game will be very difficult but try your best!</p><p><b>[Press the space bar to continue]</b></p></div>,32,,,,,,,,,,,,,
,do_welcome,42,312248,0.0-33.0-8.0,null,,,,,,null,,,,,,,,,,,
,do_trial,43,316498,0.0-33.0-9.0,1744.1000001430511,,,,,,49,1,0,0,,,,,,,,,,
,html-keyboard-response,44,317501,0.0-34.0-0.0,null,,,<p></p>,null,,,,,,,,,,,,,
,do_trial,45,320658,0.0-34.0-1.0,651.0999999046326,,,,,,49,1,1,0,,,,,,,,,,
,html-keyboard-response,46,321660,0.0-35.0-0.0,null,,,<p></p>,null,,,,,,,,,,,,,
,do_trial,47,324992,0.0-35.0-1.0,829.4000000953674,,,,,,49,1,0,1,,,,,,,,,,
,html-keyboard-response,48,325995,0.0-36.0-0.0,null,,,<p></p>,null,,,,,,,,,,,,,
,do_trial,49,329154,0.0-36.0-1.0,652.7999999523163,,,,,,49,0,1,0,,,,,,,,,,
,html-keyboard-response,50,330156,0.0-37.0-0.0,null,,,<p></p>,null,,,,,,,,,,,,,
,do_trial,51,333378,0.0-37.0-1.0,715.5,,,,,,50,1,0,0,,,,,,,,,,
,do_bye,52,334889,0.0-38.0-0.0,null,,,,,,null,,,,,,,,,,,
,do_travel,53,343893,0.0-38.0-1.0,null,,,,,,null,,,,,,,,,,,
,do_welcome,54,347902,0.0-38.0-2.0,null,,,,,,null,,,,,,,,,,,
,do_trial,55,351819,0.0-38.0-3.0,1410.4000000953674,,,,,,50,1,0,0,,,,,,,,,,
,html-keyboard-response,56,352821,0.0-39.0-0.0,null,,,<p></p>,null,,,,,,,,,,,,,
,do_trial,57,356066,0.0-39.0-1.0,738.7000000476837,,,,,,51,1,0,1,,,,,,,,,,
,html-keyboard-response,58,357068,0.0-40.0-0.0,null,,,<p></p>,null,,,,,,,,,,,,,
,do_trial,59,360186,0.0-40.0-1.0,611.8999998569489,,,,,,51,1,1,0,,,,,,,,,,
,html-keyboard-response,60,361187,0.0-41.0-0.0,null,,,<p></p>,null,,,,,,,,,,,,,
,do_trial,61,364458,0.0-41.0-1.0,764.7000000476837,,,,,,51,0,0,1,,,,,,,,,,
,html-keyboard-response,62,365460,0.0-42.0-0.0,null,,,<p></p>,null,,,,,,,,,,,,,
,do_trial,63,368634,0.0-42.0-1.0,667,,,,,,51,1,0,1,,,,,,,,,,
,html-keyboard-response,64,373670,0.0-43.0-0.0,5034.099999904633,,,<div class='center'><p><img src='../static/images/tutorial/prac_best_pirate.png' height='500'></p></div>,49,,,,,,,,,,,,,
,html-keyboard-response,65,381661,0.0-44.0-0.0,7990.600000143051,,,<div class='center'><p>That's correct! Red beard was the best.</p><p><b>[Press the space bar to continue]</b></p></div>,32,,,,,,,,,,,,,
,quiz_beginning,66,383663,0.0-44.0-1.0,null,,,<div class='center'><p>Good job on the practice game! Now, you will be asked some true or false questions to make sure you really understand the rules of the game.</p><p> Press <b>'1'</b> on the keyboard for true and press <b>'2'</b> for false.</p></div>,null,<div class='center'><p>Good job on the practice game! Now, you will be asked some true or false questions to make sure you really understand the rules of the game.</p><p> Press <b>'1'</b> on the keyboard for true and press <b>'2'</b> for false.</p></div>,,,,,,,,,,,,
,html-keyboard-response,67,392814,0.0-44.0-2.0,9149.800000190735,,,<div class='center'><p>You win bonus money by collecting gold coins.</p><p>Press 1 for true and press  2 for false.</p></div>,49,,,,,,,,,,,,,
,correct,68,394815,0.0-45.0-0.0,null,,,<div class='center'><p>That's correct!</p></div>,null,<div class='center'><p>That's correct!</p></div>,,,,,,,,,,,,
,html-keyboard-response,69,396429,0.0-45.0-1.0,1612.5,,,<div class='center'><p>That's correct!</p><p><b>[Press the space bar to continue]</b></p></div>,32,,,,,,,,,,,,,
,html-keyboard-response,70,402717,0.0-45.0-2.0,6287.900000095367,,,<div class='center'><p>The pirate who is the best at robbing ships when you first arrive on the island will definitely still be the best when you leave the island. </p><p>Press 1 for true and press  2 for false.</p></div>,50,,,,,,,,,,,,,
,correct,71,404719,0.0-46.0-0.0,null,,,<div class='center'><p>That's correct!</p></div>,null,<div class='center'><p>That's correct!</p></div>,,,,,,,,,,,,
,html-keyboard-response,72,406397,0.0-46.0-1.0,1676.6999998092651,,,<div class='center'><p>That's correct!</p><p><b>[Press the space bar to continue]</b></p></div>,32,,,,,,,,,,,,,
,html-keyboard-response,73,411797,0.0-46.0-2.0,5399.299999952316,,,<div class='center'><p>The pirate who is the best at robbing ships on the first island will be the best on every other island.</p><p>Press 1 for true and press  2 for false.</p></div>,50,,,,,,,,,,,,,
,correct,74,413798,0.0-47.0-0.0,null,,,<div class='center'><p>That's correct!</p></div>,null,<div class='center'><p>That's correct!</p></div>,,,,,,,,,,,,
,html-keyboard-response,75,415045,0.0-47.0-1.0,1245.2999999523163,,,<div class='center'><p>That's correct!</p><p><b>[Press the space bar to continue]</b></p></div>,32,,,,,,,,,,,,,
,html-keyboard-response,76,421501,0.0-47.0-2.0,6455.900000095367,,,<div class='center'><p>You should remember the island where a pirate robbed a ship.</p><p>Press 1 for true and press  2 for false.</p></div>,49,,,,,,,,,,,,,
,correct,77,423538,0.0-48.0-0.0,null,,,<div class='center'><p>That's correct!</p></div>,null,<div class='center'><p>That's correct!</p></div>,,,,,,,,,,,,
,html-keyboard-response,78,425165,0.0-48.0-1.0,1626.0999999046326,,,<div class='center'><p>That's correct!</p><p><b>[Press the space bar to continue]</b></p></div>,32,,,,,,,,,,,,,
,q_all_corr,79,427167,0.0-49.0-0.0,null,,,<div class='center'><p>Good job! You’re now ready to move on to the real game! Remember this game will be difficult but don't get discouraged and try your best!</p></div>,null,<div class='center'><p>Good job! You’re now ready to move on to the real game! Remember this game will be difficult but don't get discouraged and try your best!</p></div>,,,,,,,,,,,,
,html-keyboard-response,80,459173,0.0-49.0-1.0,32004.200000047684,,,<div class='center'><p>Good job! You’re now ready to move on to the real game! Remember this game will be difficult but don't get discouraged and try your best!</p><p><b>[Press the space bar to continue]</b></p></div>,32,,,,,,,,,,,,,
,do_welcome,81,463187,0.0-50.0-0.0,null,,,,,,null,,,,,,,,,,,
,do_trial,82,467841,0.0-51.0-0.0,2150.600000143051,,,,,,49,0,0,0,0,highway,0,0.6,0.3,0.1,0,learn,,
,html-keyboard-response,83,468844,0.0-51.0-1.0,null,,,<p></p>,null,,,,,,,,,,,,,
,do_trial,84,471994,0.0-52.0-0.0,645.4000000953674,,,,,,50,0,0,1,0,highway,1,0.6375584933649829,0.382574509248242,0.22076520164906324,0,learn,,
,html-keyboard-response,85,472996,0.0-52.0-1.0,null,,,<p></p>,null,,,,,,,,,,,,,
,do_trial,86,476241,0.0-53.0-0.0,740.2000000476837,,,,,,51,1,1,0,0,highway,2,0.6697619538997556,0.3069200289617948,0.22198544536338605,0,learn,,
,html-keyboard-response,87,477243,0.0-53.0-1.0,null,,,<p></p>,null,,,,,,,,,,,,,
,do_trial,88,480242,0.0-54.0-0.0,494.7000000476837,,,,,,49,0,0,1,0,highway,3,0.46277210013723413,0.3860657410191077,0.23661288472604497,0,learn,,
,html-keyboard-response,89,481243,0.0-54.0-1.0,null,,,<p></p>,null,,,,,,,,,,,,,
,do_trial,90,484227,0.0-55.0-0.0,475.90000009536743,,,,,,50,1,0,0,0,highway,4,0.5827775899875158,0.33497924954334646,0.18091918898219714,0,learn,,
,html-keyboard-response,91,485229,0.0-55.0-1.0,null,,,<p></p>,null,,,,,,,,,,,,,
,do_trial,92,488914,0.0-56.0-0.0,1177.9000000953674,,,,,,51,0,1,0,0,highway,5,0.6138902212066281,0.3770156548606579,0.1471477796453973,0,learn,,
,html-keyboard-response,93,489916,0.0-56.0-1.0,null,,,<p></p>,null,,,,,,,,,,,,,
,do_trial,94,493082,0.0-57.0-0.0,659.5,,,,,,49,1,0,1,0,highway,6,0.48352928507078646,0.33641543662387074,0.20542390134578037,1,learn,,
,html-keyboard-response,95,494084,0.0-57.0-1.0,null,,,<p></p>,null,,,,,,,,,,,,,
,do_trial,96,498018,0.0-58.0-0.0,1429.7999999523163,,,,,,49,1,0,0,0,highway,7,0.5631730247882074,0.33455190611893737,0.15392557670511028,1,learn,,
,html-keyboard-response,97,499020,0.0-58.0-1.0,null,,,<p></p>,null,,,,,,,,,,,,,
,do_trial,98,502201,0.0-59.0-0.0,674.5,,,,,,49,0,1,0,0,highway,8,0.4891346569344872,0.358379113341359,0.15645249133555245,0,learn,,
,html-keyboard-response,99,503204,0.0-59.0-1.0,null,,,<p></p>,null,,,,,,,,,,,,,
,do_trial,100,507186,0.0-60.0-0.0,1475.4000000953674,,,,,,49,0,0,0,0,highway,9,0.398422035736993,0.3638916945998667,0.17166868260128884,0,learn,,
,html-keyboard-response,101,508188,0.0-60.0-1.0,null,,,<p></p>,null,,,,,,,,,,,,,
,do_trial,102,512505,0.0-61.0-0.0,1795,,,,,,50,1,0,0,0,highway,10,0.5187191919051335,0.3781389681907081,0.26738685334138496,0,learn,,
,html-keyboard-response,103,513507,0.0-61.0-1.0,null,,,<p></p>,null,,,,,,,,,,,,,
,do_trial,104,516369,0.0-62.0-0.0,355.40000009536743,,,,,,50,0,1,0,0,highway,11,0.5008276502551932,0.46792985072112764,0.1730679995112446,1,learn,,
,html-keyboard-response,105,517385,0.0-62.0-1.0,null,,,<p></p>,null,,,,,,,,,,,,,
,do_trial,106,520258,0.0-63.0-0.0,366.90000009536743,,,,,,50,1,0,0,0,highway,12,0.49093535310020187,0.23916247803290763,0.2953607073589494,0,learn,,
,html-keyboard-response,107,521267,0.0-63.0-1.0,null,,,<p></p>,null,,,,,,,,,,,,,
,do_trial,108,524057,0.0-64.0-0.0,286.69999980926514,,,,,,50,0,0,0,0,highway,13,0.5182940724813027,0.3799511365263764,0.22480714173654281,0,learn,,
,html-keyboard-response,109,525058,0.0-64.0-1.0,null,,,<p></p>,null,,,,,,,,,,,,,
,do_trial,110,528010,0.0-65.0-0.0,444.39999985694885,,,,,,51,0,0,0,0,highway,14,0.6047490880109961,0.247808674003398,0.19238095050566778,0,learn,,
,html-keyboard-response,111,529012,0.0-65.0-1.0,null,,,<p></p>,null,,,,,,,,,,,,,
,do_trial,112,532046,0.0-66.0-0.0,517.1000001430511,,,,,,51,0,0,0,0,highway,15,0.5364964436200447,0.1808630893900622,0.20889908649921748,0,learn,,
,html-keyboard-response,113,533049,0.0-66.0-1.0,null,,,<p></p>,null,,,,,,,,,,,,,
,do_trial,114,536319,0.0-67.0-0.0,764.2000000476837,,,,,,49,0,0,0,0,highway,16,0.43162721821901356,0.3784101514448529,0.09265140028748162,0,learn,,
,html-keyboard-response,115,537322,0.0-67.0-1.0,null,,,<p></p>,null,,,,,,,,,,,,,
,do_trial,116,540351,0.0-68.0-0.0,523.5,,,,,,49,0,0,0,0,highway,17,0.49582842751957773,0.34086751273355553,0.1889709865088578,0,learn,,
,html-keyboard-response,117,541353,0.0-68.0-1.0,null,,,<p></p>,null,,,,,,,,,,,,,
,do_trial,118,544826,0.0-69.0-0.0,965.2999999523163,,,,,,49,1,1,0,0,highway,18,0.44297876949447257,0.28280384637771244,0.06370906094521789,1,learn,,
,html-keyboard-response,119,545828,0.0-69.0-1.0,null,,,<p></p>,null,,,,,,,,,,,,,
,do_trial,120,548891,0.0-70.0-0.0,547,,,,,,49,0,0,0,0,highway,19,0.4633991772815598,0.19713724837663105,0.1028076511867152,0,learn,,
,html-keyboard-response,121,549893,0.0-70.0-1.0,null,,,<p></p>,null,,,,,,,,,,,,,
,do_trial,122,553529,0.0-71.0-0.0,1131,,,,,,49,0,0,1,0,highway,20,0.4799087906486056,0.28627615395103984,0.05445883271223895,0,learn,,
,html-keyboard-response,123,554530,0.0-71.0-1.0,null,,,<p></p>,null,,,,,,,,,,,,,
,do_trial,124,557354,0.0-72.0-0.0,320.7999999523163,,,,,,50,1,1,0,0,highway,21,0.5102159298874761,0.2738913569353055,0.08119159947979547,1,learn,,
,html-keyboard-response,125,558357,0.0-72.0-1.0,null,,,<p></p>,null,,,,,,,,,,,,,
,do_trial,126,561290,0.0-73.0-0.0,426,,,,,,50,1,0,0,0,highway,22,0.5948527108122789,0.342354904903855,0.21582952296627653,0,learn,,
,html-keyboard-response,127,562293,0.0-73.0-1.0,null,,,<p></p>,null,,,,,,,,,,,,,
,do_trial,128,565192,0.0-74.0-0.0,392,,,,,,50,0,0,0,0,highway,23,0.5112266038742744,0.3589905513917646,0.07060260276969736,0,learn,,
,html-keyboard-response,129,566194,0.0-74.0-1.0,null,,,<p></p>,null,,,,,,,,,,,,,
,do_trial,130,569082,0.0-75.0-0.0,381.89999985694885,,,,,,50,1,0,0,0,highway,24,0.47798817083156275,0.3630041508819899,0.11635609178591683,0,learn,,
,html-keyboard-response,131,570083,0.0-75.0-1.0,null,,,<p></p>,null,,,,,,,,,,,,,
,do_trial,132,573321,0.0-76.0-0.0,733.2000000476837,,,,,,50,1,0,1,0,highway,25,0.5840385853684553,0.2494892406835409,0.33613059086730007,0,learn,,
,html-keyboard-response,133,574323,0.0-76.0-1.0,null,,,<p></p>,null,,,,,,,,,,,,,
,do_trial,134,577249,0.0-77.0-0.0,419.5,,,,,,49,1,1,0,0,highway,26,0.5197446221049883,0.2424951418310036,0.19762374778118638,1,learn,,
,html-keyboard-response,135,578251,0.0-77.0-1.0,null,,,<p></p>,null,,,,,,,,,,,,,
,do_trial,136,581169,0.0-78.0-0.0,411.90000009536743,,,,,,49,0,0,0,0,highway,27,0.5678974517226467,0.24370463725269922,0.12070615862110277,0,learn,,
,html-keyboard-response,137,582172,0.0-78.0-1.0,null,,,<p></p>,null,,,,,,,,,,,,,
,do_trial,138,585026,0.0-79.0-0.0,346.89999985694885,,,,,,49,1,0,0,0,highway,28,0.7106970891865274,0.21657168372695254,0.1101202481536449,1,learn,,
,html-keyboard-response,139,586028,0.0-79.0-1.0,null,,,<p></p>,null,,,,,,,,,,,,,
,do_trial,140,588993,0.0-80.0-0.0,458.7999999523163,,,,,,49,1,0,0,0,highway,29,0.6617808342140991,0.37092841772700835,0.1075914221835178,1,learn,,
,html-keyboard-response,141,589995,0.0-80.0-1.0,null,,,<p></p>,null,,,,,,,,,,,,,
,do_bye,142,591503,0.0-81.0-0.0,null,,,,,,null,,,,,,,,,,,
,do_travel,143,600509,0.0-82.0-0.0,null,,,,,,null,,,,,,,,,,,
,do_welcome,144,604526,0.0-82.0-1.0,null,,,,,,null,,,,,,,,,,,
,do_trial,145,607834,0.0-83.0-0.0,801.4000000953674,,,,,,49,1,0,0,1,forest,30,1,0.22302019447394736,0.19425550801381214,1,learn,,
,html-keyboard-response,146,608837,0.0-83.0-1.0,null,,,<p></p>,null,,,,,,,,,,,,,
,do_trial,147,612033,0.0-84.0-0.0,688.5,,,,,,49,1,1,0,1,forest,31,1,0.22226167019939144,0.0783951327863401,1,learn,,
,html-keyboard-response,148,613034,0.0-84.0-1.0,null,,,<p></p>,null,,,,,,,,,,,,,
,do_trial,149,616057,0.0-85.0-0.0,515.3999998569489,,,,,,49,1,0,0,1,forest,32,1,0.1985648129172477,0.1488967892906244,1,learn,,
,html-keyboard-response,150,617059,0.0-85.0-1.0,null,,,<p></p>,null,,,,,,,,,,,,,
,do_trial,151,620058,0.0-86.0-0.0,492,,,,,,49,0,1,0,1,forest,33,0.8015840227361923,0.18634058169531106,0.18105741253808066,0,learn,,
,html-keyboard-response,152,621060,0.0-86.0-1.0,null,,,<p></p>,null,,,,,,,,,,,,,
,do_trial,153,623841,0.0-87.0-0.0,275.60000014305115,,,,,,49,1,1,1,1,forest,34,0.6051309211322294,0.3392464423925563,0.13130943470075582,1,learn,,
,html-keyboard-response,154,624843,0.0-87.0-1.0,null,,,<p></p>,null,,,,,,,,,,,,,
,do_trial,155,627706,0.0-88.0-0.0,355,,,,,,49,0,1,1,1,forest,35,0.6104494321048568,0.36045378518888205,0.1817132091435654,0,learn,,
,html-keyboard-response,156,628708,0.0-88.0-1.0,null,,,<p></p>,null,,,,,,,,,,,,,
,do_trial,157,631570,0.0-89.0-0.0,354.5,,,,,,49,1,1,1,1,forest,36,0.6532966359723608,0.449782371160929,0.21387431964209438,1,learn,,
,html-keyboard-response,158,632573,0.0-89.0-1.0,null,,,<p></p>,null,,,,,,,,,,,,,
,do_trial,159,635524,0.0-90.0-0.0,434,,,,,,49,0,0,0,1,forest,37,0.5696053951169365,0.2988239497440559,0.16759083336400882,0,learn,,
,html-keyboard-response,160,636526,0.0-90.0-1.0,null,,,<p></p>,null,,,,,,,,,,,,,
,do_trial,161,639338,0.0-91.0-0.0,304.80000019073486,,,,,,49,1,0,0,1,forest,38,0.6284217603741157,0.2995888361355534,0.1459463946770582,1,learn,,
,html-keyboard-response,162,640340,0.0-91.0-1.0,null,,,<p></p>,null,,,,,,,,,,,,,
,do_trial,163,643410,0.0-92.0-0.0,562.6000001430511,,,,,,49,0,0,0,1,forest,39,0.5886529236311218,0.3740790749764575,0.26017634092417985,0,learn,,
,html-keyboard-response,164,644411,0.0-92.0-1.0,null,,,<p></p>,null,,,,,,,,,,,,,
,do_trial,165,647249,0.0-93.0-0.0,331.19999980926514,,,,,,49,1,1,0,1,forest,40,0.52378789153124,0.3983741314166813,0.2074811041152068,1,learn,,
,html-keyboard-response,166,648251,0.0-93.0-1.0,null,,,<p></p>,null,,,,,,,,,,,,,
,do_trial,167,651193,0.0-94.0-0.0,434.7000000476837,,,,,,49,1,1,0,1,forest,41,0.44181825117147144,0.42271443104879575,0.2823809600830439,1,learn,,
,html-keyboard-response,168,652195,0.0-94.0-1.0,null,,,<p></p>,null,,,,,,,,,,,,,
,do_trial,169,655050,0.0-95.0-0.0,349.5,,,,,,49,0,1,0,1,forest,42,0.3401329977458871,0.43173574779165325,0.4745742124771435,0,learn,,
,html-keyboard-response,170,656052,0.0-95.0-1.0,null,,,<p></p>,null,,,,,,,,,,,,,
,do_trial,171,659034,0.0-96.0-0.0,474.10000014305115,,,,,,49,0,1,0,1,forest,43,0.22421489620228202,0.44997221213060357,0.43699347964525154,0,learn,,
,html-keyboard-response,172,660036,0.0-96.0-1.0,null,,,<p></p>,null,,,,,,,,,,,,,
,do_trial,173,663888,0.0-97.0-0.0,1345.9000000953674,,,,,,51,0,0,1,1,forest,44,0.16511162928207804,0.2074254909128802,0.45605133513174184,1,learn,,
,html-keyboard-response,174,664899,0.0-97.0-1.0,null,,,<p></p>,null,,,,,,,,,,,,,
,do_trial,175,667810,0.0-98.0-0.0,404,,,,,,51,0,0,0,1,forest,45,0.2871046860613414,0.09093490627026363,0.6281779624877525,0,learn,,
,html-keyboard-response,176,668811,0.0-98.0-1.0,null,,,<p></p>,null,,,,,,,,,,,,,
,do_trial,177,672761,0.0-99.0-0.0,1443.4000000953674,,,,,,51,0,0,1,1,forest,46,0.1710854353237628,0.17402316457691835,0.7546333973810364,1,learn,,
,html-keyboard-response,178,673764,0.0-99.0-1.0,null,,,<p></p>,null,,,,,,,,,,,,,
,do_trial,179,676791,0.0-100.0-0.0,520.3999998569489,,,,,,51,1,0,1,1,forest,47,0.2528331533359709,0.05507958446376195,0.707809100733039,1,learn,,
,html-keyboard-response,180,677794,0.0-100.0-1.0,null,,,<p></p>,null,,,,,,,,,,,,,
,do_trial,181,680682,0.0-101.0-0.0,380.7000000476837,,,,,,51,0,0,1,1,forest,48,0.19821575212471382,0.08435137479019696,0.632714961129441,1,learn,,
,html-keyboard-response,182,681684,0.0-101.0-1.0,null,,,<p></p>,null,,,,,,,,,,,,,
,do_trial,183,684801,0.0-102.0-0.0,610.7999999523163,,,,,,51,1,0,1,1,forest,49,0.2670291144551914,0.1445234086302913,0.5793818367921724,1,learn,,
,html-keyboard-response,184,685803,0.0-102.0-1.0,null,,,<p></p>,null,,,,,,,,,,,,,
,do_trial,185,688761,0.0-103.0-0.0,451.90000009536743,,,,,,51,1,0,1,1,forest,50,0.19553582907773448,0.2807522321095237,0.5698762144392536,1,learn,,
,html-keyboard-response,186,689763,0.0-103.0-1.0,null,,,<p></p>,null,,,,,,,,,,,,,
,do_trial,187,692650,0.0-104.0-0.0,378.90000009536743,,,,,,51,0,0,1,1,forest,51,0.2113651955827706,0.21413748577749253,0.6845640477633075,1,learn,,
,html-keyboard-response,188,693652,0.0-104.0-1.0,null,,,<p></p>,null,,,,,,,,,,,,,
,do_trial,189,696578,0.0-105.0-0.0,418.7000000476837,,,,,,51,0,0,1,1,forest,52,0.23646499077871933,0.09232508072018751,0.6333532542003517,1,learn,,
,html-keyboard-response,190,697580,0.0-105.0-1.0,null,,,<p></p>,null,,,,,,,,,,,,,
,do_trial,191,700442,0.0-106.0-0.0,355,,,,,,51,0,0,0,1,forest,53,0.2659108162023454,0.05441379590781918,0.773480133596242,0,learn,,
,html-keyboard-response,192,701459,0.0-106.0-1.0,null,,,<p></p>,null,,,,,,,,,,,,,
,do_trial,193,704474,0.0-107.0-0.0,507.7999999523163,,,,,,51,1,0,0,1,forest,54,0.363552433333283,0.10441760344484503,0.7418973551610745,0,learn,,
,html-keyboard-response,194,705476,0.0-107.0-1.0,null,,,<p></p>,null,,,,,,,,,,,,,
,do_trial,195,708360,0.0-108.0-0.0,377.7000000476837,,,,,,50,1,0,1,1,forest,55,0.3054765776447575,0.1458060798607591,0.7641652845378653,0,learn,,
,html-keyboard-response,196,709362,0.0-108.0-1.0,null,,,<p></p>,null,,,,,,,,,,,,,
,do_trial,197,712185,0.0-109.0-0.0,315.59999990463257,,,,,,50,1,1,0,1,forest,56,0.44418195791370174,0.2602965566694072,0.877588142200095,1,learn,,
,html-keyboard-response,198,713187,0.0-109.0-1.0,null,,,<p></p>,null,,,,,,,,,,,,,
,do_trial,199,716136,0.0-110.0-0.0,442.39999985694885,,,,,,50,0,0,1,1,forest,57,0.22255094231268305,0.10626753854843968,0.5933879378238991,0,learn,,
,html-keyboard-response,200,717138,0.0-110.0-1.0,null,,,<p></p>,null,,,,,,,,,,,,,
,do_trial,201,720033,0.0-111.0-0.0,387.7000000476837,,,,,,50,0,0,0,1,forest,58,0.17725684263417782,0.13617863757547136,0.5954481315372764,0,learn,,
,html-keyboard-response,202,721036,0.0-111.0-1.0,null,,,<p></p>,null,,,,,,,,,,,,,
,do_trial,203,725657,0.0-112.0-0.0,2115,,,,,,51,0,0,1,1,forest,59,0.2614538685844774,0.21851430118220141,0.5293334886381788,1,learn,,
,html-keyboard-response,204,726659,0.0-112.0-1.0,null,,,<p></p>,null,,,,,,,,,,,,,
,do_trial,205,729553,0.0-113.0-0.0,387.09999990463257,,,,,,51,0,0,1,1,forest,60,0.2382368363803705,0.13687677238616963,0.5011327701145946,1,learn,,
,html-keyboard-response,206,730556,0.0-113.0-1.0,null,,,<p></p>,null,,,,,,,,,,,,,
,do_trial,207,733505,0.0-114.0-0.0,442.69999980926514,,,,,,51,0,0,1,1,forest,61,0.3774475038629147,0.14601632193507194,0.5501012127861504,1,learn,,
,html-keyboard-response,208,734506,0.0-114.0-1.0,null,,,<p></p>,null,,,,,,,,,,,,,
,do_trial,209,737575,0.0-115.0-0.0,565.8999998569489,,,,,,51,0,0,0,1,forest,62,0.279027417782556,0.1016525609343427,0.5511153859023166,0,learn,,
,html-keyboard-response,210,738577,0.0-115.0-1.0,null,,,<p></p>,null,,,,,,,,,,,,,
,do_trial,211,741450,0.0-116.0-0.0,365.30000019073486,,,,,,51,0,0,0,1,forest,63,0.11595235573724694,0.08601715401415926,0.6156272239415896,0,learn,,
,html-keyboard-response,212,742452,0.0-116.0-1.0,null,,,<p></p>,null,,,,,,,,,,,,,
,do_trial,213,745569,0.0-117.0-0.0,610.1000001430511,,,,,,49,0,0,1,1,forest,64,0.1914827564554144,0.07504401741819348,0.5399679620707459,0,learn,,
,html-keyboard-response,214,746572,0.0-117.0-1.0,null,,,<p></p>,null,,,,,,,,,,,,,
,do_trial,215,749554,0.0-118.0-0.0,477.7999999523163,,,,,,49,1,1,0,1,forest,65,0.22707077785870802,0.173925261113,0.5568296471900477,1,learn,,
,html-keyboard-response,216,750556,0.0-118.0-1.0,null,,,<p></p>,null,,,,,,,,,,,,,
,do_trial,217,753601,0.0-119.0-0.0,537.7000000476837,,,,,,49,1,0,1,1,forest,66,0.2800076336738452,0.20610421275477042,0.5234641768927765,1,learn,,
,html-keyboard-response,218,754603,0.0-119.0-1.0,null,,,<p></p>,null,,,,,,,,,,,,,
,do_trial,219,757593,0.0-120.0-0.0,485.09999990463257,,,,,,49,1,0,0,1,forest,67,0.37642256285896014,0.1145238147877486,0.8061320106389357,1,learn,,
,html-keyboard-response,220,758595,0.0-120.0-1.0,null,,,<p></p>,null,,,,,,,,,,,,,
,do_trial,221,761593,0.0-121.0-0.0,490.7000000476837,,,,,,49,0,0,1,1,forest,68,0.4069311132779164,0.11752162034116506,0.8493829899241725,0,learn,,
,html-keyboard-response,222,762596,0.0-121.0-1.0,null,,,<p></p>,null,,,,,,,,,,,,,
,do_trial,223,766135,0.0-122.0-0.0,1032.7999999523163,,,,,,49,0,0,0,1,forest,69,0.3991098312477911,0.09412983829369824,0.7537523846017209,0,learn,,
,html-keyboard-response,224,767137,0.0-122.0-1.0,null,,,<p></p>,null,,,,,,,,,,,,,
,do_bye,225,768646,0.0-123.0-0.0,null,,,,,,null,,,,,,,,,,,
,do_travel,226,777651,0.0-124.0-0.0,null,,,,,,null,,,,,,,,,,,
,do_welcome,227,781676,0.0-124.0-1.0,null,,,,,,null,,,,,,,,,,,
,do_trial,228,784711,0.0-125.0-0.0,525.1000001430511,,,,,,49,0,0,1,2,coast,70,0.21780800412807735,0.057067301440271896,1,0,learn,,
,html-keyboard-response,229,785715,0.0-125.0-1.0,null,,,<p></p>,null,,,,,,,,,,,,,
,do_trial,230,788513,0.0-126.0-0.0,290.89999985694885,,,,,,49,0,0,1,2,coast,71,0.17037412483967282,0.07372538174025124,1,0,learn,,
,html-keyboard-response,231,789516,0.0-126.0-1.0,null,,,<p></p>,null,,,,,,,,,,,,,
,do_trial,232,792368,0.0-127.0-0.0,345.7999999523163,,,,,,50,1,0,1,2,coast,72,0.3374703691482084,0.10515861487198018,0.9054337155122647,0,learn,,
,html-keyboard-response,233,793377,0.0-127.0-1.0,null,,,<p></p>,null,,,,,,,,,,,,,
,do_trial,234,796160,0.0-128.0-0.0,275.89999985694885,,,,,,50,0,0,1,2,coast,73,0.3084695575493842,0.18527119777535855,0.7155607855012791,0,learn,,
,html-keyboard-response,235,797162,0.0-128.0-1.0,null,,,<p></p>,null,,,,,,,,,,,,,
,do_trial,236,800017,0.0-129.0-0.0,347.7000000476837,,,,,,51,1,0,1,2,coast,74,0.3970291736956624,0.16867740824567032,0.7195963765734339,1,learn,,
,html-keyboard-response,237,801024,0.0-129.0-1.0,null,,,<p></p>,null,,,,,,,,,,,,,
,do_trial,238,803936,0.0-130.0-0.0,407.60000014305115,,,,,,51,1,0,1,2,coast,75,0.323503932107499,0.06625285658939338,0.6915618282278339,1,learn,,
,html-keyboard-response,239,804938,0.0-130.0-1.0,null,,,<p></p>,null,,,,,,,,,,,,,
,do_trial,240,808098,0.0-131.0-0.0,652,,,,,,51,0,0,0,2,coast,76,0.34506847554483366,0.13748602655513387,0.6114113088126346,0,learn,,
,html-keyboard-response,241,809099,0.0-131.0-1.0,null,,,<p></p>,null,,,,,,,,,,,,,
,do_trial,242,811762,0.0-132.0-0.0,155.89999985694885,,,,,,51,1,1,1,2,coast,77,0.38583504774886507,0.11644370602121754,0.43194598467508316,1,learn,,
,html-keyboard-response,243,812764,0.0-132.0-1.0,null,,,<p></p>,null,,,,,,,,,,,,,
,do_trial,244,815745,0.0-133.0-0.0,473.90000009536743,,,,,,51,0,0,0,2,coast,78,0.340616743893977,0.14436976096750756,0.6625263616911115,0,learn,,
,html-keyboard-response,245,816747,0.0-133.0-1.0,null,,,<p></p>,null,,,,,,,,,,,,,
,do_trial,246,819601,0.0-134.0-0.0,347.09999990463257,,,,,,51,1,0,1,2,coast,79,0.4469552918098156,0.22648699647366222,0.6680696230111604,1,learn,,
,html-keyboard-response,247,820604,0.0-134.0-1.0,null,,,<p></p>,null,,,,,,,,,,,,,
,do_trial,248,823545,0.0-135.0-0.0,434.5,,,,,,51,1,1,0,2,coast,80,0.47027817731200033,0.24787415891331624,0.6491740101043246,0,learn,,
,html-keyboard-response,249,824546,0.0-135.0-1.0,null,,,<p></p>,null,,,,,,,,,,,,,
,do_trial,250,827512,0.0-136.0-0.0,462.40000009536743,,,,,,51,0,0,1,2,coast,81,0.5949837211601494,0.27875845696225554,0.4860692512180769,1,learn,,
,html-keyboard-response,251,828514,0.0-136.0-1.0,null,,,<p></p>,null,,,,,,,,,,,,,
,do_trial,252,831666,0.0-137.0-0.0,646.0999999046326,,,,,,51,0,0,1,2,coast,82,0.6482186321512441,0.2440528301531601,0.5716767729755301,1,learn,,
,html-keyboard-response,253,832668,0.0-137.0-1.0,null,,,<p></p>,null,,,,,,,,,,,,,
,do_trial,254,835537,0.0-138.0-0.0,362,,,,,,51,1,0,1,2,coast,83,0.728653285898252,0.114943954843542,0.535140474068959,1,learn,,
,html-keyboard-response,255,836540,0.0-138.0-1.0,null,,,<p></p>,null,,,,,,,,,,,,,
,do_trial,256,839448,0.0-139.0-0.0,401.39999985694885,,,,,,51,1,0,0,2,coast,84,0.7358323071113665,0.19484801465823387,0.48884708353622525,0,learn,,
,html-keyboard-response,257,840450,0.0-139.0-1.0,null,,,<p></p>,null,,,,,,,,,,,,,
,do_trial,258,843298,0.0-140.0-0.0,340.09999990463257,,,,,,51,1,0,1,2,coast,85,0.599374371865281,0.24802773217079765,0.4394722442076957,1,learn,,
,html-keyboard-response,259,844300,0.0-140.0-1.0,null,,,<p></p>,null,,,,,,,,,,,,,
,do_trial,260,847489,0.0-141.0-0.0,681.8999998569489,,,,,,51,1,0,1,2,coast,86,0.43275164240350145,0.2334163505847786,0.4506636487230093,1,learn,,
,html-keyboard-response,261,848491,0.0-141.0-1.0,null,,,<p></p>,null,,,,,,,,,,,,,
,do_trial,262,851480,0.0-142.0-0.0,482.2000000476837,,,,,,51,1,0,0,2,coast,87,0.588910830144602,0.14449058066977155,0.4327083527834431,0,learn,,
,html-keyboard-response,263,852483,0.0-142.0-1.0,null,,,<p></p>,null,,,,,,,,,,,,,
,do_trial,264,855289,0.0-143.0-0.0,298.7999999523163,,,,,,51,1,0,1,2,coast,88,0.6245274824706583,0.25859754155651976,0.48343096532795476,1,learn,,
,html-keyboard-response,265,856291,0.0-143.0-1.0,null,,,<p></p>,null,,,,,,,,,,,,,
,do_trial,266,859128,0.0-144.0-0.0,330.90000009536743,,,,,,51,0,0,0,2,coast,89,0.5647252420236467,0.13565469088799612,0.40542519129374305,0,learn,,
,html-keyboard-response,267,860130,0.0-144.0-1.0,null,,,<p></p>,null,,,,,,,,,,,,,
,do_trial,268,862905,0.0-145.0-0.0,267.5,,,,,,51,0,0,0,2,coast,90,0.6368772156120671,0.12665687219659358,0.3843740921364004,0,learn,,
,html-keyboard-response,269,863907,0.0-145.0-1.0,null,,,<p></p>,null,,,,,,,,,,,,,
,do_trial,270,866921,0.0-146.0-0.0,507,,,,,,50,0,0,0,2,coast,91,0.5380532110693376,0.12062866596648864,0.2752346474208231,0,learn,,
,html-keyboard-response,271,867923,0.0-146.0-1.0,null,,,<p></p>,null,,,,,,,,,,,,,
,do_trial,272,870833,0.0-147.0-0.0,402.69999980926514,,,,,,50,1,0,1,2,coast,92,0.5599251489917763,0.1789514374843764,0.35958632103976373,0,learn,,
,html-keyboard-response,273,871835,0.0-147.0-1.0,null,,,<p></p>,null,,,,,,,,,,,,,
,do_trial,274,874692,0.0-148.0-0.0,338.90000009536743,,,,,,49,1,0,1,2,coast,93,0.5690739008115897,0.13801035372433393,0.32419891625985464,1,learn,,
,html-keyboard-response,275,875695,0.0-148.0-1.0,null,,,<p></p>,null,,,,,,,,,,,,,
,do_trial,276,878609,0.0-149.0-0.0,407.10000014305115,,,,,,49,1,1,0,2,coast,94,0.6217946709466656,0.11027853977156941,0.22932828285066995,1,learn,,
,html-keyboard-response,277,879611,0.0-149.0-1.0,null,,,<p></p>,null,,,,,,,,,,,,,
,do_trial,278,882512,0.0-150.0-0.0,394,,,,,,49,0,0,0,2,coast,95,0.5398223101495355,0.16355583638668109,0.21991962397928752,0,learn,,
,html-keyboard-response,279,883514,0.0-150.0-1.0,null,,,<p></p>,null,,,,,,,,,,,,,
,do_trial,280,886360,0.0-151.0-0.0,339.10000014305115,,,,,,49,1,1,0,2,coast,96,0.5737711949235753,0.2071179412884187,0.29278114292222557,1,learn,,
,html-keyboard-response,281,887363,0.0-151.0-1.0,null,,,<p></p>,null,,,,,,,,,,,,,
,do_trial,282,890168,0.0-152.0-0.0,299,,,,,,49,1,0,1,2,coast,97,0.5297861978756712,0.19100153401278153,0.3105318348651993,1,learn,,
,html-keyboard-response,283,891171,0.0-152.0-1.0,null,,,<p></p>,null,,,,,,,,,,,,,
,do_trial,284,893952,0.0-153.0-0.0,273.30000019073486,,,,,,49,0,0,0,2,coast,98,0.4175242350287549,0.1348897800563386,0.35890456109029184,0,learn,,
,html-keyboard-response,285,894953,0.0-153.0-1.0,null,,,<p></p>,null,,,,,,,,,,,,,
,do_trial,286,897736,0.0-154.0-0.0,276,,,,,,49,0,0,0,2,coast,99,0.5545964513848726,0.12921171678919538,0.290344286739577,0,learn,,
,html-keyboard-response,287,898738,0.0-154.0-1.0,null,,,<p></p>,null,,,,,,,,,,,,,
,do_trial,288,902833,0.0-155.0-0.0,1588.0999999046326,,,,,,51,1,0,0,2,coast,100,0.5628628643255906,0.0644529279849452,0.2425539217159361,0,learn,,
,html-keyboard-response,289,903835,0.0-155.0-1.0,null,,,<p></p>,null,,,,,,,,,,,,,
,do_trial,290,906728,0.0-156.0-0.0,386.40000009536743,,,,,,51,1,1,1,2,coast,101,0.5257663657595105,0.19204797086732284,0.1710347455995985,1,learn,,
,html-keyboard-response,291,907731,0.0-156.0-1.0,null,,,<p></p>,null,,,,,,,,,,,,,
,do_trial,292,910626,0.0-157.0-0.0,387.60000014305115,,,,,,51,1,0,0,2,coast,102,0.4762352191951169,0.053600497437685454,0.16675438782897395,0,learn,,
,html-keyboard-response,293,911628,0.0-157.0-1.0,null,,,<p></p>,null,,,,,,,,,,,,,
,do_trial,294,914534,0.0-158.0-0.0,385.2999999523163,,,,,,51,0,0,0,2,coast,103,0.6486226511370691,0.07715512361812957,0.26357225103066656,0,learn,,
,html-keyboard-response,295,915535,0.0-158.0-1.0,null,,,<p></p>,null,,,,,,,,,,,,,
,do_trial,296,918520,0.0-159.0-0.0,477.59999990463257,,,,,,49,1,0,1,2,coast,104,0.6053854598641882,0.13905708189528296,0.291449905915982,1,learn,,
,html-keyboard-response,297,919521,0.0-159.0-1.0,null,,,<p></p>,null,,,,,,,,,,,,,
,do_trial,298,922352,0.0-160.0-0.0,323.7999999523163,,,,,,49,1,0,0,2,coast,105,0.6752581526640247,0.16859577511239487,0.26458247274149627,1,learn,,
,html-keyboard-response,299,923355,0.0-160.0-1.0,null,,,<p></p>,null,,,,,,,,,,,,,
,do_trial,300,926233,0.0-161.0-0.0,370.7000000476837,,,,,,49,1,0,0,2,coast,106,0.5307949835608732,0.15191917312298386,0.41592648240723995,1,learn,,
,html-keyboard-response,301,927235,0.0-161.0-1.0,null,,,<p></p>,null,,,,,,,,,,,,,
,do_trial,302,930032,0.0-162.0-0.0,290.7999999523163,,,,,,49,0,1,1,2,coast,107,0.6520888192115593,0.18127499332974484,0.33227758765586596,0,learn,,
,html-keyboard-response,303,931034,0.0-162.0-1.0,null,,,<p></p>,null,,,,,,,,,,,,,
,do_trial,304,933840,0.0-163.0-0.0,301.39999985694885,,,,,,49,0,0,1,2,coast,108,0.6342594752209919,0.06345066007292685,0.31588603114583236,0,learn,,
,html-keyboard-response,305,934857,0.0-163.0-1.0,null,,,<p></p>,null,,,,,,,,,,,,,
,do_trial,306,939272,0.0-164.0-0.0,1910.2000000476837,,,,,,50,1,0,0,2,coast,109,0.5579742280846445,0.15947150677217967,0.24492410657831065,0,learn,,
,html-keyboard-response,307,940274,0.0-164.0-1.0,null,,,<p></p>,null,,,,,,,,,,,,,
,do_bye,308,941785,0.0-165.0-0.0,null,,,,,,null,,,,,,,,,,,
,do_travel,309,950790,0.0-166.0-0.0,null,,,,,,null,,,,,,,,,,,
,do_welcome,310,954809,0.0-166.0-1.0,null,,,,,,null,,,,,,,,,,,
,do_trial,311,958761,0.0-167.0-0.0,1446.2999999523163,,,,,,49,1,1,0,3,countryside,110,1,0.06973196822107618,0.210000199923226,1,learn,,
,html-keyboard-response,312,959763,0.0-167.0-1.0,null,,,<p></p>,null,,,,,,,,,,,,,
,do_trial,313,963192,0.0-168.0-0.0,922.2999999523163,,,,,,49,1,0,1,3,countryside,111,1,0.09918524092454416,0.36025192418763424,1,learn,,
,html-keyboard-response,314,964195,0.0-168.0-1.0,null,,,<p></p>,null,,,,,,,,,,,,,
,do_trial,315,967007,0.0-169.0-0.0,305.2000000476837,,,,,,49,1,0,0,3,countryside,112,0.8529015553004031,0.18376174874254603,0.40932495536920926,1,learn,,
,html-keyboard-response,316,968009,0.0-169.0-1.0,null,,,<p></p>,null,,,,,,,,,,,,,
,do_trial,317,970808,0.0-170.0-0.0,292.80000019073486,,,,,,49,1,0,1,3,countryside,113,0.6768821660286685,0.27501147000592513,0.3750234246077321,1,learn,,
,html-keyboard-response,318,971810,0.0-170.0-1.0,null,,,<p></p>,null,,,,,,,,,,,,,
,do_trial,319,974567,0.0-171.0-0.0,250.79999995231628,,,,,,49,1,0,0,3,countryside,114,0.5857352566982723,0.34390555227805003,0.40810790577899997,1,learn,,
,html-keyboard-response,320,975569,0.0-171.0-1.0,null,,,<p></p>,null,,,,,,,,,,,,,
,do_trial,321,978385,0.0-172.0-0.0,308,,,,,,49,0,1,0,3,countryside,115,0.6141401450492193,0.13221986722687093,0.3086022426254267,0,learn,,
,html-keyboard-response,322,979388,0.0-172.0-1.0,null,,,<p></p>,null,,,,,,,,,,,,,
,do_trial,323,982200,0.0-173.0-0.0,305.5,,,,,,49,0,0,0,3,countryside,116,0.6766902773814978,0.08584921016534612,0.12292646930030789,0,learn,,
,html-keyboard-response,324,983202,0.0-173.0-1.0,null,,,<p></p>,null,,,,,,,,,,,,,
,do_trial,325,986088,0.0-174.0-0.0,381.2999999523163,,,,,,50,1,0,0,3,countryside,117,0.7584387127341632,0.0509408594839059,0.18186899476003482,0,learn,,
,html-keyboard-response,326,987090,0.0-174.0-1.0,null,,,<p></p>,null,,,,,,,,,,,,,
,do_trial,327,989967,0.0-175.0-0.0,374.89999985694885,,,,,,50,1,0,0,3,countryside,118,0.5496823135267526,0.21333246543722276,0.13069489994623598,0,learn,,
,html-keyboard-response,328,990969,0.0-175.0-1.0,null,,,<p></p>,null,,,,,,,,,,,,,
,do_trial,329,994000,0.0-176.0-0.0,524.9000000953674,,,,,,51,0,0,0,3,countryside,119,0.5277629465075435,0.12729645281185334,0.13589378038381014,0,learn,,
,html-keyboard-response,330,995003,0.0-176.0-1.0,null,,,<p></p>,null,,,,,,,,,,,,,
,do_trial,331,997792,0.0-177.0-0.0,281.7999999523163,,,,,,51,0,0,0,3,countryside,120,0.42978678095618866,0.2101073821040617,0.08228476292622769,0,learn,,
,html-keyboard-response,332,998795,0.0-177.0-1.0,null,,,<p></p>,null,,,,,,,,,,,,,
,do_trial,333,1001737,0.0-178.0-0.0,434.80000019073486,,,,,,49,0,0,0,3,countryside,121,0.3096051596348383,0.22020811013169733,0.20597540370465267,0,learn,,
,html-keyboard-response,334,1002739,0.0-178.0-1.0,null,,,<p></p>,null,,,,,,,,,,,,,
,do_trial,335,1005528,0.0-179.0-0.0,283.2000000476837,,,,,,49,0,0,0,3,countryside,122,0.17155786916555596,0.25550243381762405,0.3846572373153455,0,learn,,
,html-keyboard-response,336,1006529,0.0-179.0-1.0,null,,,<p></p>,null,,,,,,,,,,,,,
,do_trial,337,1010014,0.0-180.0-0.0,977.7999999523163,,,,,,50,0,0,0,3,countryside,123,0.10300063760524403,0.3502636593078495,0.5042756239034588,0,learn,,
,html-keyboard-response,338,1011016,0.0-180.0-1.0,null,,,<p></p>,null,,,,,,,,,,,,,
,do_trial,339,1013744,0.0-181.0-0.0,220.20000004768372,,,,,,50,0,0,0,3,countryside,124,0.07433766230398735,0.18165991017730612,0.4866363590141256,0,learn,,
,html-keyboard-response,340,1014747,0.0-181.0-1.0,null,,,<p></p>,null,,,,,,,,,,,,,
,do_trial,341,1017501,0.0-182.0-0.0,247.5,,,,,,51,0,0,0,3,countryside,125,0.15660321335984465,0.2080067429924773,0.4462378827556485,0,learn,,
,html-keyboard-response,342,1018503,0.0-182.0-1.0,null,,,<p></p>,null,,,,,,,,,,,,,
,do_trial,343,1021335,0.0-183.0-0.0,317.7999999523163,,,,,,51,0,1,0,3,countryside,126,0.15772132038306227,0.31313169790259443,0.3427782530543523,0,learn,,
,html-keyboard-response,344,1022336,0.0-183.0-1.0,null,,,<p></p>,null,,,,,,,,,,,,,
,do_trial,345,1025184,0.0-184.0-0.0,340.5,,,,,,49,0,0,0,3,countryside,127,0.23263338764971078,0.20706792551033257,0.3572040422175764,0,learn,,
,html-keyboard-response,346,1026186,0.0-184.0-1.0,null,,,<p></p>,null,,,,,,,,,,,,,
,do_trial,347,1029031,0.0-185.0-0.0,338.7999999523163,,,,,,49,0,0,1,3,countryside,128,0.2734630602159919,0.24178772523272646,0.5106994264302591,0,learn,,
,html-keyboard-response,348,1030034,0.0-185.0-1.0,null,,,<p></p>,null,,,,,,,,,,,,,
,do_trial,349,1032831,0.0-186.0-0.0,289.90000009536743,,,,,,50,0,0,1,3,countryside,129,0.303114066645914,0.15940686775311805,0.4872283256268804,0,learn,,
,html-keyboard-response,350,1033834,0.0-186.0-1.0,null,,,<p></p>,null,,,,,,,,,,,,,
,do_trial,351,1036630,0.0-187.0-0.0,291.2000000476837,,,,,,50,0,0,0,3,countryside,130,0.31691415269840173,0.16631469052728837,0.5257334825170251,0,learn,,
,html-keyboard-response,352,1037631,0.0-187.0-1.0,null,,,<p></p>,null,,,,,,,,,,,,,
,do_trial,353,1041064,0.0-188.0-0.0,926.3999998569489,,,,,,51,0,0,1,3,countryside,131,0.15798877591926436,0.2531811015754561,0.5559661064690694,1,learn,,
,html-keyboard-response,354,1042066,0.0-188.0-1.0,null,,,<p></p>,null,,,,,,,,,,,,,
,do_trial,355,1044888,0.0-189.0-0.0,314.59999990463257,,,,,,51,0,1,1,3,countryside,132,0.18440247787986663,0.20315771568292185,0.6096693490090312,1,learn,,
,html-keyboard-response,356,1045890,0.0-189.0-1.0,null,,,<p></p>,null,,,,,,,,,,,,,
,do_trial,357,1048785,0.0-190.0-0.0,387.39999985694885,,,,,,51,1,0,0,3,countryside,133,0.2609033516515657,0.20820014599033584,0.6061844682163468,0,learn,,
,html-keyboard-response,358,1049787,0.0-190.0-1.0,null,,,<p></p>,null,,,,,,,,,,,,,
,do_trial,359,1052588,0.0-191.0-0.0,293.7000000476837,,,,,,51,0,0,1,3,countryside,134,0.21586252995311242,0.309308737161113,0.48833962883522675,1,learn,,
,html-keyboard-response,360,1053591,0.0-191.0-1.0,null,,,<p></p>,null,,,,,,,,,,,,,
,do_trial,361,1056417,0.0-192.0-0.0,317.90000009536743,,,,,,51,0,1,0,3,countryside,135,0.074380671507252,0.3543156102816973,0.385420966065404,0,learn,,
,html-keyboard-response,362,1057419,0.0-192.0-1.0,null,,,<p></p>,null,,,,,,,,,,,,,
,do_trial,363,1060201,0.0-193.0-0.0,273.7999999523163,,,,,,51,0,1,0,3,countryside,136,0.19629230990306823,0.2526360634067098,0.3387753246523833,0,learn,,
,html-keyboard-response,364,1061203,0.0-193.0-1.0,null,,,<p></p>,null,,,,,,,,,,,,,
,do_trial,365,1064192,0.0-194.0-0.0,483,,,,,,49,0,0,0,3,countryside,137,0.05286693402773571,0.2420847818668271,0.4325883991022306,0,learn,,
,html-keyboard-response,366,1065195,0.0-194.0-1.0,null,,,<p></p>,null,,,,,,,,,,,,,
,do_trial,367,1068025,0.0-195.0-0.0,322.5,,,,,,49,0,0,1,3,countryside,138,0.08703716248961271,0.20802024504216693,0.35453625148302725,0,learn,,
,html-keyboard-response,368,1069027,0.0-195.0-1.0,null,,,<p></p>,null,,,,,,,,,,,,,
,do_trial,369,1071975,0.0-196.0-0.0,441.2999999523163,,,,,,49,0,0,0,3,countryside,139,0.13756017804818413,0.2242795637131338,0.32866222826673297,0,learn,,
,html-keyboard-response,370,1072977,0.0-196.0-1.0,null,,,<p></p>,null,,,,,,,,,,,,,
,do_trial,371,1075808,0.0-197.0-0.0,323.60000014305115,,,,,,50,0,0,0,3,countryside,140,0.23383272457079063,0.26436549158273914,0.49462397491999943,0,learn,,
,html-keyboard-response,372,1076821,0.0-197.0-1.0,null,,,<p></p>,null,,,,,,,,,,,,,
,do_trial,373,1080558,0.0-198.0-0.0,1232,,,,,,50,0,0,1,3,countryside,141,0.14006475906201613,0.3962155269905081,0.5462571526498557,0,learn,,
,html-keyboard-response,374,1081560,0.0-198.0-1.0,null,,,<p></p>,null,,,,,,,,,,,,,
,do_trial,375,1085112,0.0-199.0-0.0,1045.5,,,,,,51,0,0,1,3,countryside,142,0.11777623291223707,0.5054880131158864,0.5068914069068097,1,learn,,
,html-keyboard-response,376,1086114,0.0-199.0-1.0,null,,,<p></p>,null,,,,,,,,,,,,,
,do_trial,377,1089095,0.0-200.0-0.0,475.19999980926514,,,,,,51,0,1,0,3,countryside,143,0.09775473684344022,0.29259362773735537,0.5156658356296828,0,learn,,
,html-keyboard-response,378,1090098,0.0-200.0-1.0,null,,,<p></p>,null,,,,,,,,,,,,,
,do_trial,379,1094248,0.0-201.0-0.0,1643.0999999046326,,,,,,51,0,0,1,3,countryside,144,0.11803401298724867,0.21653045894137815,0.6023334257981183,1,learn,,
,html-keyboard-response,380,1095249,0.0-201.0-1.0,null,,,<p></p>,null,,,,,,,,,,,,,
,do_trial,381,1098071,0.0-202.0-0.0,319.89999985694885,,,,,,51,0,0,0,3,countryside,145,0.11368193395301322,0.241719929815681,0.6352150254141894,0,learn,,
,html-keyboard-response,382,1099073,0.0-202.0-1.0,null,,,<p></p>,null,,,,,,,,,,,,,
,do_trial,383,1101914,0.0-203.0-0.0,332.5,,,,,,51,0,1,1,3,countryside,146,0.06243626696268168,0.29292278686763734,0.6327791625043385,1,learn,,
,html-keyboard-response,384,1102917,0.0-203.0-1.0,null,,,<p></p>,null,,,,,,,,,,,,,
,do_trial,385,1105840,0.0-204.0-0.0,416,,,,,,51,0,0,1,3,countryside,147,0.13361692443091908,0.29855430671361677,0.7871230150559186,1,learn,,
,html-keyboard-response,386,1106842,0.0-204.0-1.0,null,,,<p></p>,null,,,,,,,,,,,,,
,do_trial,387,1109646,0.0-205.0-0.0,296.7999999523163,,,,,,51,0,0,1,3,countryside,148,0.05765576555912971,0.23338253680269852,0.8994934368540431,1,learn,,
,html-keyboard-response,388,1110649,0.0-205.0-1.0,null,,,<p></p>,null,,,,,,,,,,,,,
,do_trial,389,1113793,0.0-206.0-0.0,636.3999998569489,,,,,,51,0,0,1,3,countryside,149,0.147078235200124,0.2916236654235779,0.8624025646669048,1,learn,,
,html-keyboard-response,390,1114795,0.0-206.0-1.0,null,,,<p></p>,null,,,,,,,,,,,,,
,do_bye,391,1116303,0.0-207.0-0.0,null,,,,,,null,,,,,,,,,,,
,do_travel,392,1125308,0.0-208.0-0.0,null,,,,,,null,,,,,,,,,,,
,do_welcome,393,1129332,0.0-208.0-1.0,null,,,,,,null,,,,,,,,,,,
,do_trial,394,1135340,0.0-209.0-0.0,null,,,,,,null,0,0,1,4,mountain,150,0.23916335096824454,0.3490771149221548,1,,learn,,
,html-keyboard-response,395,1136343,0.0-209.0-1.0,null,,,<p></p>,null,,,,,,,,,,,,,
,do_trial,396,1139240,0.0-210.0-0.0,389.5,,,,,,49,0,0,1,4,mountain,151,0.32983550744378504,0.2576676134680623,1,0,learn,,
,html-keyboard-response,397,1140242,0.0-210.0-1.0,null,,,<p></p>,null,,,,,,,,,,,,,
,do_trial,398,1143112,0.0-211.0-0.0,362.60000014305115,,,,,,49,0,1,0,4,mountain,152,0.29292024341393796,0.4156852492496014,0.7633203188597634,0,learn,,
,html-keyboard-response,399,1144114,0.0-211.0-1.0,null,,,<p></p>,null,,,,,,,,,,,,,
,do_trial,400,1146870,0.0-212.0-0.0,248.39999985694885,,,,,,50,0,0,1,4,mountain,153,0.2679590715940532,0.24551772282061757,0.5854374089842498,0,learn,,
,html-keyboard-response,401,1147872,0.0-212.0-1.0,null,,,<p></p>,null,,,,,,,,,,,,,
,do_trial,402,1150656,0.0-213.0-0.0,277.59999990463257,,,,,,50,0,1,0,4,mountain,154,0.14399426611638283,0.43928272361410886,0.5101419787194569,1,learn,,
,html-keyboard-response,403,1151658,0.0-213.0-1.0,null,,,<p></p>,null,,,,,,,,,,,,,
,do_trial,404,1154504,0.0-214.0-0.0,331.7999999523163,,,,,,50,0,0,1,4,mountain,155,0.05243544731749033,0.4291364723454425,0.5521669736083472,0,learn,,
,html-keyboard-response,405,1155507,0.0-214.0-1.0,null,,,<p></p>,null,,,,,,,,,,,,,
,do_trial,406,1158240,0.0-215.0-0.0,225.79999995231628,,,,,,50,1,1,1,4,mountain,156,0.1955082076129385,0.48128780526615283,0.5101593878173815,1,learn,,
,html-keyboard-response,407,1159242,0.0-215.0-1.0,null,,,<p></p>,null,,,,,,,,,,,,,
,do_trial,408,1162167,0.0-216.0-0.0,418.80000019073486,,,,,,50,0,1,1,4,mountain,157,0.07746552948803108,0.48937278390792627,0.6126711643055482,1,learn,,
,html-keyboard-response,409,1163169,0.0-216.0-1.0,null,,,<p></p>,null,,,,,,,,,,,,,
,do_trial,410,1166016,0.0-217.0-0.0,338.90000009536743,,,,,,50,0,0,1,4,mountain,158,0.1375188152175856,0.22978959946728472,0.676305094910452,0,learn,,
,html-keyboard-response,411,1167019,0.0-217.0-1.0,null,,,<p></p>,null,,,,,,,,,,,,,
,do_trial,412,1169864,0.0-218.0-0.0,337.39999985694885,,,,,,50,0,0,1,4,mountain,159,0.14587949945874015,0.23047588394177193,0.68441423679847,0,learn,,
,html-keyboard-response,413,1170866,0.0-218.0-1.0,null,,,<p></p>,null,,,,,,,,,,,,,
,do_trial,414,1173690,0.0-219.0-0.0,315.39999985694885,,,,,,51,0,0,1,4,mountain,160,0.11525428896337012,0.05899981700407786,0.7504634168641066,1,learn,,
,html-keyboard-response,415,1174693,0.0-219.0-1.0,null,,,<p></p>,null,,,,,,,,,,,,,
,do_trial,416,1177536,0.0-220.0-0.0,338,,,,,,51,0,0,1,4,mountain,161,0.09256610858316534,0.12660302828245082,0.6832242032561529,1,learn,,
,html-keyboard-response,417,1178538,0.0-220.0-1.0,null,,,<p></p>,null,,,,,,,,,,,,,
,do_trial,418,1181607,0.0-221.0-0.0,563.3999998569489,,,,,,51,0,0,0,4,mountain,162,0.3033665845749826,0.08149119372643104,0.46724871427796416,0,learn,,
,html-keyboard-response,419,1182617,0.0-221.0-1.0,null,,,<p></p>,null,,,,,,,,,,,,,
,do_trial,420,1185432,0.0-222.0-0.0,308.09999990463257,,,,,,51,0,0,1,4,mountain,163,0.4350472131400686,0.056715147775309525,0.5111564964214351,1,learn,,
,html-keyboard-response,421,1186435,0.0-222.0-1.0,null,,,<p></p>,null,,,,,,,,,,,,,
,do_trial,422,1189326,0.0-223.0-0.0,384.09999990463257,,,,,,51,1,0,0,4,mountain,164,0.604126495598919,0.0845209209296729,0.38159185810368906,0,learn,,
,html-keyboard-response,423,1190328,0.0-223.0-1.0,null,,,<p></p>,null,,,,,,,,,,,,,
,do_trial,424,1193254,0.0-224.0-0.0,419.2000000476837,,,,,,51,0,0,0,4,mountain,165,0.6796281038274647,0.12652724621335662,0.3256378998263626,0,learn,,
,html-keyboard-response,425,1194256,0.0-224.0-1.0,null,,,<p></p>,null,,,,,,,,,,,,,
,do_trial,426,1197191,0.0-225.0-0.0,412.2000000476837,,,,,,49,1,0,0,4,mountain,166,0.7827383609437493,0.07177565658274952,0.23892270273457986,1,learn,,
,html-keyboard-response,427,1198193,0.0-225.0-1.0,null,,,<p></p>,null,,,,,,,,,,,,,
,do_trial,428,1200975,0.0-226.0-0.0,275.2000000476837,,,,,,49,1,0,0,4,mountain,167,0.7668118142404536,0.08535214242108743,0.2911193168162795,1,learn,,
,html-keyboard-response,429,1201977,0.0-226.0-1.0,null,,,<p></p>,null,,,,,,,,,,,,,
,do_trial,430,1204823,0.0-227.0-0.0,339.2999999523163,,,,,,49,1,0,1,4,mountain,168,0.531605918275163,0.10462251982536015,0.26102615769071613,1,learn,,
,html-keyboard-response,431,1205825,0.0-227.0-1.0,null,,,<p></p>,null,,,,,,,,,,,,,
,do_trial,432,1208639,0.0-228.0-0.0,309.2000000476837,,,,,,49,1,0,1,4,mountain,169,0.49183183224971533,0.2580092220704263,0.3716087908809297,1,learn,,
,html-keyboard-response,433,1209642,0.0-228.0-1.0,null,,,<p></p>,null,,,,,,,,,,,,,
,do_trial,434,1212552,0.0-229.0-0.0,402.2000000476837,,,,,,49,1,0,0,4,mountain,170,0.4951924513155331,0.18134022236884234,0.28194507414778974,1,learn,,
,html-keyboard-response,435,1213553,0.0-229.0-1.0,null,,,<p></p>,null,,,,,,,,,,,,,
,do_trial,436,1216327,0.0-230.0-0.0,266.7000000476837,,,,,,49,0,0,1,4,mountain,171,0.481350766809963,0.1135411007921841,0.36075250553396565,0,learn,,
,html-keyboard-response,437,1217330,0.0-230.0-1.0,null,,,<p></p>,null,,,,,,,,,,,,,
,do_trial,438,1220239,0.0-231.0-0.0,402.60000014305115,,,,,,49,0,0,1,4,mountain,172,0.36754678247675304,0.12179179154514641,0.3578351041528577,0,learn,,
,html-keyboard-response,439,1221253,0.0-231.0-1.0,null,,,<p></p>,null,,,,,,,,,,,,,
,do_trial,440,1224256,0.0-232.0-0.0,494.90000009536743,,,,,,49,1,0,0,4,mountain,173,0.5190597798960981,0.0847887756990794,0.23731550612431926,1,learn,,
,html-keyboard-response,441,1225257,0.0-232.0-1.0,null,,,<p></p>,null,,,,,,,,,,,,,
,do_trial,442,1228086,0.0-233.0-0.0,308.7000000476837,,,,,,49,1,0,0,4,mountain,174,0.5025051346499607,0.1014541764451446,0.2763814815104681,1,learn,,
,html-keyboard-response,443,1229088,0.0-233.0-1.0,null,,,<p></p>,null,,,,,,,,,,,,,
,do_trial,444,1231904,0.0-234.0-0.0,308,,,,,,49,1,0,0,4,mountain,175,0.6448327639091381,0.058396711471940387,0.24898564371068277,1,learn,,
,html-keyboard-response,445,1232906,0.0-234.0-1.0,null,,,<p></p>,null,,,,,,,,,,,,,
,do_trial,446,1235824,0.0-235.0-0.0,410.5,,,,,,49,0,0,0,4,mountain,176,0.6681636534196465,0.16923032394476184,0.24287039157278892,0,learn,,
,html-keyboard-response,447,1236840,0.0-235.0-1.0,null,,,<p></p>,null,,,,,,,,,,,,,
,do_trial,448,1239719,0.0-236.0-0.0,372.5,,,,,,49,1,0,0,4,mountain,177,0.6082499563760551,0.101718583152035,0.3092321682292773,1,learn,,
,html-keyboard-response,449,1240722,0.0-236.0-1.0,null,,,<p></p>,null,,,,,,,,,,,,,
,do_trial,450,1243743,0.0-237.0-0.0,506.69999980926514,,,,,,49,1,0,0,4,mountain,178,0.3631808650582889,0.0944877381192603,0.38450690477941535,1,learn,,
,html-keyboard-response,451,1244745,0.0-237.0-1.0,null,,,<p></p>,null,,,,,,,,,,,,,
,do_trial,452,1247695,0.0-238.0-0.0,443.7999999523163,,,,,,49,0,0,0,4,mountain,179,0.4397447232784051,0.0666982280740452,0.33536198289748875,0,learn,,
,html-keyboard-response,453,1248697,0.0-238.0-1.0,null,,,<p></p>,null,,,,,,,,,,,,,
,do_trial,454,1251503,0.0-239.0-0.0,298.60000014305115,,,,,,49,0,0,0,4,mountain,180,0.4611746646668331,0.06207278094447759,0.3956182685639432,0,learn,,
,html-keyboard-response,455,1252505,0.0-239.0-1.0,null,,,<p></p>,null,,,,,,,,,,,,,
,do_trial,456,1255238,0.0-240.0-0.0,226.5,,,,,,49,1,0,0,4,mountain,181,0.6099343600777309,0.08850098552204903,0.2984289630321594,1,learn,,
,html-keyboard-response,457,1256242,0.0-240.0-1.0,null,,,<p></p>,null,,,,,,,,,,,,,
,do_trial,458,1259119,0.0-241.0-0.0,370.30000019073486,,,,,,49,0,1,0,4,mountain,182,0.5610989194631134,0.11751239818975606,0.21736259066033156,0,learn,,
,html-keyboard-response,459,1260121,0.0-241.0-1.0,null,,,<p></p>,null,,,,,,,,,,,,,
,do_trial,460,1263079,0.0-242.0-0.0,450.90000009536743,,,,,,50,0,0,0,4,mountain,183,0.49547454075079045,0.13523780889049972,0.3759057755778204,0,learn,,
,html-keyboard-response,461,1264081,0.0-242.0-1.0,null,,,<p></p>,null,,,,,,,,,,,,,
,do_trial,462,1266904,0.0-243.0-0.0,315.30000019073486,,,,,,51,0,0,1,4,mountain,184,0.4021982071285219,0.1260540827201105,0.37771233908147767,1,learn,,
,html-keyboard-response,463,1267906,0.0-243.0-1.0,null,,,<p></p>,null,,,,,,,,,,,,,
,do_trial,464,1270766,0.0-244.0-0.0,352.60000014305115,,,,,,51,1,0,0,4,mountain,185,0.35739800309453,0.0839706088581692,0.2083263639329571,0,learn,,
,html-keyboard-response,465,1271769,0.0-244.0-1.0,null,,,<p></p>,null,,,,,,,,,,,,,
,do_trial,466,1274551,0.0-245.0-0.0,276.40000009536743,,,,,,51,0,0,0,4,mountain,186,0.3363236809546873,0.09992869405135228,0.13548958911081488,0,learn,,
,html-keyboard-response,467,1275553,0.0-245.0-1.0,null,,,<p></p>,null,,,,,,,,,,,,,
,do_trial,468,1278543,0.0-246.0-0.0,482.7999999523163,,,,,,51,1,0,0,4,mountain,187,0.4168216020937968,0.0927787395741526,0.2664556088154908,0,learn,,
,html-keyboard-response,469,1279545,0.0-246.0-1.0,null,,,<p></p>,null,,,,,,,,,,,,,
,do_trial,470,1282496,0.0-247.0-0.0,442.7999999523163,,,,,,49,1,0,0,4,mountain,188,0.4463122713818127,0.260230377163857,0.2937928747792513,1,learn,,
,html-keyboard-response,471,1283498,0.0-247.0-1.0,null,,,<p></p>,null,,,,,,,,,,,,,
,do_trial,472,1286310,0.0-248.0-0.0,305.2000000476837,,,,,,49,0,0,0,4,mountain,189,0.5331280578061083,0.19242551982495606,0.29386906304514254,0,learn,,
,html-keyboard-response,473,1287313,0.0-248.0-1.0,null,,,<p></p>,null,,,,,,,,,,,,,
,do_bye,474,1288821,0.0-249.0-0.0,null,,,,,,null,,,,,,,,,,,
,do_travel,475,1297826,0.0-250.0-0.0,null,,,,,,null,,,,,,,,,,,
,do_welcome,476,1301854,0.0-250.0-1.0,null,,,,,,null,,,,,,,,,,,
,do_trial,477,1306391,0.0-251.0-0.0,2033.2000000476837,,,,,,49,1,0,0,5,city,190,1,0.24196617152714184,0.2802080070516751,1,learn,,
,html-keyboard-response,478,1307393,0.0-251.0-1.0,null,,,<p></p>,null,,,,,,,,,,,,,
,do_trial,479,1310309,0.0-252.0-0.0,410.59999990463257,,,,,,49,1,1,0,5,city,191,1,0.1586246022592362,0.1611507250810932,1,learn,,
,html-keyboard-response,480,1311311,0.0-252.0-1.0,null,,,<p></p>,null,,,,,,,,,,,,,
,do_trial,481,1314086,0.0-253.0-0.0,267.2999999523163,,,,,,49,1,0,1,5,city,192,0.8189505363518439,0.07232885060270985,0.3694212658058254,1,learn,,
,html-keyboard-response,482,1315088,0.0-253.0-1.0,null,,,<p></p>,null,,,,,,,,,,,,,
,do_trial,483,1317975,0.0-254.0-0.0,382,,,,,,49,0,0,0,5,city,193,0.7255564685795186,0.3303261248553436,0.3332071975438394,0,learn,,
,html-keyboard-response,484,1318976,0.0-254.0-1.0,null,,,<p></p>,null,,,,,,,,,,,,,
,do_trial,485,1321969,0.0-255.0-0.0,485.40000009536743,,,,,,49,1,1,0,5,city,194,0.5322186891037545,0.3383991002457119,0.3771459206088336,1,learn,,
,html-keyboard-response,486,1322972,0.0-255.0-1.0,null,,,<p></p>,null,,,,,,,,,,,,,
,do_trial,487,1325856,0.0-256.0-0.0,379.7999999523163,,,,,,49,0,0,1,5,city,195,0.45408186526789673,0.2635538550618962,0.36617145042533805,0,learn,,
,html-keyboard-response,488,1326858,0.0-256.0-1.0,null,,,<p></p>,null,,,,,,,,,,,,,
,do_trial,489,1329419,0.0-257.0-0.0,50.10000014305115,,,,,,49,0,0,0,5,city,196,0.37158561208859314,0.2626168636318234,0.38502218072943684,0,learn,,
,html-keyboard-response,490,1330421,0.0-257.0-1.0,null,,,<p></p>,null,,,,,,,,,,,,,
,do_trial,491,1333222,0.0-258.0-0.0,295.60000014305115,,,,,,49,1,0,0,5,city,197,0.4060476074064967,0.13346946197587425,0.27830425242650536,1,learn,,
,html-keyboard-response,492,1334224,0.0-258.0-1.0,null,,,<p></p>,null,,,,,,,,,,,,,
,do_trial,493,1336997,0.0-259.0-0.0,269.2999999523163,,,,,,49,0,0,1,5,city,198,0.5561062024877104,0.05865636637994242,0.36391075537440176,0,learn,,
,html-keyboard-response,494,1337999,0.0-259.0-1.0,null,,,<p></p>,null,,,,,,,,,,,,,
,do_trial,495,1340736,0.0-260.0-0.0,229.20000004768372,,,,,,49,1,1,1,5,city,199,0.5508214792483316,0.25162479070065513,0.41625034124390153,1,learn,,
,html-keyboard-response,496,1341738,0.0-260.0-1.0,null,,,<p></p>,null,,,,,,,,,,,,,
,do_trial,497,1344446,0.0-261.0-0.0,201.59999990463257,,,,,,49,1,0,1,5,city,200,0.5114029070232097,0.2010610997192093,0.4372954446699896,1,learn,,
,html-keyboard-response,498,1345449,0.0-261.0-1.0,null,,,<p></p>,null,,,,,,,,,,,,,
,do_trial,499,1348239,0.0-262.0-0.0,283.09999990463257,,,,,,49,1,0,1,5,city,201,0.5001610374345142,0.29121035743769796,0.4275827177097502,1,learn,,
,html-keyboard-response,500,1349242,0.0-262.0-1.0,null,,,<p></p>,null,,,,,,,,,,,,,
,do_trial,501,1352455,0.0-263.0-0.0,706.2999999523163,,,,,,49,0,0,1,5,city,202,0.2702115905486193,0.3580215334064456,0.4826488063257089,0,learn,,
,html-keyboard-response,502,1353457,0.0-263.0-1.0,null,,,<p></p>,null,,,,,,,,,,,,,
,do_trial,503,1356304,0.0-264.0-0.0,340.2000000476837,,,,,,49,0,1,1,5,city,203,0.09192071050672236,0.36694104652527754,0.5917309059299242,0,learn,,
,html-keyboard-response,504,1357306,0.0-264.0-1.0,null,,,<p></p>,null,,,,,,,,,,,,,
,do_trial,505,1360335,0.0-265.0-0.0,520.5,,,,,,49,0,1,0,5,city,204,0.05720886769823858,0.360439373200998,0.7012202794121691,0,learn,,
,html-keyboard-response,506,1361338,0.0-265.0-1.0,null,,,<p></p>,null,,,,,,,,,,,,,
,do_trial,507,1364254,0.0-266.0-0.0,410.30000019073486,,,,,,50,0,0,0,5,city,205,0.09654214824035837,0.34183630650824726,0.5965373202847629,0,learn,,
,html-keyboard-response,508,1365257,0.0-266.0-1.0,null,,,<p></p>,null,,,,,,,,,,,,,
,do_trial,509,1368734,0.0-267.0-0.0,969.7999999523163,,,,,,51,0,0,0,5,city,206,0.20450348210164204,0.39644056839754066,0.6118823442239423,0,learn,,
,html-keyboard-response,510,1369736,0.0-267.0-1.0,null,,,<p></p>,null,,,,,,,,,,,,,
,do_trial,511,1372806,0.0-268.0-0.0,564,,,,,,50,0,0,1,5,city,207,0.1535085835109667,0.31875623629773553,0.6658539897609034,0,learn,,
,html-keyboard-response,512,1373809,0.0-268.0-1.0,null,,,<p></p>,null,,,,,,,,,,,,,
,do_trial,513,1376607,0.0-269.0-0.0,291.2999999523163,,,,,,51,0,1,0,5,city,208,0.09943941848259776,0.3876786510291234,0.6331662308286619,0,learn,,
,html-keyboard-response,514,1377609,0.0-269.0-1.0,null,,,<p></p>,null,,,,,,,,,,,,,
,do_trial,515,1380503,0.0-270.0-0.0,389.2999999523163,,,,,,49,0,0,1,5,city,209,0.1646341662055196,0.2678504735892379,0.6929576555830009,0,learn,,
,html-keyboard-response,516,1381506,0.0-270.0-1.0,null,,,<p></p>,null,,,,,,,,,,,,,
,do_trial,517,1384311,0.0-271.0-0.0,299.2999999523163,,,,,,49,0,1,1,5,city,210,0.15322153534369634,0.3346807766370396,0.640019315585889,0,learn,,
,html-keyboard-response,518,1385313,0.0-271.0-1.0,null,,,<p></p>,null,,,,,,,,,,,,,
,do_trial,519,1388534,0.0-272.0-0.0,714.1000001430511,,,,,,50,0,0,0,5,city,211,0.12260046076703955,0.36391089857165637,0.5934452937494826,0,learn,,
,html-keyboard-response,520,1389545,0.0-272.0-1.0,null,,,<p></p>,null,,,,,,,,,,,,,
,do_trial,521,1392406,0.0-273.0-0.0,353.89999985694885,,,,,,50,0,1,1,5,city,212,0.11963753014917904,0.35541206176948253,0.6692109404997649,1,learn,,
,html-keyboard-response,522,1393408,0.0-273.0-1.0,null,,,<p></p>,null,,,,,,,,,,,,,
,do_trial,523,1396158,0.0-274.0-0.0,243.5,,,,,,50,0,0,1,5,city,213,0.052541100356555195,0.2572821933420109,0.6887642150472344,0,learn,,
,html-keyboard-response,524,1397161,0.0-274.0-1.0,null,,,<p></p>,null,,,,,,,,,,,,,
,do_trial,525,1399950,0.0-275.0-0.0,282,,,,,,50,0,0,0,5,city,214,0.14567745029414136,0.254382687157281,0.6442653552206133,0,learn,,
,html-keyboard-response,526,1400953,0.0-275.0-1.0,null,,,<p></p>,null,,,,,,,,,,,,,
,do_trial,527,1403828,0.0-276.0-0.0,368.7999999523163,,,,,,51,0,0,1,5,city,215,0.1438828782528146,0.2945063403447088,0.7268094427173389,1,learn,,
,html-keyboard-response,528,1404831,0.0-276.0-1.0,null,,,<p></p>,null,,,,,,,,,,,,,
,do_trial,529,1407687,0.0-277.0-0.0,348.5,,,,,,51,0,0,1,5,city,216,0.16577326476219262,0.25175363948619783,0.6289046182288772,1,learn,,
,html-keyboard-response,530,1408691,0.0-277.0-1.0,null,,,<p></p>,null,,,,,,,,,,,,,
,do_trial,531,1411576,0.0-278.0-0.0,377.7000000476837,,,,,,51,1,0,1,5,city,217,0.12912079777084132,0.3576658204351159,0.701805812421524,1,learn,,
,html-keyboard-response,532,1412578,0.0-278.0-1.0,null,,,<p></p>,null,,,,,,,,,,,,,
,do_trial,533,1415342,0.0-279.0-0.0,256.7999999523163,,,,,,51,0,0,1,5,city,218,0.10933144305707142,0.28257939893807893,0.5656226053598274,1,learn,,
,html-keyboard-response,534,1416344,0.0-279.0-1.0,null,,,<p></p>,null,,,,,,,,,,,,,
,do_trial,535,1419151,0.0-280.0-0.0,299.60000014305115,,,,,,51,1,0,0,5,city,219,0.1120201702378189,0.41003464609278817,0.5071784335583527,0,learn,,
,html-keyboard-response,536,1420153,0.0-280.0-1.0,null,,,<p></p>,null,,,,,,,,,,,,,
,do_trial,537,1422960,0.0-281.0-0.0,299.2999999523163,,,,,,51,0,0,0,5,city,220,0.23998412430589747,0.3815101597960803,0.43006124044956456,0,learn,,
,html-keyboard-response,538,1423962,0.0-281.0-1.0,null,,,<p></p>,null,,,,,,,,,,,,,
,do_trial,539,1426767,0.0-282.0-0.0,296.90000009536743,,,,,,51,1,0,1,5,city,221,0.15549046577917847,0.3243827249776553,0.5030971919125325,1,learn,,
,html-keyboard-response,540,1427768,0.0-282.0-1.0,null,,,<p></p>,null,,,,,,,,,,,,,
,do_trial,541,1430575,0.0-283.0-0.0,302.30000019073486,,,,,,51,0,1,0,5,city,222,0.14931430067239312,0.3586939732971797,0.6011223867930817,0,learn,,
,html-keyboard-response,542,1431578,0.0-283.0-1.0,null,,,<p></p>,null,,,,,,,,,,,,,
,do_trial,543,1434375,0.0-284.0-0.0,293.10000014305115,,,,,,51,0,0,1,5,city,223,0.06262506087699635,0.19844920583236317,0.6417990024506186,1,learn,,
,html-keyboard-response,544,1435378,0.0-284.0-1.0,null,,,<p></p>,null,,,,,,,,,,,,,
,do_trial,545,1438159,0.0-285.0-0.0,274.39999985694885,,,,,,51,0,0,1,5,city,224,0.1603167259060644,0.2560358824440339,0.6926989629051831,1,learn,,
,html-keyboard-response,546,1439162,0.0-285.0-1.0,null,,,<p></p>,null,,,,,,,,,,,,,
,do_trial,547,1441991,0.0-286.0-0.0,321.40000009536743,,,,,,51,0,1,1,5,city,225,0.08639039478653518,0.14790011705754816,0.798978012534062,1,learn,,
,html-keyboard-response,548,1442993,0.0-286.0-1.0,null,,,<p></p>,null,,,,,,,,,,,,,
,do_trial,549,1445783,0.0-287.0-0.0,286.59999990463257,,,,,,51,0,0,0,5,city,226,0.07234332979376663,0.14667007298129367,0.7280927861441849,0,learn,,
,html-keyboard-response,550,1446785,0.0-287.0-1.0,null,,,<p></p>,null,,,,,,,,,,,,,
,do_trial,551,1449583,0.0-288.0-0.0,290.30000019073486,,,,,,51,0,0,1,5,city,227,0.19231314071923136,0.27514232838612546,0.6378063287671539,1,learn,,
,html-keyboard-response,552,1450585,0.0-288.0-1.0,null,,,<p></p>,null,,,,,,,,,,,,,
,do_trial,553,1453310,0.0-289.0-0.0,218,,,,,,51,0,1,0,5,city,228,0.2701663256719677,0.2984369677208215,0.5362260646952522,0,learn,,
,html-keyboard-response,554,1454312,0.0-289.0-1.0,null,,,<p></p>,null,,,,,,,,,,,,,
,do_trial,555,1457100,0.0-290.0-0.0,284.7999999523163,,,,,,51,0,1,1,5,city,229,0.28071312950164035,0.25217516222589564,0.7022725211052085,1,learn,,
,html-keyboard-response,556,1458102,0.0-290.0-1.0,null,,,<p></p>,null,,,,,,,,,,,,,
,do_bye,557,1459611,0.0-291.0-0.0,null,,,,,,null,,,,,,,,,,,
,html-keyboard-response,558,1465594,0.0-291.0-1.0,5981.699999809265,,,<div class=center><p>Nice job plundering!</p><p>Press <b>space</b> to head back to pirate HQ.</p></div>,32,,,,,,,,,,,,,
,html-keyboard-response,559,1483490,0.0-292.0-0.0,17879.900000095367,,,<div class=center><p>We have to sail past the islands again to get back to pirate HQ. We've just got wind that there is a huge storm approaching, so while we are going to stop at each island, we won't have time to see if our plunders are successful or not.</p><p>Press <b>space</b> to continue.</p></div>,32,,,,,,,,,,,,,
,judgement_attention_check,560,1488492,0.0-293.0-0.0,null,,,<div class='center'><p>Press <b>Z</b> to use the telescope to see what island is coming next!</p></div>,null,,,,,,,,,,,,0,false
,do_welcome,561,1493503,0.0-293.0-1.0,null,,,,,,null,,,,,,,,,,,
,do_trial,562,1499606,0.0-294.0-0.0,1598.7999999523163,,,,,,51,1,0,0,0,highway,230,,,,0,judgement,,
,html-keyboard-response,563,1500609,0.0-294.0-1.0,null,,,<p></p>,null,,,,,,,,,,,,,
,do_trial,564,1505533,0.0-295.0-0.0,417.09999990463257,,,,,,51,0,1,0,0,highway,231,,,,0,judgement,,
,html-keyboard-response,565,1506535,0.0-295.0-1.0,null,,,<p></p>,null,,,,,,,,,,,,,
,do_trial,566,1511597,0.0-296.0-0.0,553.7000000476837,,,,,,51,1,0,0,0,highway,232,,,,0,judgement,,
,html-keyboard-response,567,1512599,0.0-296.0-1.0,null,,,<p></p>,null,,,,,,,,,,,,,
,do_trial,568,1517478,0.0-297.0-0.0,371.60000014305115,,,,,,49,0,0,1,0,highway,233,,,,0,judgement,,
,html-keyboard-response,569,1518481,0.0-297.0-1.0,null,,,<p></p>,null,,,,,,,,,,,,,
,do_trial,570,1524014,0.0-298.0-0.0,1026.6000001430511,,,,,,49,0,0,1,0,highway,234,,,,0,judgement,,
,html-keyboard-response,571,1525017,0.0-298.0-1.0,null,,,<p></p>,null,,,,,,,,,,,,,
,html-keyboard-response,572,1525020,0.0-299.0-0.0,null,,,,null,,,,,,,,,,,,,
,judgement_attention_check,573,1527577,0.0-300.0-0.0,2555.7999999523163,,,<div class='center'><p>Press <b>Z</b> to use the telescope to see what island is coming next!</p></div>,90,,,,,,,,,,,,1,true
,do_welcome,574,1532589,0.0-300.0-1.0,null,,,,,,null,,,,,,,,,,,
,do_trial,575,1538223,0.0-301.0-0.0,1126.2000000476837,,,,,,49,0,0,0,1,forest,235,,,,0,judgement,,
,html-keyboard-response,576,1539225,0.0-301.0-1.0,null,,,<p></p>,null,,,,,,,,,,,,,
,do_trial,577,1544053,0.0-302.0-0.0,321.40000009536743,,,,,,49,0,0,0,1,forest,236,,,,0,judgement,,
,html-keyboard-response,578,1545056,0.0-302.0-1.0,null,,,<p></p>,null,,,,,,,,,,,,,
,do_trial,579,1549958,0.0-303.0-0.0,395.39999985694885,,,,,,49,0,1,0,1,forest,237,,,,0,judgement,,
,html-keyboard-response,580,1550961,0.0-303.0-1.0,null,,,<p></p>,null,,,,,,,,,,,,,
,do_trial,581,1555997,0.0-304.0-0.0,530.8999998569489,,,,,,51,0,0,0,1,forest,238,,,,0,judgement,,
,html-keyboard-response,582,1556999,0.0-304.0-1.0,null,,,<p></p>,null,,,,,,,,,,,,,
,do_trial,583,1561803,0.0-305.0-0.0,291.89999985694885,,,,,,51,0,0,1,1,forest,239,,,,1,judgement,,
,html-keyboard-response,584,1562806,0.0-305.0-1.0,null,,,<p></p>,null,,,,,,,,,,,,,
,html-keyboard-response,585,1562807,0.0-306.0-0.0,null,,,,null,,,,,,,,,,,,,
,judgement_attention_check,586,1564665,0.0-307.0-0.0,1856.3999998569489,,,<div class='center'><p>Press <b>Z</b> to use the telescope to see what island is coming next!</p></div>,90,,,,,,,,,,,,2,true
,do_welcome,587,1569675,0.0-307.0-1.0,null,,,,,,null,,,,,,,,,,,
,do_trial,588,1574542,0.0-308.0-0.0,362.10000014305115,,,,,,51,0,1,0,2,coast,240,,,,0,judgement,,
,html-keyboard-response,589,1575544,0.0-308.0-1.0,null,,,<p></p>,null,,,,,,,,,,,,,
,do_trial,590,1580326,0.0-309.0-0.0,275.2000000476837,,,,,,51,0,1,0,2,coast,241,,,,0,judgement,,
,html-keyboard-response,591,1581328,0.0-309.0-1.0,null,,,<p></p>,null,,,,,,,,,,,,,
,do_trial,592,1586192,0.0-310.0-0.0,355.59999990463257,,,,,,51,0,1,1,2,coast,242,,,,1,judgement,,
,html-keyboard-response,593,1587194,0.0-310.0-1.0,null,,,<p></p>,null,,,,,,,,,,,,,
,do_trial,594,1592045,0.0-311.0-0.0,344.5,,,,,,51,0,0,1,2,coast,243,,,,1,judgement,,
,html-keyboard-response,595,1593048,0.0-311.0-1.0,null,,,<p></p>,null,,,,,,,,,,,,,
,do_trial,596,1597919,0.0-312.0-0.0,363.89999985694885,,,,,,51,1,1,0,2,coast,244,,,,0,judgement,,
,html-keyboard-response,597,1598922,0.0-312.0-1.0,null,,,<p></p>,null,,,,,,,,,,,,,
,html-keyboard-response,598,1598925,0.0-313.0-0.0,null,,,,null,,,,,,,,,,,,,
,judgement_attention_check,599,1600337,0.0-314.0-0.0,1411.2000000476837,,,<div class='center'><p>Press <b>Z</b> to use the telescope to see what island is coming next!</p></div>,90,,,,,,,,,,,,3,true
,do_welcome,600,1605349,0.0-314.0-1.0,null,,,,,,null,,,,,,,,,,,
,do_trial,601,1610415,0.0-315.0-0.0,557.5,,,,,,51,0,1,0,3,countryside,245,,,,0,judgement,,
,html-keyboard-response,602,1611417,0.0-315.0-1.0,null,,,<p></p>,null,,,,,,,,,,,,,
,do_trial,603,1616157,0.0-316.0-0.0,235.79999995231628,,,,,,51,0,0,1,3,countryside,246,,,,1,judgement,,
,html-keyboard-response,604,1617160,0.0-316.0-1.0,null,,,<p></p>,null,,,,,,,,,,,,,
,do_trial,605,1621943,0.0-317.0-0.0,275.7999999523163,,,,,,51,0,0,1,3,countryside,247,,,,1,judgement,,
,html-keyboard-response,606,1622944,0.0-317.0-1.0,null,,,<p></p>,null,,,,,,,,,,,,,
,do_trial,607,1627806,0.0-318.0-0.0,354.59999990463257,,,,,,51,1,0,0,3,countryside,248,,,,0,judgement,,
,html-keyboard-response,608,1628808,0.0-318.0-1.0,null,,,<p></p>,null,,,,,,,,,,,,,
,do_trial,609,1633599,0.0-319.0-0.0,284,,,,,,51,0,1,1,3,countryside,249,,,,1,judgement,,
,html-keyboard-response,610,1634601,0.0-319.0-1.0,null,,,<p></p>,null,,,,,,,,,,,,,
,html-keyboard-response,611,1634602,0.0-320.0-0.0,null,,,,null,,,,,,,,,,,,,
,judgement_attention_check,612,1636063,0.0-321.0-0.0,1460,,,<div class='center'><p>Press <b>Z</b> to use the telescope to see what island is coming next!</p></div>,90,,,,,,,,,,,,4,true
,do_welcome,613,1641066,0.0-321.0-1.0,null,,,,,,null,,,,,,,,,,,
,do_trial,614,1646524,0.0-322.0-0.0,954.2999999523163,,,,,,49,1,0,0,4,mountain,250,,,,1,judgement,,
,html-keyboard-response,615,1647526,0.0-322.0-1.0,null,,,<p></p>,null,,,,,,,,,,,,,
,do_trial,616,1652365,0.0-323.0-0.0,317,,,,,,49,0,0,1,4,mountain,251,,,,0,judgement,,
,html-keyboard-response,617,1653367,0.0-323.0-1.0,null,,,<p></p>,null,,,,,,,,,,,,,
,do_trial,618,1658189,0.0-324.0-0.0,315,,,,,,49,0,1,1,4,mountain,252,,,,0,judgement,,
,html-keyboard-response,619,1659191,0.0-324.0-1.0,null,,,<p></p>,null,,,,,,,,,,,,,
,do_trial,620,1663958,0.0-325.0-0.0,259.7000000476837,,,,,,49,1,1,0,4,mountain,253,,,,1,judgement,,
,html-keyboard-response,621,1664960,0.0-325.0-1.0,null,,,<p></p>,null,,,,,,,,,,,,,
,do_trial,622,1669678,0.0-326.0-0.0,214.59999990463257,,,,,,50,0,0,0,4,mountain,254,,,,0,judgement,,
,html-keyboard-response,623,1670680,0.0-326.0-1.0,null,,,<p></p>,null,,,,,,,,,,,,,
,html-keyboard-response,624,1670683,0.0-327.0-0.0,null,,,,null,,,,,,,,,,,,,
,judgement_attention_check,625,1672321,0.0-328.0-0.0,1636.6000001430511,,,<div class='center'><p>Press <b>Z</b> to use the telescope to see what island is coming next!</p></div>,90,,,,,,,,,,,,5,true
,do_welcome,626,1677331,0.0-328.0-1.0,null,,,,,,null,,,,,,,,,,,
,do_trial,627,1682875,0.0-329.0-0.0,1041.5,,,,,,51,0,0,0,5,city,255,,,,0,judgement,,
,html-keyboard-response,628,1683877,0.0-329.0-1.0,null,,,<p></p>,null,,,,,,,,,,,,,
,do_trial,629,1688653,0.0-330.0-0.0,271,,,,,,51,0,0,0,5,city,256,,,,0,judgement,,
,html-keyboard-response,630,1689657,0.0-330.0-1.0,null,,,<p></p>,null,,,,,,,,,,,,,
,do_trial,631,1694454,0.0-331.0-0.0,290.59999990463257,,,,,,51,0,0,0,5,city,257,,,,0,judgement,,
,html-keyboard-response,632,1695457,0.0-331.0-1.0,null,,,<p></p>,null,,,,,,,,,,,,,
,do_trial,633,1700291,0.0-332.0-0.0,327.19999980926514,,,,,,51,1,0,1,5,city,258,,,,1,judgement,,
,html-keyboard-response,634,1701293,0.0-332.0-1.0,null,,,<p></p>,null,,,,,,,,,,,,,
,do_trial,635,1706070,0.0-333.0-0.0,269.5,,,,,,51,1,0,1,5,city,259,,,,1,judgement,,
,html-keyboard-response,636,1707073,0.0-333.0-1.0,null,,,<p></p>,null,,,,,,,,,,,,,
,html-keyboard-response,637,1710057,0.0-334.0-0.0,2982.300000190735,,,<div style='position: fixed; top: 0; left: 0; width: 100%; height: 100%; background-color: white; display: flex; align-items: center; justify-content: center;'><div><h2>We've made it to Pirate HQ!</h2><p>Press <b>space</b> to proceed.</p></div></div>,32,,,,,,,,,,,,,
