success,trial_type,trial_index,time_elapsed,internal_node_id,rt,responses,subject_id,stimulus,key_press,prompt,response,choice_outcomes,context_n,context_img_id,trial_n,pR_red,pR_white,pR_black,outcome,phase
true,fullscreen,0,3836,0.0-0.0,,,,,,,,,,,,,,,,
,survey-html-form,1,8899,0.0-1.0,5061,{worker_id:695fb0bae830397219e65052},695fb0bae830397219e65052,,,,,,,,,,,,,
,instruc1,2,10912,0.0-2.0,null,,695fb0bae830397219e65052,<div class='center'><p>Welcome! This study will last ~30 minutes. After the instructions there will be a practice game and quiz to make sure you understand the task. Today you will be the head captain of a pirate ship traveling around the world to different islands. Here is an overview of what you will be doing:</p><br><p> 1. Try to find the most successful pirate on 6 different islands</p><p> 2. Recall which pirates did the best on each island</p><br><p>,null,<div class='center'><p>Welcome! This study will last ~30 minutes. After the instructions there will be a practice game and quiz to make sure you understand the task. Today you will be the head captain of a pirate ship traveling around the world to different islands. Here is an overview of what you will be doing:</p><br><p> 1. Try to find the most successful pirate on 6 different islands</p><p> 2. Recall which pirates did the best on each island</p><br><p>,,,,,,,,,,
,html-keyboard-response,3,23140,0.0-3.0,12226.200000047684,,,<div class='center'><p>Welcome! This study will last ~30 minutes. After the instructions there will be a practice game and quiz to make sure you understand the task. Today you will be the head captain of a pirate ship traveling around the world to different islands. Here is an overview of what you will be doing:</p><br><p> 1. Try to find the most successful pirate on 6 different islands</p><p> 2. Recall which pirates did the best on each island</p><br><p><p><b>[Press the space bar to continue]</b></p></div>,32,,,,,,,,,,,
,instruc2,4,25141,0.0-4.0,null,,,<div class='center'><p>You are going to visit these 6 islands on your journey. You'll be able to see these islands from your ship.</p><p><img src='../static/images/contexts/all_contexts.png' height='500'></p></div>,null,<div class='center'><p>You are going to visit these 6 islands on your journey. You'll be able to see these islands from your ship.</p><p><img src='../static/images/contexts/all_contexts.png' height='500'></p></div>,,,,,,,,,,
,html-keyboard-response,5,29265,0.0-5.0,4123.199999809265,,,<div class='center'><p>You are going to visit these 6 islands on your journey. You'll be able to see these islands from your ship.</p><p><img src='../static/images/contexts/all_contexts.png' height='500'></p><p><b>[Press the space bar to continue]</b></p></div>,32,,,,,,,,,,,
,instruc4,6,31266,0.0-6.0,null,,,<div class='center'><p>As the head captain, you do not have to rob any ships yourself. Another pirate will be doing the robbing for you. First, you will choose a pirate to rob the next ship.</p><p><img src='../static/images/tutorial/pirates_all_crop.png' height='200'></p><p>Then, you'll see if the pirate successfully robbed the ship of their gold. If they were successful, then you'll get a stack of gold coins like this:</p><p><img src='../static/images/tutorial/reward.png' height='150'></p><p> If they were <b>not</b> successful, then you'll get no gold coins, and you'll see a big red x like this: </p><p><img src='../static/images/tutorial/reward_no.png' height='150'></p><p> How much bonus money you make is based on how many gold coins you collect.</p><div>,null,<div class='center'><p>As the head captain, you do not have to rob any ships yourself. Another pirate will be doing the robbing for you. First, you will choose a pirate to rob the next ship.</p><p><img src='../static/images/tutorial/pirates_all_crop.png' height='200'></p><p>Then, you'll see if the pirate successfully robbed the ship of their gold. If they were successful, then you'll get a stack of gold coins like this:</p><p><img src='../static/images/tutorial/reward.png' height='150'></p><p> If they were <b>not</b> successful, then you'll get no gold coins, and you'll see a big red x like this: </p><p><img src='../static/images/tutorial/reward_no.png' height='150'></p><p> How much bonus money you make is based on how many gold coins you collect.</p><div>,,,,,,,,,,
,html-keyboard-response,7,45689,0.0-7.0,14422.200000047684,,,<div class='center'><p>As the head captain, you do not have to rob any ships yourself. Another pirate will be doing the robbing for you. First, you will choose a pirate to rob the next ship.</p><p><img src='../static/images/tutorial/pirates_all_crop.png' height='200'></p><p>Then, you'll see if the pirate successfully robbed the ship of their gold. If they were successful, then you'll get a stack of gold coins like this:</p><p><img src='../static/images/tutorial/reward.png' height='150'></p><p> If they were <b>not</b> successful, then you'll get no gold coins, and you'll see a big red x like this: </p><p><img src='../static/images/tutorial/reward_no.png' height='150'></p><p> How much bonus money you make is based on how many gold coins you collect.</p><div><p><b>[Press the space bar to continue]</b></p></div>,32,,,,,,,,,,,
,instruc5,8,75520,0.0-8.0,29830.400000095367,,,<div class='center'><p>Even the most skilled pirate can not rob EVERY ship.</p><p> Some ships will have very strong protections against pirate attacks.</p><p> Blue beard, here, is very, very good at robbing ships, but he won't be successful every time he tries to rob one.</p><p> You can press the <b>'1'</b> key on the keyboard to choose him.</p><p> Try choosing him 10 times to see how often he succeeds at robbing a ship. </p><p><img src='../static/images/tutorial/blue.png' height='500'></p></div>,49,<div class='center'><p>Even the most skilled pirate can not rob EVERY ship.</p><p> Some ships will have very strong protections against pirate attacks.</p><p> Blue beard, here, is very, very good at robbing ships, but he won't be successful every time he tries to rob one.</p><p> You can press the <b>'1'</b> key on the keyboard to choose him.</p><p> Try choosing him 10 times to see how often he succeeds at robbing a ship. </p><p><img src='../static/images/tutorial/blue.png' height='500'></p></div>,,,,,,,,,,
,html-keyboard-response,9,77022,0.0-9.0,null,,,<div class='center'><p><img src='../static/images/tutorial/blue_win.png' height='500'></p></div>,null,,,,,,,,,,,
,html-keyboard-response,10,79262,0.0-10.0,2239.9000000953674,,,<div class='center'><img src='../static/images/tutorial/blue.png' height='500'></p></div>,49,,,,,,,,,,,
,html-keyboard-response,11,80764,0.0-11.0,null,,,<div class='center'><p><img src='../static/images/tutorial/blue_win.png' height='500'></p></div>,null,,,,,,,,,,,
,html-keyboard-response,12,81871,0.0-12.0,1106.7000000476837,,,<div class='center'><img src='../static/images/tutorial/blue.png' height='500'></p></div>,49,,,,,,,,,,,
,html-keyboard-response,13,83373,0.0-13.0,null,,,<div class='center'><p><img src='../static/images/tutorial/blue_win.png' height='500'></p></div>,null,,,,,,,,,,,
,html-keyboard-response,14,84132,0.0-14.0,759.2000000476837,,,<div class='center'><img src='../static/images/tutorial/blue.png' height='500'></p></div>,49,,,,,,,,,,,
,html-keyboard-response,15,85633,0.0-15.0,null,,,<div class='center'><p><img src='../static/images/tutorial/blue_no_win.png' height='500'></p></div>,null,,,,,,,,,,,
,html-keyboard-response,16,86310,0.0-16.0,676.2999999523163,,,<div class='center'><img src='../static/images/tutorial/blue.png' height='500'></p></div>,49,,,,,,,,,,,
,html-keyboard-response,17,87811,0.0-17.0,null,,,<div class='center'><p><img src='../static/images/tutorial/blue_win.png' height='500'></p></div>,null,,,,,,,,,,,
,html-keyboard-response,18,88327,0.0-18.0,515.1000001430511,,,<div class='center'><img src='../static/images/tutorial/blue.png' height='500'></p></div>,49,,,,,,,,,,,
,html-keyboard-response,19,89829,0.0-19.0,null,,,<div class='center'><p><img src='../static/images/tutorial/blue_win.png' height='500'></p></div>,null,,,,,,,,,,,
,html-keyboard-response,20,90375,0.0-20.0,545.4000000953674,,,<div class='center'><img src='../static/images/tutorial/blue.png' height='500'></p></div>,49,,,,,,,,,,,
,html-keyboard-response,21,91876,0.0-21.0,null,,,<div class='center'><p><img src='../static/images/tutorial/blue_win.png' height='500'></p></div>,null,,,,,,,,,,,
,html-keyboard-response,22,92319,0.0-22.0,442.89999985694885,,,<div class='center'><img src='../static/images/tutorial/blue.png' height='500'></p></div>,49,,,,,,,,,,,
,html-keyboard-response,23,93821,0.0-23.0,null,,,<div class='center'><p><img src='../static/images/tutorial/blue_no_win.png' height='500'></p></div>,null,,,,,,,,,,,
,html-keyboard-response,24,94309,0.0-24.0,488,,,<div class='center'><img src='../static/images/tutorial/blue.png' height='500'></p></div>,49,,,,,,,,,,,
,html-keyboard-response,25,95811,0.0-25.0,null,,,<div class='center'><p><img src='../static/images/tutorial/blue_win.png' height='500'></p></div>,null,,,,,,,,,,,
,html-keyboard-response,26,96275,0.0-26.0,464,,,<div class='center'><img src='../static/images/tutorial/blue.png' height='500'></p></div>,49,,,,,,,,,,,
,html-keyboard-response,27,97776,0.0-27.0,null,,,<div class='center'><p><img src='../static/images/tutorial/blue_win.png' height='500'></p></div>,null,,,,,,,,,,,
,instruc6,28,99777,0.0-28.0,null,,,<div class='center'><p> See, he succeeded in robbing the ships most of the time but not every time. </p></div>,null,<div class='center'><p> See, he succeeded in robbing the ships most of the time but not every time. </p></div>,,,,,,,,,,
,html-keyboard-response,29,101598,0.0-29.0,1820.5999999046326,,,<div class='center'><p> See, he succeeded in robbing the ships most of the time but not every time. </p><p><b>[Press the space bar to continue]</b></p></div>,32,,,,,,,,,,,
,html-keyboard-response,30,111951,0.0-30.0,10352.299999952316,,,<div class='center'><p>From these three pirates, you will get to choose which one you want to rob the next ship. <p>Press the <b>'1'</b> key on your keyboard to pick the pirate with the red beard.</p><p> Press <b>'2'</b> to pick the pirate with the white beard.</p><p> Press <b>'3'</b> to pick the pirate with the black beard.</p><p>Try picking a pirate now!</p><p><img src='../static/images/tutorial/all_pirates.png' height='500'></p></div>,51,,,,,,,,,,,
,html-keyboard-response,31,114888,0.0-31.0-0.0,2936.7999999523163,,,<div class='center'><p>Yay! This pirate succeeded in robbing the ship!</p><p><img src='../static/images/tutorial/black_win.png' height='500'></p><p><b>[Press the space bar to continue]</b></p></div>,32,,,,,,,,,,,
,html-keyboard-response,32,117699,0.0-31.0-1.0,2810.4000000953674,,,<div class='center'><p>Now try choosing another.</p><p><img src='../static/images/tutorial/all_pirates.png' height='500'></p></div>,50,,,,,,,,,,,
,html-keyboard-response,33,119672,0.0-32.0-0.0,1971.7999999523163,,,<div class='center'><p>Oh no! This pirate did not succeed in robbing the ship.</p><p><img src='../static/images/tutorial/white_no_win.png' height='500'></p><p><b>[Press the space bar to continue]</b></p></div>,32,,,,,,,,,,,
,instruc9,34,121673,0.0-33.0-0.0,null,,,<div class='center'><p>If you don't make your choice fast enough, you'll have to wait a few seconds before you can make another one. </p><p><img src='../static/images/miscellaneous/hurry_up.png' height='500'></p></div>,null,<div class='center'><p>If you don't make your choice fast enough, you'll have to wait a few seconds before you can make another one. </p><p><img src='../static/images/miscellaneous/hurry_up.png' height='500'></p></div>,,,,,,,,,,
,html-keyboard-response,35,123050,0.0-33.0-1.0,1376.5,,,<div class='center'><p>If you don't make your choice fast enough, you'll have to wait a few seconds before you can make another one. </p><p><img src='../static/images/miscellaneous/hurry_up.png' height='500'></p><p><b>[Press the space bar to continue]</b></p></div>,32,,,,,,,,,,,
,instruc11,36,125051,0.0-33.0-2.0,null,,,<div class='center'><p>How successful a pirate is at robbing ships will depend on the island you're on.</p><p> A pirate may have visited this island many times before and gained a lot of practice robbing ships there.</p><p>So, they're more likely to be successful than a pirate who has never visited the island before.</p></div>,null,<div class='center'><p>How successful a pirate is at robbing ships will depend on the island you're on.</p><p> A pirate may have visited this island many times before and gained a lot of practice robbing ships there.</p><p>So, they're more likely to be successful than a pirate who has never visited the island before.</p></div>,,,,,,,,,,
,html-keyboard-response,37,128563,0.0-33.0-3.0,3511.2999999523163,,,<div class='center'><p>How successful a pirate is at robbing ships will depend on the island you're on.</p><p> A pirate may have visited this island many times before and gained a lot of practice robbing ships there.</p><p>So, they're more likely to be successful than a pirate who has never visited the island before.</p><p><b>[Press the space bar to continue]</b></p></div>,32,,,,,,,,,,,
,instruc12,38,130563,0.0-33.0-4.0,null,,,<div class='center'><p>How successful a pirate is at robbing ships can also change over the time spent on the island. </p><p> Ships may hear from islanders about the pirates coming and will improve their protections against the attack. This may make it harder to rob them.</p><p> Ships may also become lazy and weaken the strength of their protections. This may make it easier to rob them.</p><br><p>Things are always changing on the high seas! So, try your best to pay attention!</p><p><img src='../static/images/tutorial/contingency.png' height='500'></p></div>,null,<div class='center'><p>How successful a pirate is at robbing ships can also change over the time spent on the island. </p><p> Ships may hear from islanders about the pirates coming and will improve their protections against the attack. This may make it harder to rob them.</p><p> Ships may also become lazy and weaken the strength of their protections. This may make it easier to rob them.</p><br><p>Things are always changing on the high seas! So, try your best to pay attention!</p><p><img src='../static/images/tutorial/contingency.png' height='500'></p></div>,,,,,,,,,,
,html-keyboard-response,39,137425,0.0-33.0-5.0,6860.799999952316,,,<div class='center'><p>How successful a pirate is at robbing ships can also change over the time spent on the island. </p><p> Ships may hear from islanders about the pirates coming and will improve their protections against the attack. This may make it harder to rob them.</p><p> Ships may also become lazy and weaken the strength of their protections. This may make it easier to rob them.</p><br><p>Things are always changing on the high seas! So, try your best to pay attention!</p><p><img src='../static/images/tutorial/contingency.png' height='500'></p><p><b>[Press the space bar to continue]</b></p></div>,32,,,,,,,,,,,
,instruc13,40,139425,0.0-33.0-6.0,null,,,<div class='center'><p>Let's go over the instructions quickly again. You have one thing to do: </p><p><b>Pick the pirate who is the best at robbing ships on the current island.</b></p><p>The amount of bonus money you win depends on it.</p><br><p>Let's try a practice game. The game will start by showing you an island. Pick a pirate using the <b>1, 2, 3</b> keys on your keyboard to get it to try and rob one of the ships leaving the island.</p><p>This is just a practice game, so you're not playing for money.</p><p>Good luck! This game will be very difficult but try your best!</p></div>,null,<div class='center'><p>Let's go over the instructions quickly again. You have one thing to do: </p><p><b>Pick the pirate who is the best at robbing ships on the current island.</b></p><p>The amount of bonus money you win depends on it.</p><br><p>Let's try a practice game. The game will start by showing you an island. Pick a pirate using the <b>1, 2, 3</b> keys on your keyboard to get it to try and rob one of the ships leaving the island.</p><p>This is just a practice game, so you're not playing for money.</p><p>Good luck! This game will be very difficult but try your best!</p></div>,,,,,,,,,,
,html-keyboard-response,41,149837,0.0-33.0-7.0,10411.299999952316,,,<div class='center'><p>Let's go over the instructions quickly again. You have one thing to do: </p><p><b>Pick the pirate who is the best at robbing ships on the current island.</b></p><p>The amount of bonus money you win depends on it.</p><br><p>Let's try a practice game. The game will start by showing you an island. Pick a pirate using the <b>1, 2, 3</b> keys on your keyboard to get it to try and rob one of the ships leaving the island.</p><p>This is just a practice game, so you're not playing for money.</p><p>Good luck! This game will be very difficult but try your best!</p><p><b>[Press the space bar to continue]</b></p></div>,32,,,,,,,,,,,
,do_welcome,42,153840,0.0-33.0-8.0,null,,,,,,null,,,,,,,,,
,do_trial,43,157759,0.0-33.0-9.0,1415.7999999523163,,,,,,51,1,0,0,,,,,,,,
,html-keyboard-response,44,158760,0.0-34.0-0.0,null,,,<p></p>,null,,,,,,,,,,,
,do_trial,45,162595,0.0-34.0-1.0,1332.3000001907349,,,,,,50,1,1,0,,,,,,,,
,html-keyboard-response,46,163598,0.0-35.0-0.0,null,,,<p></p>,null,,,,,,,,,,,
,do_trial,47,166917,0.0-35.0-1.0,802.2999999523163,,,,,,50,1,0,1,,,,,,,,
,html-keyboard-response,48,167919,0.0-36.0-0.0,null,,,<p></p>,null,,,,,,,,,,,
,do_trial,49,171172,0.0-36.0-1.0,752,,,,,,50,0,1,0,,,,,,,,
,html-keyboard-response,50,172174,0.0-37.0-0.0,null,,,<p></p>,null,,,,,,,,,,,
,do_trial,51,175426,0.0-37.0-1.0,750.2000000476837,,,,,,50,1,0,0,,,,,,,,
,do_bye,52,176929,0.0-38.0-0.0,null,,,,,,null,,,,,,,,,
,do_travel,53,185930,0.0-38.0-1.0,null,,,,,,null,,,,,,,,,
,do_welcome,54,189933,0.0-38.0-2.0,null,,,,,,null,,,,,,,,,
,do_trial,55,193521,0.0-38.0-3.0,1086.2999999523163,,,,,,50,1,0,0,,,,,,,,
,html-keyboard-response,56,194522,0.0-39.0-0.0,null,,,<p></p>,null,,,,,,,,,,,
,do_trial,57,197612,0.0-39.0-1.0,588.1999998092651,,,,,,51,1,0,1,,,,,,,,
,html-keyboard-response,58,198626,0.0-40.0-0.0,null,,,<p></p>,null,,,,,,,,,,,
,do_trial,59,201614,0.0-40.0-1.0,486.69999980926514,,,,,,51,1,1,0,,,,,,,,
,html-keyboard-response,60,202615,0.0-41.0-0.0,null,,,<p></p>,null,,,,,,,,,,,
,do_trial,61,205510,0.0-41.0-1.0,392.90000009536743,,,,,,50,0,0,1,,,,,,,,
,html-keyboard-response,62,206512,0.0-42.0-0.0,null,,,<p></p>,null,,,,,,,,,,,
,do_trial,63,209364,0.0-42.0-1.0,349.80000019073486,,,,,,49,1,0,1,,,,,,,,
,html-keyboard-response,64,216758,0.0-43.0-0.0,7393.099999904633,,,<div class='center'><p><img src='../static/images/tutorial/prac_best_pirate.png' height='500'></p></div>,49,,,,,,,,,,,
,html-keyboard-response,65,219500,0.0-44.0-0.0,2741.899999856949,,,<div class='center'><p>That's correct! Red beard was the best.</p><p><b>[Press the space bar to continue]</b></p></div>,32,,,,,,,,,,,
,quiz_beginning,66,221501,0.0-44.0-1.0,null,,,<div class='center'><p>Good job on the practice game! Now, you will be asked some true or false questions to make sure you really understand the rules of the game.</p><p> Press <b>'1'</b> on the keyboard for true and press <b>'2'</b> for false.</p></div>,null,<div class='center'><p>Good job on the practice game! Now, you will be asked some true or false questions to make sure you really understand the rules of the game.</p><p> Press <b>'1'</b> on the keyboard for true and press <b>'2'</b> for false.</p></div>,,,,,,,,,,
,html-keyboard-response,67,228691,0.0-44.0-2.0,7189.700000047684,,,<div class='center'><p>You win bonus money by collecting gold coins.</p><p>Press 1 for true and press  2 for false.</p></div>,49,,,,,,,,,,,
,correct,68,230692,0.0-45.0-0.0,null,,,<div class='center'><p>That's correct!</p></div>,null,<div class='center'><p>That's correct!</p></div>,,,,,,,,,,
,html-keyboard-response,69,232077,0.0-45.0-1.0,1384.5,,,<div class='center'><p>That's correct!</p><p><b>[Press the space bar to continue]</b></p></div>,32,,,,,,,,,,,
,html-keyboard-response,70,243965,0.0-45.0-2.0,11887.600000143051,,,<div class='center'><p>The pirate who is the best at robbing ships when you first arrive on the island will definitely still be the best when you leave the island. </p><p>Press 1 for true and press  2 for false.</p></div>,50,,,,,,,,,,,
,correct,71,245967,0.0-46.0-0.0,null,,,<div class='center'><p>That's correct!</p></div>,null,<div class='center'><p>That's correct!</p></div>,,,,,,,,,,
,html-keyboard-response,72,246749,0.0-46.0-1.0,782.0999999046326,,,<div class='center'><p>That's correct!</p><p><b>[Press the space bar to continue]</b></p></div>,32,,,,,,,,,,,
,html-keyboard-response,73,249730,0.0-46.0-2.0,2979.899999856949,,,<div class='center'><p>The pirate who is the best at robbing ships on the first island will be the best on every other island.</p><p>Press 1 for true and press  2 for false.</p></div>,50,,,,,,,,,,,
,correct,74,251741,0.0-47.0-0.0,null,,,<div class='center'><p>That's correct!</p></div>,null,<div class='center'><p>That's correct!</p></div>,,,,,,,,,,
,html-keyboard-response,75,252397,0.0-47.0-1.0,655.7999999523163,,,<div class='center'><p>That's correct!</p><p><b>[Press the space bar to continue]</b></p></div>,32,,,,,,,,,,,
,html-keyboard-response,76,257884,0.0-47.0-2.0,5486.400000095367,,,<div class='center'><p>You should remember the island where a pirate robbed a ship.</p><p>Press 1 for true and press  2 for false.</p></div>,49,,,,,,,,,,,
,correct,77,259892,0.0-48.0-0.0,null,,,<div class='center'><p>That's correct!</p></div>,null,<div class='center'><p>That's correct!</p></div>,,,,,,,,,,
,html-keyboard-response,78,260651,0.0-48.0-1.0,758.7000000476837,,,<div class='center'><p>That's correct!</p><p><b>[Press the space bar to continue]</b></p></div>,32,,,,,,,,,,,
,q_all_corr,79,262652,0.0-49.0-0.0,null,,,<div class='center'><p>Good job! You’re now ready to move on to the real game! Remember this game will be difficult but don't get discouraged and try your best!</p></div>,null,<div class='center'><p>Good job! You’re now ready to move on to the real game! Remember this game will be difficult but don't get discouraged and try your best!</p></div>,,,,,,,,,,
,html-keyboard-response,80,264126,0.0-49.0-1.0,1473.1999998092651,,,<div class='center'><p>Good job! You’re now ready to move on to the real game! Remember this game will be difficult but don't get discouraged and try your best!</p><p><b>[Press the space bar to continue]</b></p></div>,32,,,,,,,,,,,
,do_welcome,81,268132,0.0-50.0-0.0,null,,,,,,null,,,,,,,,,
,do_trial,82,272604,0.0-51.0-0.0,1969.7999999523163,,,,,,49,1,0,0,0,countryside,0,0.6,0.3,0.1,1,learn
,html-keyboard-response,83,273605,0.0-51.0-1.0,null,,,<p></p>,null,,,,,,,,,,,
,do_trial,84,276968,0.0-52.0-0.0,860.2999999523163,,,,,,49,0,0,0,0,countryside,1,0.707118789294627,0.10430895375343922,0.09329365136752504,0,learn
,html-keyboard-response,85,277969,0.0-52.0-1.0,null,,,<p></p>,null,,,,,,,,,,,
,do_trial,86,281147,0.0-53.0-0.0,676.0999999046326,,,,,,51,1,0,1,0,countryside,2,0.6361523147018778,0.17813985674297658,0.11308655045056337,1,learn
,html-keyboard-response,87,282148,0.0-53.0-1.0,null,,,<p></p>,null,,,,,,,,,,,
,do_trial,88,285283,0.0-54.0-0.0,633.5999999046326,,,,,,51,0,0,1,0,countryside,3,0.605901353233345,0.11777012564153568,0.17007486208327308,1,learn
,html-keyboard-response,89,286285,0.0-54.0-1.0,null,,,<p></p>,null,,,,,,,,,,,
,do_trial,90,289360,0.0-55.0-0.0,572.4000000953674,,,,,,51,1,0,0,0,countryside,4,0.6111952612668412,0.14985718464519365,0.2602562486352235,0,learn
,html-keyboard-response,91,290361,0.0-55.0-1.0,null,,,<p></p>,null,,,,,,,,,,,
,do_trial,92,293447,0.0-56.0-0.0,582.5,,,,,,50,1,0,1,0,countryside,5,0.4800219481546023,0.22171269230733034,0.3943396894183336,0,learn
,html-keyboard-response,93,294449,0.0-56.0-1.0,null,,,<p></p>,null,,,,,,,,,,,
,do_trial,94,297435,0.0-57.0-0.0,484.2999999523163,,,,,,51,1,0,0,0,countryside,6,0.5430567256360975,0.31466464955996515,0.2999283455486978,0,learn
,html-keyboard-response,95,298436,0.0-57.0-1.0,null,,,<p></p>,null,,,,,,,,,,,
,do_trial,96,301370,0.0-58.0-0.0,430.89999985694885,,,,,,49,1,0,0,0,countryside,7,0.6184808791497435,0.31142146347723737,0.39417041847335454,1,learn
,html-keyboard-response,97,302371,0.0-58.0-1.0,null,,,<p></p>,null,,,,,,,,,,,
,do_trial,98,305303,0.0-59.0-0.0,429.90000009536743,,,,,,49,0,0,0,0,countryside,8,0.6531405072768763,0.3794845337160665,0.24718264764156975,0,learn
,html-keyboard-response,99,306304,0.0-59.0-1.0,null,,,<p></p>,null,,,,,,,,,,,
,do_trial,100,309241,0.0-60.0-0.0,434.09999990463257,,,,,,51,1,0,0,0,countryside,9,0.7096347118750025,0.43355811962082974,0.16478562538687822,0,learn
,html-keyboard-response,101,310242,0.0-60.0-1.0,null,,,<p></p>,null,,,,,,,,,,,
,do_trial,102,313245,0.0-61.0-0.0,502,,,,,,49,0,0,0,0,countryside,10,0.5978917180732756,0.4588706112397732,0.07530887088515559,0,learn
,html-keyboard-response,103,314246,0.0-61.0-1.0,null,,,<p></p>,null,,,,,,,,,,,
,do_trial,104,317206,0.0-62.0-0.0,457.09999990463257,,,,,,50,0,0,0,0,countryside,11,0.47285988164837,0.33268172024043396,0.12135546390599626,0,learn
,html-keyboard-response,105,318208,0.0-62.0-1.0,null,,,<p></p>,null,,,,,,,,,,,
,do_trial,106,321414,0.0-63.0-0.0,704.4000000953674,,,,,,50,0,1,0,0,countryside,12,0.5608804147563954,0.192012209991388,0.1305780931970459,1,learn
,html-keyboard-response,107,322415,0.0-63.0-1.0,null,,,<p></p>,null,,,,,,,,,,,
,do_trial,108,325631,0.0-64.0-0.0,713.4000000953674,,,,,,50,0,0,1,0,countryside,13,0.5290910020376606,0.1952798969160287,0.15624203544544768,0,learn
,html-keyboard-response,109,326633,0.0-64.0-1.0,null,,,<p></p>,null,,,,,,,,,,,
,do_trial,110,329653,0.0-65.0-0.0,517.8999998569489,,,,,,49,0,1,1,0,countryside,14,0.5459501610586467,0.2562414647213151,0.15196165586539315,0,learn
,html-keyboard-response,111,330654,0.0-65.0-1.0,null,,,<p></p>,null,,,,,,,,,,,
,do_trial,112,333667,0.0-66.0-0.0,511.90000009536743,,,,,,51,1,1,0,0,countryside,15,0.6162252108310736,0.34708423521005816,0.1677333669564378,0,learn
,html-keyboard-response,113,334669,0.0-66.0-1.0,null,,,<p></p>,null,,,,,,,,,,,
,do_trial,114,337535,0.0-67.0-0.0,363.7000000476837,,,,,,50,1,0,0,0,countryside,16,0.5488117252351404,0.279327794037506,0.19230891556813626,0,learn
,html-keyboard-response,115,338536,0.0-67.0-1.0,null,,,<p></p>,null,,,,,,,,,,,
,do_trial,116,341303,0.0-68.0-0.0,265.2999999523163,,,,,,49,0,0,1,0,countryside,17,0.6652361372480827,0.20753926120098953,0.09983637575595677,0,learn
,html-keyboard-response,117,342304,0.0-68.0-1.0,null,,,<p></p>,null,,,,,,,,,,,
,do_trial,118,345428,0.0-69.0-0.0,621.5,,,,,,50,1,0,0,0,countryside,18,0.7922017944474444,0.15530600612247125,0.10701376913577415,0,learn
,html-keyboard-response,119,346440,0.0-69.0-1.0,null,,,<p></p>,null,,,,,,,,,,,
,do_trial,120,349455,0.0-70.0-0.0,511.69999980926514,,,,,,50,1,0,1,0,countryside,19,0.5974775600689803,0.07555317154230255,0.26708128587906016,0,learn
,html-keyboard-response,121,350456,0.0-70.0-1.0,null,,,<p></p>,null,,,,,,,,,,,
,do_trial,122,353627,0.0-71.0-0.0,668.1000001430511,,,,,,50,1,0,0,0,countryside,20,0.4111316259318835,0.057463371357975426,0.33646420986111425,0,learn
,html-keyboard-response,123,354628,0.0-71.0-1.0,null,,,<p></p>,null,,,,,,,,,,,
,do_trial,124,357706,0.0-72.0-0.0,573.5,,,,,,51,1,1,0,0,countryside,21,0.5036739899421745,0.13041092884375688,0.3390643703283019,0,learn
,html-keyboard-response,125,358708,0.0-72.0-1.0,null,,,<p></p>,null,,,,,,,,,,,
,do_trial,126,361917,0.0-73.0-0.0,708.1999998092651,,,,,,49,0,0,1,0,countryside,22,0.6087528606559984,0.2544638812342023,0.3543243400893772,0,learn
,html-keyboard-response,127,362919,0.0-73.0-1.0,null,,,<p></p>,null,,,,,,,,,,,
,do_trial,128,365555,0.0-74.0-0.0,134.09999990463257,,,,,,49,0,0,1,0,countryside,23,0.6380642301891636,0.34156571850947837,0.2912207402961836,0,learn
,html-keyboard-response,129,366556,0.0-74.0-1.0,null,,,<p></p>,null,,,,,,,,,,,
,do_trial,130,370082,0.0-75.0-0.0,1023.7999999523163,,,,,,50,1,0,0,0,countryside,24,0.5120589207617184,0.268503905918068,0.12487390047108701,0,learn
,html-keyboard-response,131,371083,0.0-75.0-1.0,null,,,<p></p>,null,,,,,,,,,,,
,do_trial,132,374435,0.0-76.0-0.0,848.5,,,,,,51,0,0,1,0,countryside,25,0.558881115179412,0.20203179515881634,0.14345018630246353,1,learn
,html-keyboard-response,133,375437,0.0-76.0-1.0,null,,,<p></p>,null,,,,,,,,,,,
,do_trial,134,378757,0.0-77.0-0.0,802.7999999523163,,,,,,51,0,0,1,0,countryside,26,0.5330364688745294,0.2435468166792112,0.2096871745097771,1,learn
,html-keyboard-response,135,379764,0.0-77.0-1.0,null,,,<p></p>,null,,,,,,,,,,,
,do_trial,136,382928,0.0-78.0-0.0,660.7999999523163,,,,,,51,0,0,0,0,countryside,27,0.5437383437973137,0.37495921850798286,0.25206078812624794,0,learn
,html-keyboard-response,137,383929,0.0-78.0-1.0,null,,,<p></p>,null,,,,,,,,,,,
,do_trial,138,387030,0.0-79.0-0.0,598.0999999046326,,,,,,51,0,0,0,0,countryside,28,0.5542776550780828,0.29724430396162654,0.32576247357196747,0,learn
,html-keyboard-response,139,388032,0.0-79.0-1.0,null,,,<p></p>,null,,,,,,,,,,,
,do_trial,140,391090,0.0-80.0-0.0,555.0999999046326,,,,,,50,1,0,0,0,countryside,29,0.5257953182360523,0.3007238639451482,0.18803645155186022,0,learn
,html-keyboard-response,141,392092,0.0-80.0-1.0,null,,,<p></p>,null,,,,,,,,,,,
,do_bye,142,393593,0.0-81.0-0.0,null,,,,,,null,,,,,,,,,
,do_travel,143,402597,0.0-82.0-0.0,null,,,,,,null,,,,,,,,,
,do_welcome,144,406603,0.0-82.0-1.0,null,,,,,,null,,,,,,,,,
,do_trial,145,410784,0.0-83.0-0.0,1679.3999998569489,,,,,,49,1,1,0,1,coast,30,1,0.1878960114947979,0.22787692595485368,1,learn
,html-keyboard-response,146,411786,0.0-83.0-1.0,null,,,<p></p>,null,,,,,,,,,,,
,do_trial,147,414730,0.0-84.0-0.0,441,,,,,,49,1,0,1,1,coast,31,1,0.2745480012709055,0.21551198387259127,1,learn
,html-keyboard-response,148,415731,0.0-84.0-1.0,null,,,<p></p>,null,,,,,,,,,,,
,do_trial,149,418682,0.0-85.0-0.0,449.09999990463257,,,,,,49,1,0,0,1,coast,32,1,0.30173482946165525,0.21127457309377093,1,learn
,html-keyboard-response,150,419684,0.0-85.0-1.0,null,,,<p></p>,null,,,,,,,,,,,
,do_trial,151,422731,0.0-86.0-0.0,546.1000001430511,,,,,,49,1,1,0,1,coast,33,0.8064349819247201,0.12176112278904139,0.14613637180667824,1,learn
,html-keyboard-response,152,423732,0.0-86.0-1.0,null,,,<p></p>,null,,,,,,,,,,,
,do_trial,153,426659,0.0-87.0-0.0,425.60000014305115,,,,,,49,1,0,0,1,coast,34,0.7167661625925286,0.1348830231885215,0.05157277966703013,1,learn
,html-keyboard-response,154,427661,0.0-87.0-1.0,null,,,<p></p>,null,,,,,,,,,,,
,do_trial,155,430631,0.0-88.0-0.0,466.89999985694885,,,,,,49,1,0,0,1,coast,35,0.5174790117192157,0.21080248741127644,0.07664140383611955,1,learn
,html-keyboard-response,156,431638,0.0-88.0-1.0,null,,,<p></p>,null,,,,,,,,,,,
,do_trial,157,434674,0.0-89.0-0.0,534.7999999523163,,,,,,49,1,0,0,1,coast,36,0.5968342930541277,0.14408564781681935,0.06383217938046934,1,learn
,html-keyboard-response,158,435676,0.0-89.0-1.0,null,,,<p></p>,null,,,,,,,,,,,
,do_trial,159,438441,0.0-90.0-0.0,257.89999985694885,,,,,,49,0,0,1,1,coast,37,0.4499815695888769,0.17122673097845423,0.08859702002426763,0,learn
,html-keyboard-response,160,439442,0.0-90.0-1.0,null,,,<p></p>,null,,,,,,,,,,,
,do_trial,161,442317,0.0-91.0-0.0,372.5,,,,,,49,1,0,0,1,coast,38,0.3949398670110293,0.23635178421372305,0.0961002706996333,1,learn
,html-keyboard-response,162,443319,0.0-91.0-1.0,null,,,<p></p>,null,,,,,,,,,,,
,do_trial,163,446203,0.0-92.0-0.0,367.7999999523163,,,,,,49,1,1,0,1,coast,39,0.4609629927873622,0.42667468319807866,0.0640870198714398,1,learn
,html-keyboard-response,164,447205,0.0-92.0-1.0,null,,,<p></p>,null,,,,,,,,,,,
,do_trial,165,450167,0.0-93.0-0.0,460.2999999523163,,,,,,49,1,1,0,1,coast,40,0.3941512211634337,0.42651173412650795,0.08243182141897107,1,learn
,html-keyboard-response,166,451168,0.0-93.0-1.0,null,,,<p></p>,null,,,,,,,,,,,
,do_trial,167,453980,0.0-94.0-0.0,309.5,,,,,,49,0,1,0,1,coast,41,0.4673339039762515,0.283608938455478,0.15953567000854374,0,learn
,html-keyboard-response,168,454981,0.0-94.0-1.0,null,,,<p></p>,null,,,,,,,,,,,
,do_trial,169,457884,0.0-95.0-0.0,401.2999999523163,,,,,,49,0,1,0,1,coast,42,0.3846428350108759,0.22333765945762798,0.37081475387848706,0,learn
,html-keyboard-response,170,458886,0.0-95.0-1.0,null,,,<p></p>,null,,,,,,,,,,,
,do_trial,171,461711,0.0-96.0-0.0,322.7999999523163,,,,,,50,0,0,0,1,coast,43,0.3332755613960204,0.17648235989212402,0.45586338669388765,0,learn
,html-keyboard-response,172,462712,0.0-96.0-1.0,null,,,<p></p>,null,,,,,,,,,,,
,do_trial,173,465732,0.0-97.0-0.0,517.5999999046326,,,,,,51,0,1,1,1,coast,44,0.4554827066968153,0.15404314000346164,0.5518527104591587,1,learn
,html-keyboard-response,174,466733,0.0-97.0-1.0,null,,,<p></p>,null,,,,,,,,,,,
,do_trial,175,469703,0.0-98.0-0.0,458.7999999523163,,,,,,51,0,0,1,1,coast,45,0.2879784620156876,0.05806242273027991,0.48921183277454583,1,learn
,html-keyboard-response,176,470705,0.0-98.0-1.0,null,,,<p></p>,null,,,,,,,,,,,
,do_trial,177,473656,0.0-99.0-0.0,448.2999999523163,,,,,,51,0,0,0,1,coast,46,0.22502312102028016,0.0654061420938658,0.6135324400017873,0,learn
,html-keyboard-response,178,474658,0.0-99.0-1.0,null,,,<p></p>,null,,,,,,,,,,,
,do_trial,179,477501,0.0-100.0-0.0,342,,,,,,50,1,0,0,1,coast,47,0.30334759219765967,0.14746792318598761,0.526101667407598,0,learn
,html-keyboard-response,180,478502,0.0-100.0-1.0,null,,,<p></p>,null,,,,,,,,,,,
,do_trial,181,481245,0.0-101.0-0.0,240.80000019073486,,,,,,51,1,0,1,1,coast,48,0.4201405406615779,0.15359439815203377,0.6134212973265245,1,learn
,html-keyboard-response,182,482246,0.0-101.0-1.0,null,,,<p></p>,null,,,,,,,,,,,
,do_trial,183,485036,0.0-102.0-0.0,288.09999990463257,,,,,,51,0,0,0,1,coast,49,0.49015918873512065,0.07292278730306395,0.6525076718469173,0,learn
,html-keyboard-response,184,486036,0.0-102.0-1.0,null,,,<p></p>,null,,,,,,,,,,,
,do_trial,185,488813,0.0-103.0-0.0,274.5,,,,,,49,0,1,1,1,coast,50,0.3029334902468873,0.09189665248105547,0.6198592662661716,0,learn
,html-keyboard-response,186,489814,0.0-103.0-1.0,null,,,<p></p>,null,,,,,,,,,,,
,do_trial,187,492542,0.0-104.0-0.0,212.79999995231628,,,,,,51,0,0,1,1,coast,51,0.35452078061825326,0.21018317692874774,0.5968669837273192,1,learn
,html-keyboard-response,188,493543,0.0-104.0-1.0,null,,,<p></p>,null,,,,,,,,,,,
,do_trial,189,496698,0.0-105.0-0.0,652.5,,,,,,51,0,1,0,1,coast,52,0.5385753811413613,0.21746277919322513,0.6919714816149175,0,learn
,html-keyboard-response,190,497700,0.0-105.0-1.0,null,,,<p></p>,null,,,,,,,,,,,
,do_trial,191,500540,0.0-106.0-0.0,339.5,,,,,,51,1,1,1,1,coast,53,0.4368737903522787,0.11688606860560206,0.7853069385397191,1,learn
,html-keyboard-response,192,501543,0.0-106.0-1.0,null,,,<p></p>,null,,,,,,,,,,,
,do_trial,193,504368,0.0-107.0-0.0,323.2999999523163,,,,,,50,0,0,1,1,coast,54,0.4088794157025298,0.12119107571270706,0.7316848599504797,0,learn
,html-keyboard-response,194,505370,0.0-107.0-1.0,null,,,<p></p>,null,,,,,,,,,,,
,do_trial,195,508201,0.0-108.0-0.0,329.2999999523163,,,,,,51,1,0,1,1,coast,55,0.4427885859456487,0.1054497844500899,0.7456039377794264,1,learn
,html-keyboard-response,196,509210,0.0-108.0-1.0,null,,,<p></p>,null,,,,,,,,,,,
,do_trial,197,512086,0.0-109.0-0.0,373.5,,,,,,51,0,0,1,1,coast,56,0.5139837230022463,0.09490271515923933,0.7483258814768001,1,learn
,html-keyboard-response,198,513087,0.0-109.0-1.0,null,,,<p></p>,null,,,,,,,,,,,
,do_trial,199,515970,0.0-110.0-0.0,381.5,,,,,,51,1,0,0,1,coast,57,0.612120426655699,0.08012408786499454,0.7017481585139116,0,learn
,html-keyboard-response,200,516972,0.0-110.0-1.0,null,,,<p></p>,null,,,,,,,,,,,
,do_trial,201,519911,0.0-111.0-0.0,437.2999999523163,,,,,,51,1,0,1,1,coast,58,0.43239784082694455,0.29854500099221765,0.855235744293102,1,learn
,html-keyboard-response,202,520912,0.0-111.0-1.0,null,,,<p></p>,null,,,,,,,,,,,
,do_trial,203,523806,0.0-112.0-0.0,391,,,,,,51,0,0,1,1,coast,59,0.42793592176481954,0.27699158409133684,0.7968382130351418,1,learn
,html-keyboard-response,204,524808,0.0-112.0-1.0,null,,,<p></p>,null,,,,,,,,,,,
,do_trial,205,527717,0.0-113.0-0.0,406.10000014305115,,,,,,51,0,0,1,1,coast,60,0.520491299445941,0.07355729545184446,0.6786427378329508,1,learn
,html-keyboard-response,206,528720,0.0-113.0-1.0,null,,,<p></p>,null,,,,,,,,,,,
,do_trial,207,531801,0.0-114.0-0.0,578.2999999523163,,,,,,51,0,0,1,1,coast,61,0.5313622107065815,0.13273146166334612,0.7762970881862641,1,learn
,html-keyboard-response,208,532802,0.0-114.0-1.0,null,,,<p></p>,null,,,,,,,,,,,
,do_trial,209,535690,0.0-115.0-0.0,385.2000000476837,,,,,,51,0,0,1,1,coast,62,0.47197926715185873,0.08421810694817479,0.7521279938751597,1,learn
,html-keyboard-response,210,536692,0.0-115.0-1.0,null,,,<p></p>,null,,,,,,,,,,,
,do_trial,211,539850,0.0-116.0-0.0,656.1000001430511,,,,,,51,0,0,1,1,coast,63,0.2502232197939599,0.1406308111939461,0.7154347485627038,1,learn
,html-keyboard-response,212,540851,0.0-116.0-1.0,null,,,<p></p>,null,,,,,,,,,,,
,do_trial,213,543715,0.0-117.0-0.0,361.5,,,,,,51,0,0,0,1,coast,64,0.22182063779715783,0.09087667795828662,0.6465901298370231,0,learn
,html-keyboard-response,214,544716,0.0-117.0-1.0,null,,,<p></p>,null,,,,,,,,,,,
,do_trial,215,547679,0.0-118.0-0.0,460.7999999523163,,,,,,51,0,0,1,1,coast,65,0.21315796563813563,0.055457671849593465,0.5309091927382896,1,learn
,html-keyboard-response,216,548685,0.0-118.0-1.0,null,,,<p></p>,null,,,,,,,,,,,
,do_trial,217,551584,0.0-119.0-0.0,397.2000000476837,,,,,,51,1,0,0,1,coast,66,0.23086732207259786,0.14177326191338277,0.49118090129494674,0,learn
,html-keyboard-response,218,552585,0.0-119.0-1.0,null,,,<p></p>,null,,,,,,,,,,,
,do_trial,219,555584,0.0-120.0-0.0,485.5,,,,,,51,1,0,1,1,coast,67,0.09833017172764652,0.10317086432941826,0.5274873078472357,1,learn
,html-keyboard-response,220,556585,0.0-120.0-1.0,null,,,<p></p>,null,,,,,,,,,,,
,do_trial,221,559517,0.0-121.0-0.0,430.59999990463257,,,,,,51,1,0,1,1,coast,68,0.1647971095222542,0.11882333793766177,0.5126922449486787,1,learn
,html-keyboard-response,222,560518,0.0-121.0-1.0,null,,,<p></p>,null,,,,,,,,,,,
,do_trial,223,563569,0.0-122.0-0.0,548.7000000476837,,,,,,51,0,0,1,1,coast,69,0.18395808738719005,0.19210158673903086,0.558488225015904,1,learn
,html-keyboard-response,224,564570,0.0-122.0-1.0,null,,,<p></p>,null,,,,,,,,,,,
,do_bye,225,566072,0.0-123.0-0.0,null,,,,,,null,,,,,,,,,
,do_travel,226,575073,0.0-124.0-0.0,null,,,,,,null,,,,,,,,,
,do_welcome,227,579079,0.0-124.0-1.0,null,,,,,,null,,,,,,,,,
,do_trial,228,583051,0.0-125.0-0.0,1470.5,,,,,,50,0,0,1,2,forest,70,0.24009278811701368,0.23590346352573072,1,0,learn
,html-keyboard-response,229,584060,0.0-125.0-1.0,null,,,<p></p>,null,,,,,,,,,,,
,do_trial,230,587036,0.0-126.0-0.0,473.10000014305115,,,,,,51,0,0,1,2,forest,71,0.2932250203468063,0.06308731254374295,1,1,learn
,html-keyboard-response,231,588037,0.0-126.0-1.0,null,,,<p></p>,null,,,,,,,,,,,
,do_trial,232,590941,0.0-127.0-0.0,402.10000014305115,,,,,,51,0,0,1,2,forest,72,0.18817568985430058,0.10159829212377806,0.8362468374624692,1,learn
,html-keyboard-response,233,591945,0.0-127.0-1.0,null,,,<p></p>,null,,,,,,,,,,,
,do_trial,234,594819,0.0-128.0-0.0,371.09999990463257,,,,,,51,1,0,1,2,forest,73,0.3348809322238154,0.08924367155707881,0.8482618402343362,1,learn
,html-keyboard-response,235,595820,0.0-128.0-1.0,null,,,<p></p>,null,,,,,,,,,,,
,do_trial,236,598869,0.0-129.0-0.0,539.7000000476837,,,,,,51,0,1,0,2,forest,74,0.2965724490522079,0.18146773223105064,0.8647788689764134,0,learn
,html-keyboard-response,237,599871,0.0-129.0-1.0,null,,,<p></p>,null,,,,,,,,,,,
,do_trial,238,602682,0.0-130.0-0.0,310.2999999523163,,,,,,51,0,0,1,2,forest,75,0.2878726973662933,0.23533655007405563,0.7866794878360704,1,learn
,html-keyboard-response,239,603684,0.0-130.0-1.0,null,,,<p></p>,null,,,,,,,,,,,
,do_trial,240,606681,0.0-131.0-0.0,495.09999990463257,,,,,,51,0,1,1,2,forest,76,0.28326290961693706,0.08362681002673143,0.8604057144924313,1,learn
,html-keyboard-response,241,607683,0.0-131.0-1.0,null,,,<p></p>,null,,,,,,,,,,,
,do_trial,242,610803,0.0-132.0-0.0,618,,,,,,51,0,0,0,2,forest,77,0.27407285219185595,0.09862315738744189,0.7130047058179676,0,learn
,html-keyboard-response,243,611804,0.0-132.0-1.0,null,,,<p></p>,null,,,,,,,,,,,
,do_trial,244,614722,0.0-133.0-0.0,414.5,,,,,,51,0,0,1,2,forest,78,0.33944656415579927,0.06349347532573214,0.6147440775021719,1,learn
,html-keyboard-response,245,615724,0.0-133.0-1.0,null,,,<p></p>,null,,,,,,,,,,,
,do_trial,246,618983,0.0-134.0-0.0,757.3999998569489,,,,,,51,0,0,1,2,forest,79,0.22838450118975864,0.10207386178706745,0.6088538671772462,1,learn
,html-keyboard-response,247,619984,0.0-134.0-1.0,null,,,<p></p>,null,,,,,,,,,,,
,do_trial,248,623084,0.0-135.0-0.0,597.0999999046326,,,,,,51,0,0,1,2,forest,80,0.18062808886422904,0.06483101594050232,0.6142410274366117,1,learn
,html-keyboard-response,249,624085,0.0-135.0-1.0,null,,,<p></p>,null,,,,,,,,,,,
,do_trial,250,627156,0.0-136.0-0.0,569.2000000476837,,,,,,51,0,0,1,2,forest,81,0.1850743459472553,0.14898790301587508,0.5323011084764729,1,learn
,html-keyboard-response,251,628159,0.0-136.0-1.0,null,,,<p></p>,null,,,,,,,,,,,
,do_trial,252,631089,0.0-137.0-0.0,419.60000014305115,,,,,,51,0,1,0,2,forest,82,0.14068408816021868,0.37532775259121737,0.3566562973415959,0,learn
,html-keyboard-response,253,632091,0.0-137.0-1.0,null,,,<p></p>,null,,,,,,,,,,,
,do_trial,254,635098,0.0-138.0-0.0,506.09999990463257,,,,,,51,0,1,1,2,forest,83,0.07069749672739156,0.5560662537849099,0.37791377164247025,1,learn
,html-keyboard-response,255,636111,0.0-138.0-1.0,null,,,<p></p>,null,,,,,,,,,,,
,do_trial,256,639134,0.0-139.0-0.0,519.5,,,,,,51,0,1,0,2,forest,84,0.26278566624796457,0.5331104534802767,0.22877211467459582,0,learn
,html-keyboard-response,257,640135,0.0-139.0-1.0,null,,,<p></p>,null,,,,,,,,,,,
,do_trial,258,642964,0.0-140.0-0.0,325.59999990463257,,,,,,51,1,0,0,2,forest,85,0.2890244585525715,0.4837263357287283,0.25194654257801097,0,learn
,html-keyboard-response,259,643966,0.0-140.0-1.0,null,,,<p></p>,null,,,,,,,,,,,
,do_trial,260,646725,0.0-141.0-0.0,256,,,,,,51,1,1,0,2,forest,86,0.21030012390114877,0.5473579395006911,0.24919096817359673,0,learn
,html-keyboard-response,261,647727,0.0-141.0-1.0,null,,,<p></p>,null,,,,,,,,,,,
,do_trial,262,650529,0.0-142.0-0.0,300.60000014305115,,,,,,50,0,0,0,2,forest,87,0.40291913612524966,0.4639136788447418,0.19650896860750636,0,learn
,html-keyboard-response,263,651535,0.0-142.0-1.0,null,,,<p></p>,null,,,,,,,,,,,
,do_trial,264,654307,0.0-143.0-0.0,270.09999990463257,,,,,,49,0,1,0,2,forest,88,0.3105320640881233,0.5977053398232998,0.058590224189960585,0,learn
,html-keyboard-response,265,655309,0.0-143.0-1.0,null,,,<p></p>,null,,,,,,,,,,,
,do_trial,266,658464,0.0-144.0-0.0,652.9000000953674,,,,,,51,0,1,0,2,forest,89,0.4108877912379019,0.7320375799263994,0.06973987116824051,0,learn
,html-keyboard-response,267,659466,0.0-144.0-1.0,null,,,<p></p>,null,,,,,,,,,,,
,do_trial,268,662402,0.0-145.0-0.0,432.7000000476837,,,,,,49,0,1,0,2,forest,90,0.3020024823212433,0.5716732037322606,0.061885513062269776,0,learn
,html-keyboard-response,269,663403,0.0-145.0-1.0,null,,,<p></p>,null,,,,,,,,,,,
,do_trial,270,666239,0.0-146.0-0.0,323.30000019073486,,,,,,50,0,0,0,2,forest,91,0.37393356863009103,0.5157197640164625,0.0971522724527215,0,learn
,html-keyboard-response,271,667240,0.0-146.0-1.0,null,,,<p></p>,null,,,,,,,,,,,
,do_trial,272,670083,0.0-147.0-0.0,340.09999990463257,,,,,,50,0,1,0,2,forest,92,0.46408837066858755,0.7257996723922925,0.21974765521995637,1,learn
,html-keyboard-response,273,671083,0.0-147.0-1.0,null,,,<p></p>,null,,,,,,,,,,,
,do_trial,274,674066,0.0-148.0-0.0,479.7000000476837,,,,,,50,1,0,0,2,forest,93,0.398298131037024,0.5904794673173787,0.10715729031825579,0,learn
,html-keyboard-response,275,675068,0.0-148.0-1.0,null,,,<p></p>,null,,,,,,,,,,,
,do_trial,276,677871,0.0-149.0-0.0,300.59999990463257,,,,,,50,1,0,0,2,forest,94,0.4323221815779174,0.7098243187706679,0.08859758397335042,0,learn
,html-keyboard-response,277,678871,0.0-149.0-1.0,null,,,<p></p>,null,,,,,,,,,,,
,do_trial,278,681778,0.0-150.0-0.0,404.2000000476837,,,,,,49,0,1,1,2,forest,95,0.44748873933995376,0.6788943215657901,0.13069498019273765,0,learn
,html-keyboard-response,279,682779,0.0-150.0-1.0,null,,,<p></p>,null,,,,,,,,,,,
,do_trial,280,685661,0.0-151.0-0.0,380.2999999523163,,,,,,49,0,0,0,2,forest,96,0.444341041792251,0.6743456301345486,0.12478440304108121,0,learn
,html-keyboard-response,281,686662,0.0-151.0-1.0,null,,,<p></p>,null,,,,,,,,,,,
,do_trial,282,689692,0.0-152.0-0.0,528.3999998569489,,,,,,50,0,1,0,2,forest,97,0.3546323089178842,0.5470573690800464,0.09585466734707053,1,learn
,html-keyboard-response,283,690694,0.0-152.0-1.0,null,,,<p></p>,null,,,,,,,,,,,
,do_trial,284,693723,0.0-153.0-0.0,526.0999999046326,,,,,,50,0,1,0,2,forest,98,0.21274210755208642,0.6685467265165087,0.162601436550953,1,learn
,html-keyboard-response,285,694724,0.0-153.0-1.0,null,,,<p></p>,null,,,,,,,,,,,
,do_trial,286,697655,0.0-154.0-0.0,429.19999980926514,,,,,,50,0,0,0,2,forest,99,0.15932605301462807,0.6814734141970062,0.09933095448004599,0,learn
,html-keyboard-response,287,698656,0.0-154.0-1.0,null,,,<p></p>,null,,,,,,,,,,,
,do_trial,288,701427,0.0-155.0-0.0,268.90000009536743,,,,,,51,0,1,0,2,forest,100,0.27485249148596497,0.7114155730955022,0.17399335964862053,0,learn
,html-keyboard-response,289,702430,0.0-155.0-1.0,null,,,<p></p>,null,,,,,,,,,,,
,do_trial,290,705148,0.0-156.0-0.0,214.60000014305115,,,,,,50,0,1,0,2,forest,101,0.2694247522664089,0.7442954463288934,0.17080851387096943,1,learn
,html-keyboard-response,291,706149,0.0-156.0-1.0,null,,,<p></p>,null,,,,,,,,,,,
,do_trial,292,708917,0.0-157.0-0.0,266,,,,,,50,0,0,0,2,forest,102,0.09887490490988005,0.714375176603158,0.09450692897396838,0,learn
,html-keyboard-response,293,709918,0.0-157.0-1.0,null,,,<p></p>,null,,,,,,,,,,,
,do_trial,294,712987,0.0-158.0-0.0,567.2999999523163,,,,,,50,0,1,0,2,forest,103,0.09451853063621218,0.6894261171483782,0.2644490996320563,1,learn
,html-keyboard-response,295,713988,0.0-158.0-1.0,null,,,<p></p>,null,,,,,,,,,,,
,do_trial,296,716970,0.0-159.0-0.0,479.2000000476837,,,,,,50,0,0,0,2,forest,104,0.17124980706040555,0.6280990198132926,0.19183674542018003,0,learn
,html-keyboard-response,297,717971,0.0-159.0-1.0,null,,,<p></p>,null,,,,,,,,,,,
,do_trial,298,721007,0.0-160.0-0.0,534,,,,,,50,0,1,1,2,forest,105,0.07870262409245246,0.6016269178841865,0.4203773170702922,1,learn
,html-keyboard-response,299,722008,0.0-160.0-1.0,null,,,<p></p>,null,,,,,,,,,,,
,do_trial,300,727066,0.0-161.0-0.0,2556,,,,,,50,0,1,0,2,forest,106,0.21766859224843216,0.7242106362983368,0.22805178942510457,1,learn
,html-keyboard-response,301,728068,0.0-161.0-1.0,null,,,<p></p>,null,,,,,,,,,,,
,do_trial,302,731243,0.0-162.0-0.0,670.2999999523163,,,,,,50,0,1,1,2,forest,107,0.32748422085686,0.5792923300972903,0.1609923421517498,1,learn
,html-keyboard-response,303,732244,0.0-162.0-1.0,null,,,<p></p>,null,,,,,,,,,,,
,do_trial,304,735461,0.0-163.0-0.0,715,,,,,,50,0,0,1,2,forest,108,0.21227117875151102,0.4908940346966418,0.2320947742751366,0,learn
,html-keyboard-response,305,736462,0.0-163.0-1.0,null,,,<p></p>,null,,,,,,,,,,,
,do_trial,306,739731,0.0-164.0-0.0,766.8999998569489,,,,,,50,1,1,1,2,forest,109,0.2611333557678449,0.701665345572764,0.2363443845274975,1,learn
,html-keyboard-response,307,740732,0.0-164.0-1.0,null,,,<p></p>,null,,,,,,,,,,,
,do_bye,308,742235,0.0-165.0-0.0,null,,,,,,null,,,,,,,,,
,do_travel,309,751237,0.0-166.0-0.0,null,,,,,,null,,,,,,,,,
,do_welcome,310,755244,0.0-166.0-1.0,null,,,,,,null,,,,,,,,,
,do_trial,311,759127,0.0-167.0-0.0,1380.9000000953674,,,,,,49,0,1,0,3,highway,110,0.21715604714661726,1,0.0873730716854315,0,learn
,html-keyboard-response,312,760136,0.0-167.0-1.0,null,,,<p></p>,null,,,,,,,,,,,
,do_trial,313,762919,0.0-168.0-0.0,280.5,,,,,,50,0,1,0,3,highway,111,0.1779668165588941,1,0.0872203376846509,1,learn
,html-keyboard-response,314,763920,0.0-168.0-1.0,null,,,<p></p>,null,,,,,,,,,,,
,do_trial,315,766694,0.0-169.0-0.0,271.90000009536743,,,,,,50,0,0,0,3,highway,112,0.22444078360712783,0.9250318208786863,0.16815062650766593,0,learn
,html-keyboard-response,316,767696,0.0-169.0-1.0,null,,,<p></p>,null,,,,,,,,,,,
,do_trial,317,770599,0.0-170.0-0.0,402.2999999523163,,,,,,50,0,1,0,3,highway,113,0.37666953598272324,0.6515028489248579,0.19103032453891058,1,learn
,html-keyboard-response,318,771601,0.0-170.0-1.0,null,,,<p></p>,null,,,,,,,,,,,
,do_trial,319,774447,0.0-171.0-0.0,344.09999990463257,,,,,,50,0,0,0,3,highway,114,0.2762706627355435,0.6731434834369354,0.21612533090190145,0,learn
,html-keyboard-response,320,775449,0.0-171.0-1.0,null,,,<p></p>,null,,,,,,,,,,,
,do_trial,321,778485,0.0-172.0-0.0,535.1000001430511,,,,,,50,1,1,0,3,highway,115,0.31300686410267253,0.6254899388849965,0.25236106781213574,1,learn
,html-keyboard-response,322,779496,0.0-172.0-1.0,null,,,<p></p>,null,,,,,,,,,,,
,do_trial,323,782433,0.0-173.0-0.0,434.2999999523163,,,,,,50,0,0,0,3,highway,116,0.2769737964218767,0.6490895991282427,0.2693566766165484,0,learn
,html-keyboard-response,324,783434,0.0-173.0-1.0,null,,,<p></p>,null,,,,,,,,,,,
,do_trial,325,786333,0.0-174.0-0.0,396.40000009536743,,,,,,50,0,1,0,3,highway,117,0.1528656462929988,0.656286973498824,0.28123355703187286,1,learn
,html-keyboard-response,326,787335,0.0-174.0-1.0,null,,,<p></p>,null,,,,,,,,,,,
,do_trial,327,790218,0.0-175.0-0.0,380.2000000476837,,,,,,50,1,1,1,3,highway,118,0.25235612524595197,0.5680280296625678,0.349767278667804,1,learn
,html-keyboard-response,328,791220,0.0-175.0-1.0,null,,,<p></p>,null,,,,,,,,,,,
,do_trial,329,794395,0.0-176.0-0.0,673.2000000476837,,,,,,50,0,0,0,3,highway,119,0.20813962213346202,0.5179662729229443,0.14121782925362217,0,learn
,html-keyboard-response,330,795397,0.0-176.0-1.0,null,,,<p></p>,null,,,,,,,,,,,
,do_trial,331,798199,0.0-177.0-0.0,300.09999990463257,,,,,,50,1,1,0,3,highway,120,0.17545558347147883,0.40055767357518224,0.17731043580849037,1,learn
,html-keyboard-response,332,799200,0.0-177.0-1.0,null,,,<p></p>,null,,,,,,,,,,,
,do_trial,333,802185,0.0-178.0-0.0,483.19999980926514,,,,,,50,0,0,0,3,highway,121,0.10299840983158955,0.3526420836746096,0.05479143672232667,0,learn
,html-keyboard-response,334,803187,0.0-178.0-1.0,null,,,<p></p>,null,,,,,,,,,,,
,do_trial,335,806075,0.0-179.0-0.0,381.89999985694885,,,,,,50,0,0,0,3,highway,122,0.12401482913595821,0.16434471960160363,0.1758622097845074,0,learn
,html-keyboard-response,336,807077,0.0-179.0-1.0,null,,,<p></p>,null,,,,,,,,,,,
,do_trial,337,810252,0.0-180.0-0.0,673.2999999523163,,,,,,50,1,0,0,3,highway,123,0.18683976508689143,0.05660005427022227,0.48042479370443675,0,learn
,html-keyboard-response,338,811254,0.0-180.0-1.0,null,,,<p></p>,null,,,,,,,,,,,
,do_trial,339,814139,0.0-181.0-0.0,382.7000000476837,,,,,,50,1,0,1,3,highway,124,0.14082845512650624,0.1799318071228857,0.5785434327142366,0,learn
,html-keyboard-response,340,815141,0.0-181.0-1.0,null,,,<p></p>,null,,,,,,,,,,,
,do_trial,341,818074,0.0-182.0-0.0,431.5,,,,,,51,0,1,1,3,highway,125,0.06089381281383311,0.20004917158723884,0.6042271864904692,1,learn
,html-keyboard-response,342,819076,0.0-182.0-1.0,null,,,<p></p>,null,,,,,,,,,,,
,do_trial,343,822007,0.0-183.0-0.0,428.90000009536743,,,,,,51,0,0,0,3,highway,126,0.0541097711213139,0.1093709439324305,0.6639256018800705,0,learn
,html-keyboard-response,344,823021,0.0-183.0-1.0,null,,,<p></p>,null,,,,,,,,,,,
,do_trial,345,826108,0.0-184.0-0.0,584.5,,,,,,51,1,0,1,3,highway,127,0.19486373705730672,0.18234128531310556,0.6373373978793779,1,learn
,html-keyboard-response,346,827117,0.0-184.0-1.0,null,,,<p></p>,null,,,,,,,,,,,
,do_trial,347,829975,0.0-185.0-0.0,355.80000019073486,,,,,,51,0,0,0,3,highway,128,0.1633546580050163,0.06666403036166674,0.5349764293088953,0,learn
,html-keyboard-response,348,830976,0.0-185.0-1.0,null,,,<p></p>,null,,,,,,,,,,,
,do_trial,349,833798,0.0-186.0-0.0,320.10000014305115,,,,,,51,0,0,1,3,highway,129,0.22973880766459562,0.15047874829187044,0.6947654231135654,1,learn
,html-keyboard-response,350,834800,0.0-186.0-1.0,null,,,<p></p>,null,,,,,,,,,,,
,do_trial,351,837650,0.0-187.0-0.0,348.30000019073486,,,,,,51,1,0,0,3,highway,130,0.23864464533641727,0.2617443556925382,0.5992415616828428,0,learn
,html-keyboard-response,352,838651,0.0-187.0-1.0,null,,,<p></p>,null,,,,,,,,,,,
,do_trial,353,841511,0.0-188.0-0.0,351.89999985694885,,,,,,51,0,0,0,3,highway,131,0.2624928001894571,0.2052442453995496,0.62479681350181,0,learn
,html-keyboard-response,354,842513,0.0-188.0-1.0,null,,,<p></p>,null,,,,,,,,,,,
,do_trial,355,845407,0.0-189.0-0.0,393.09999990463257,,,,,,51,0,1,1,3,highway,132,0.21265525715778835,0.17783205206597485,0.5985670864796359,1,learn
,html-keyboard-response,356,846409,0.0-189.0-1.0,null,,,<p></p>,null,,,,,,,,,,,
,do_trial,357,849403,0.0-190.0-0.0,491.5,,,,,,51,1,1,1,3,highway,133,0.24931566965768714,0.14931405853240876,0.5757612138793742,1,learn
,html-keyboard-response,358,850404,0.0-190.0-1.0,null,,,<p></p>,null,,,,,,,,,,,
,do_trial,359,853347,0.0-191.0-0.0,441.2000000476837,,,,,,51,0,0,1,3,highway,134,0.29604054750684033,0.18895617590768518,0.49490782297058344,1,learn
,html-keyboard-response,360,854349,0.0-191.0-1.0,null,,,<p></p>,null,,,,,,,,,,,
,do_trial,361,857154,0.0-192.0-0.0,303.5,,,,,,51,0,0,1,3,highway,135,0.20524336535652438,0.207111588642749,0.5296016404433567,1,learn
,html-keyboard-response,362,858156,0.0-192.0-1.0,null,,,<p></p>,null,,,,,,,,,,,
,do_trial,363,861270,0.0-193.0-0.0,611,,,,,,51,1,0,1,3,highway,136,0.3208591553820734,0.20730883663077002,0.5599487515953209,1,learn
,html-keyboard-response,364,862271,0.0-193.0-1.0,null,,,<p></p>,null,,,,,,,,,,,
,do_trial,365,865502,0.0-194.0-0.0,727.9000000953674,,,,,,51,0,0,0,3,highway,137,0.29198110063800026,0.15696969273944386,0.584799073499635,0,learn
,html-keyboard-response,366,866503,0.0-194.0-1.0,null,,,<p></p>,null,,,,,,,,,,,
,do_trial,367,869492,0.0-195.0-0.0,486.90000009536743,,,,,,51,0,0,0,3,highway,138,0.41253690899290135,0.17549489388369557,0.5532684089796438,0,learn
,html-keyboard-response,368,870493,0.0-195.0-1.0,null,,,<p></p>,null,,,,,,,,,,,
,do_trial,369,873679,0.0-196.0-0.0,683.8999998569489,,,,,,49,1,0,1,3,highway,139,0.45329932938333883,0.1252605952379494,0.576445165982712,1,learn
,html-keyboard-response,370,874681,0.0-196.0-1.0,null,,,<p></p>,null,,,,,,,,,,,
,do_trial,371,877374,0.0-197.0-0.0,190.79999995231628,,,,,,49,1,1,0,3,highway,140,0.3455742565049303,0.15320664801555955,0.6133786614682992,1,learn
,html-keyboard-response,372,878376,0.0-197.0-1.0,null,,,<p></p>,null,,,,,,,,,,,
,do_trial,373,881228,0.0-198.0-0.0,344,,,,,,49,0,0,1,3,highway,141,0.4583477008505862,0.10733034623945266,0.7077299564109152,0,learn
,html-keyboard-response,374,882229,0.0-198.0-1.0,null,,,<p></p>,null,,,,,,,,,,,
,do_trial,375,885085,0.0-199.0-0.0,354,,,,,,49,0,0,1,3,highway,142,0.5089062521875259,0.1055632714071292,0.43703947316740754,0,learn
,html-keyboard-response,376,886086,0.0-199.0-1.0,null,,,<p></p>,null,,,,,,,,,,,
,do_trial,377,888979,0.0-200.0-0.0,391.2000000476837,,,,,,50,1,0,1,3,highway,143,0.3451537366260219,0.1485373579826394,0.4911648857305649,0,learn
,html-keyboard-response,378,889980,0.0-200.0-1.0,null,,,<p></p>,null,,,,,,,,,,,
,do_trial,379,893121,0.0-201.0-0.0,639.6000001430511,,,,,,51,1,0,0,3,highway,144,0.258867819928447,0.12750243265145197,0.4380386223589588,0,learn
,html-keyboard-response,380,894123,0.0-201.0-1.0,null,,,<p></p>,null,,,,,,,,,,,
,do_trial,381,896996,0.0-202.0-0.0,371.40000009536743,,,,,,49,1,0,0,3,highway,145,0.17282831338738028,0.11548338904182509,0.4685728947169925,1,learn
,html-keyboard-response,382,897997,0.0-202.0-1.0,null,,,<p></p>,null,,,,,,,,,,,
,do_trial,383,900885,0.0-203.0-0.0,385.2000000476837,,,,,,49,1,0,1,3,highway,146,0.18716563679985512,0.06075682251438703,0.5379707514545026,1,learn
,html-keyboard-response,384,901886,0.0-203.0-1.0,null,,,<p></p>,null,,,,,,,,,,,
,do_trial,385,904733,0.0-204.0-0.0,346.10000014305115,,,,,,49,1,0,1,3,highway,147,0.2810324125308787,0.16669261702838653,0.580324627810731,1,learn
,html-keyboard-response,386,905734,0.0-204.0-1.0,null,,,<p></p>,null,,,,,,,,,,,
,do_trial,387,908370,0.0-205.0-0.0,134.5,,,,,,49,0,0,1,3,highway,148,0.27623855545328485,0.09340371062615742,0.40217936840757196,0,learn
,html-keyboard-response,388,909372,0.0-205.0-1.0,null,,,<p></p>,null,,,,,,,,,,,
,do_trial,389,912357,0.0-206.0-0.0,476.2000000476837,,,,,,49,0,1,0,3,highway,149,0.32807281384167813,0.2425782301822883,0.5861343384441683,0,learn
,html-keyboard-response,390,913365,0.0-206.0-1.0,null,,,<p></p>,null,,,,,,,,,,,
,do_bye,391,914868,0.0-207.0-0.0,null,,,,,,null,,,,,,,,,
,do_travel,392,923876,0.0-208.0-0.0,null,,,,,,null,,,,,,,,,
