success,trial_type,trial_index,time_elapsed,internal_node_id,rt,responses,subject_id,stimulus,key_press,prompt,response,choice_outcomes,context_n,context_img_id,trial_n,pR_red,pR_white,pR_black,outcome,phase
true,fullscreen,0,9971,0.0-0.0,,,,,,,,,,,,,,,,
,survey-html-form,1,15192,0.0-1.0,5218.0999999940395,{worker_id:69cf2cd9f3697c337059c5c1},69cf2cd9f3697c337059c5c1,,,,,,,,,,,,,
,instruc1,2,17195,0.0-2.0,null,,69cf2cd9f3697c337059c5c1,<div class='center'><p>Welcome! This study will last ~30 minutes. After the instructions there will be a practice game and quiz to make sure you understand the task. Today you will be the head captain of a pirate ship traveling around the world to different islands. Here is an overview of what you will be doing:</p><br><p> 1. Try to find the most successful pirate on 6 different islands</p><p> 2. Recall which pirates did the best on each island</p><br><p>,null,<div class='center'><p>Welcome! This study will last ~30 minutes. After the instructions there will be a practice game and quiz to make sure you understand the task. Today you will be the head captain of a pirate ship traveling around the world to different islands. Here is an overview of what you will be doing:</p><br><p> 1. Try to find the most successful pirate on 6 different islands</p><p> 2. Recall which pirates did the best on each island</p><br><p>,,,,,,,,,,
,html-keyboard-response,3,33200,0.0-3.0,16002,,,<div class='center'><p>Welcome! This study will last ~30 minutes. After the instructions there will be a practice game and quiz to make sure you understand the task. Today you will be the head captain of a pirate ship traveling around the world to different islands. Here is an overview of what you will be doing:</p><br><p> 1. Try to find the most successful pirate on 6 different islands</p><p> 2. Recall which pirates did the best on each island</p><br><p><p><b>[Press the space bar to continue]</b></p></div>,32,,,,,,,,,,,
,instruc2,4,35201,0.0-4.0,null,,,<div class='center'><p>You are going to visit these 6 islands on your journey. You'll be able to see these islands from your ship.</p><p><img src='../static/images/contexts/all_contexts.png' height='500'></p></div>,null,<div class='center'><p>You are going to visit these 6 islands on your journey. You'll be able to see these islands from your ship.</p><p><img src='../static/images/contexts/all_contexts.png' height='500'></p></div>,,,,,,,,,,
,html-keyboard-response,5,47996,0.0-5.0,12793.699999988079,,,<div class='center'><p>You are going to visit these 6 islands on your journey. You'll be able to see these islands from your ship.</p><p><img src='../static/images/contexts/all_contexts.png' height='500'></p><p><b>[Press the space bar to continue]</b></p></div>,32,,,,,,,,,,,
,instruc4,6,50001,0.0-6.0,null,,,<div class='center'><p>As the head captain, you do not have to rob any ships yourself. Another pirate will be doing the robbing for you. First, you will choose a pirate to rob the next ship.</p><p><img src='../static/images/tutorial/pirates_all_crop.png' height='200'></p><p>Then, you'll see if the pirate successfully robbed the ship of their gold. If they were successful, then you'll get a stack of gold coins like this:</p><p><img src='../static/images/tutorial/reward.png' height='150'></p><p> If they were <b>not</b> successful, then you'll get no gold coins, and you'll see a big red x like this: </p><p><img src='../static/images/tutorial/reward_no.png' height='150'></p><p> How much bonus money you make is based on how many gold coins you collect.</p><div>,null,<div class='center'><p>As the head captain, you do not have to rob any ships yourself. Another pirate will be doing the robbing for you. First, you will choose a pirate to rob the next ship.</p><p><img src='../static/images/tutorial/pirates_all_crop.png' height='200'></p><p>Then, you'll see if the pirate successfully robbed the ship of their gold. If they were successful, then you'll get a stack of gold coins like this:</p><p><img src='../static/images/tutorial/reward.png' height='150'></p><p> If they were <b>not</b> successful, then you'll get no gold coins, and you'll see a big red x like this: </p><p><img src='../static/images/tutorial/reward_no.png' height='150'></p><p> How much bonus money you make is based on how many gold coins you collect.</p><div>,,,,,,,,,,
,html-keyboard-response,7,57215,0.0-7.0,7213.100000008941,,,<div class='center'><p>As the head captain, you do not have to rob any ships yourself. Another pirate will be doing the robbing for you. First, you will choose a pirate to rob the next ship.</p><p><img src='../static/images/tutorial/pirates_all_crop.png' height='200'></p><p>Then, you'll see if the pirate successfully robbed the ship of their gold. If they were successful, then you'll get a stack of gold coins like this:</p><p><img src='../static/images/tutorial/reward.png' height='150'></p><p> If they were <b>not</b> successful, then you'll get no gold coins, and you'll see a big red x like this: </p><p><img src='../static/images/tutorial/reward_no.png' height='150'></p><p> How much bonus money you make is based on how many gold coins you collect.</p><div><p><b>[Press the space bar to continue]</b></p></div>,32,,,,,,,,,,,
,instruc5,8,77404,0.0-8.0,20185.70000000298,,,<div class='center'><p>Even the most skilled pirate can not rob EVERY ship.</p><p> Some ships will have very strong protections against pirate attacks.</p><p> Blue beard, here, is very, very good at robbing ships, but he won't be successful every time he tries to rob one.</p><p> You can press the <b>'1'</b> key on the keyboard to choose him.</p><p> Try choosing him 10 times to see how often he succeeds at robbing a ship. </p><p><img src='../static/images/tutorial/blue.png' height='500'></p></div>,49,<div class='center'><p>Even the most skilled pirate can not rob EVERY ship.</p><p> Some ships will have very strong protections against pirate attacks.</p><p> Blue beard, here, is very, very good at robbing ships, but he won't be successful every time he tries to rob one.</p><p> You can press the <b>'1'</b> key on the keyboard to choose him.</p><p> Try choosing him 10 times to see how often he succeeds at robbing a ship. </p><p><img src='../static/images/tutorial/blue.png' height='500'></p></div>,,,,,,,,,,
,html-keyboard-response,9,78907,0.0-9.0,null,,,<div class='center'><p><img src='../static/images/tutorial/blue_win.png' height='500'></p></div>,null,,,,,,,,,,,
,html-keyboard-response,10,78935,0.0-10.0,26,,,<div class='center'><img src='../static/images/tutorial/blue.png' height='500'></p></div>,49,,,,,,,,,,,
,html-keyboard-response,11,80437,0.0-11.0,null,,,<div class='center'><p><img src='../static/images/tutorial/blue_win.png' height='500'></p></div>,null,,,,,,,,,,,
,html-keyboard-response,12,80440,0.0-12.0,2.0999999940395355,,,<div class='center'><img src='../static/images/tutorial/blue.png' height='500'></p></div>,49,,,,,,,,,,,
,html-keyboard-response,13,81941,0.0-13.0,null,,,<div class='center'><p><img src='../static/images/tutorial/blue_win.png' height='500'></p></div>,null,,,,,,,,,,,
,html-keyboard-response,14,82014,0.0-14.0,70.40000000596046,,,<div class='center'><img src='../static/images/tutorial/blue.png' height='500'></p></div>,49,,,,,,,,,,,
,html-keyboard-response,15,83516,0.0-15.0,null,,,<div class='center'><p><img src='../static/images/tutorial/blue_no_win.png' height='500'></p></div>,null,,,,,,,,,,,
,html-keyboard-response,16,88190,0.0-16.0,4672.5999999940395,,,<div class='center'><img src='../static/images/tutorial/blue.png' height='500'></p></div>,49,,,,,,,,,,,
,html-keyboard-response,17,89692,0.0-17.0,null,,,<div class='center'><p><img src='../static/images/tutorial/blue_win.png' height='500'></p></div>,null,,,,,,,,,,,
,html-keyboard-response,18,92254,0.0-18.0,2561.0999999940395,,,<div class='center'><img src='../static/images/tutorial/blue.png' height='500'></p></div>,49,,,,,,,,,,,
,html-keyboard-response,19,93756,0.0-19.0,null,,,<div class='center'><p><img src='../static/images/tutorial/blue_win.png' height='500'></p></div>,null,,,,,,,,,,,
,html-keyboard-response,20,94639,0.0-20.0,880.9000000059605,,,<div class='center'><img src='../static/images/tutorial/blue.png' height='500'></p></div>,49,,,,,,,,,,,
,html-keyboard-response,21,96141,0.0-21.0,null,,,<div class='center'><p><img src='../static/images/tutorial/blue_win.png' height='500'></p></div>,null,,,,,,,,,,,
,html-keyboard-response,22,96548,0.0-22.0,405.70000000298023,,,<div class='center'><img src='../static/images/tutorial/blue.png' height='500'></p></div>,49,,,,,,,,,,,
,html-keyboard-response,23,98050,0.0-23.0,null,,,<div class='center'><p><img src='../static/images/tutorial/blue_no_win.png' height='500'></p></div>,null,,,,,,,,,,,
,html-keyboard-response,24,99236,0.0-24.0,1185.2999999970198,,,<div class='center'><img src='../static/images/tutorial/blue.png' height='500'></p></div>,49,,,,,,,,,,,
,html-keyboard-response,25,100737,0.0-25.0,null,,,<div class='center'><p><img src='../static/images/tutorial/blue_win.png' height='500'></p></div>,null,,,,,,,,,,,
,html-keyboard-response,26,101661,0.0-26.0,922.2000000029802,,,<div class='center'><img src='../static/images/tutorial/blue.png' height='500'></p></div>,49,,,,,,,,,,,
,html-keyboard-response,27,103163,0.0-27.0,null,,,<div class='center'><p><img src='../static/images/tutorial/blue_win.png' height='500'></p></div>,null,,,,,,,,,,,
,instruc6,28,105165,0.0-28.0,null,,,<div class='center'><p> See, he succeeded in robbing the ships most of the time but not every time. </p></div>,null,<div class='center'><p> See, he succeeded in robbing the ships most of the time but not every time. </p></div>,,,,,,,,,,
,html-keyboard-response,29,108774,0.0-29.0,3607.1000000089407,,,<div class='center'><p> See, he succeeded in robbing the ships most of the time but not every time. </p><p><b>[Press the space bar to continue]</b></p></div>,32,,,,,,,,,,,
,html-keyboard-response,30,115171,0.0-30.0,6395.79999999702,,,<div class='center'><p>From these three pirates, you will get to choose which one you want to rob the next ship. <p>Press the <b>'1'</b> key on your keyboard to pick the pirate with the red beard.</p><p> Press <b>'2'</b> to pick the pirate with the white beard.</p><p> Press <b>'3'</b> to pick the pirate with the black beard.</p><p>Try picking a pirate now!</p><p><img src='../static/images/tutorial/all_pirates.png' height='500'></p></div>,51,,,,,,,,,,,
,html-keyboard-response,31,116648,0.0-31.0-0.0,1474.1000000089407,,,<div class='center'><p>Yay! This pirate succeeded in robbing the ship!</p><p><img src='../static/images/tutorial/black_win.png' height='500'></p><p><b>[Press the space bar to continue]</b></p></div>,32,,,,,,,,,,,
,html-keyboard-response,32,118438,0.0-31.0-1.0,1788.1000000089407,,,<div class='center'><p>Now try choosing another.</p><p><img src='../static/images/tutorial/all_pirates.png' height='500'></p></div>,51,,,,,,,,,,,
,html-keyboard-response,33,119383,0.0-32.0-0.0,942.7000000029802,,,<div class='center'><p>Oh no! This pirate did not succeed in robbing the ship.</p><p><img src='../static/images/tutorial/black_no_win.png' height='500'></p><p><b>[Press the space bar to continue]</b></p></div>,32,,,,,,,,,,,
,instruc9,34,121385,0.0-33.0-0.0,null,,,<div class='center'><p>If you don't make your choice fast enough, you'll have to wait a few seconds before you can make another one. </p><p><img src='../static/images/miscellaneous/hurry_up.png' height='500'></p></div>,null,<div class='center'><p>If you don't make your choice fast enough, you'll have to wait a few seconds before you can make another one. </p><p><img src='../static/images/miscellaneous/hurry_up.png' height='500'></p></div>,,,,,,,,,,
,html-keyboard-response,35,121626,0.0-33.0-1.0,238.80000001192093,,,<div class='center'><p>If you don't make your choice fast enough, you'll have to wait a few seconds before you can make another one. </p><p><img src='../static/images/miscellaneous/hurry_up.png' height='500'></p><p><b>[Press the space bar to continue]</b></p></div>,32,,,,,,,,,,,
,instruc11,36,123628,0.0-33.0-2.0,null,,,<div class='center'><p>How successful a pirate is at robbing ships will depend on the island you're on.</p><p> A pirate may have visited this island many times before and gained a lot of practice robbing ships there.</p><p>So, they're more likely to be successful than a pirate who has never visited the island before.</p></div>,null,<div class='center'><p>How successful a pirate is at robbing ships will depend on the island you're on.</p><p> A pirate may have visited this island many times before and gained a lot of practice robbing ships there.</p><p>So, they're more likely to be successful than a pirate who has never visited the island before.</p></div>,,,,,,,,,,
,html-keyboard-response,37,139502,0.0-33.0-3.0,15872.09999999404,,,<div class='center'><p>How successful a pirate is at robbing ships will depend on the island you're on.</p><p> A pirate may have visited this island many times before and gained a lot of practice robbing ships there.</p><p>So, they're more likely to be successful than a pirate who has never visited the island before.</p><p><b>[Press the space bar to continue]</b></p></div>,32,,,,,,,,,,,
,instruc12,38,141504,0.0-33.0-4.0,null,,,<div class='center'><p>How successful a pirate is at robbing ships can also change over the time spent on the island. </p><p> Ships may hear from islanders about the pirates coming and will improve their protections against the attack. This may make it harder to rob them.</p><p> Ships may also become lazy and weaken the strength of their protections. This may make it easier to rob them.</p><br><p>Things are always changing on the high seas! So, try your best to pay attention!</p><p><img src='../static/images/tutorial/contingency.png' height='500'></p></div>,null,<div class='center'><p>How successful a pirate is at robbing ships can also change over the time spent on the island. </p><p> Ships may hear from islanders about the pirates coming and will improve their protections against the attack. This may make it harder to rob them.</p><p> Ships may also become lazy and weaken the strength of their protections. This may make it easier to rob them.</p><br><p>Things are always changing on the high seas! So, try your best to pay attention!</p><p><img src='../static/images/tutorial/contingency.png' height='500'></p></div>,,,,,,,,,,
,html-keyboard-response,39,152435,0.0-33.0-5.0,10929.60000000894,,,<div class='center'><p>How successful a pirate is at robbing ships can also change over the time spent on the island. </p><p> Ships may hear from islanders about the pirates coming and will improve their protections against the attack. This may make it harder to rob them.</p><p> Ships may also become lazy and weaken the strength of their protections. This may make it easier to rob them.</p><br><p>Things are always changing on the high seas! So, try your best to pay attention!</p><p><img src='../static/images/tutorial/contingency.png' height='500'></p><p><b>[Press the space bar to continue]</b></p></div>,32,,,,,,,,,,,
,instruc13,40,154437,0.0-33.0-6.0,null,,,<div class='center'><p>Let's go over the instructions quickly again. You have one thing to do: </p><p><b>Pick the pirate who is the best at robbing ships on the current island.</b></p><p>The amount of bonus money you win depends on it.</p><br><p>Let's try a practice game. The game will start by showing you an island. Pick a pirate using the <b>1, 2, 3</b> keys on your keyboard to get it to try and rob one of the ships leaving the island.</p><p>This is just a practice game, so you're not playing for money.</p><p>Good luck! This game will be very difficult but try your best!</p></div>,null,<div class='center'><p>Let's go over the instructions quickly again. You have one thing to do: </p><p><b>Pick the pirate who is the best at robbing ships on the current island.</b></p><p>The amount of bonus money you win depends on it.</p><br><p>Let's try a practice game. The game will start by showing you an island. Pick a pirate using the <b>1, 2, 3</b> keys on your keyboard to get it to try and rob one of the ships leaving the island.</p><p>This is just a practice game, so you're not playing for money.</p><p>Good luck! This game will be very difficult but try your best!</p></div>,,,,,,,,,,
,html-keyboard-response,41,179422,0.0-33.0-7.0,24983.70000000298,,,<div class='center'><p>Let's go over the instructions quickly again. You have one thing to do: </p><p><b>Pick the pirate who is the best at robbing ships on the current island.</b></p><p>The amount of bonus money you win depends on it.</p><br><p>Let's try a practice game. The game will start by showing you an island. Pick a pirate using the <b>1, 2, 3</b> keys on your keyboard to get it to try and rob one of the ships leaving the island.</p><p>This is just a practice game, so you're not playing for money.</p><p>Good luck! This game will be very difficult but try your best!</p><p><b>[Press the space bar to continue]</b></p></div>,32,,,,,,,,,,,
,do_welcome,42,183436,0.0-33.0-8.0,null,,,,,,null,,,,,,,,,
,do_trial,43,189441,0.0-33.0-9.0,null,,,,,,null,1,0,0,,,,,,,,
,html-keyboard-response,44,190443,0.0-34.0-0.0,null,,,<p></p>,null,,,,,,,,,,,
,do_trial,45,193505,0.0-34.0-1.0,557.6999999880791,,,,,,50,1,0,0,,,,,,,,
,html-keyboard-response,46,194506,0.0-35.0-0.0,null,,,<p></p>,null,,,,,,,,,,,
,do_trial,47,197123,0.0-35.0-1.0,108.5,,,,,,49,1,1,0,,,,,,,,
,html-keyboard-response,48,198125,0.0-36.0-0.0,null,,,<p></p>,null,,,,,,,,,,,
,do_trial,49,201122,0.0-36.0-1.0,487.79999999701977,,,,,,51,1,0,1,,,,,,,,
,html-keyboard-response,50,202124,0.0-37.0-0.0,null,,,<p></p>,null,,,,,,,,,,,
,do_trial,51,205565,0.0-37.0-1.0,937.3000000119209,,,,,,49,0,1,0,,,,,,,,
,html-keyboard-response,52,206568,0.0-38.0-0.0,null,,,<p></p>,null,,,,,,,,,,,
,do_trial,53,209444,0.0-38.0-1.0,367.40000000596046,,,,,,49,1,0,0,,,,,,,,
,do_bye,54,210956,0.0-39.0-0.0,null,,,,,,null,,,,,,,,,
,do_travel,55,219960,0.0-39.0-1.0,null,,,,,,null,,,,,,,,,
,do_welcome,56,223965,0.0-39.0-2.0,null,,,,,,null,,,,,,,,,
,do_trial,57,227462,0.0-39.0-3.0,993.7999999970198,,,,,,51,1,0,0,,,,,,,,
,html-keyboard-response,58,228464,0.0-40.0-0.0,null,,,<p></p>,null,,,,,,,,,,,
,do_trial,59,231202,0.0-40.0-1.0,229.5,,,,,,49,1,0,1,,,,,,,,
,html-keyboard-response,60,232204,0.0-41.0-0.0,null,,,<p></p>,null,,,,,,,,,,,
,do_trial,61,234903,0.0-41.0-1.0,194.09999999403954,,,,,,50,1,1,0,,,,,,,,
,html-keyboard-response,62,235905,0.0-42.0-0.0,null,,,<p></p>,null,,,,,,,,,,,
,do_trial,63,238603,0.0-42.0-1.0,188.70000000298023,,,,,,49,0,0,1,,,,,,,,
,html-keyboard-response,64,239605,0.0-43.0-0.0,null,,,<p></p>,null,,,,,,,,,,,
,do_trial,65,242360,0.0-43.0-1.0,245.70000000298023,,,,,,51,1,0,1,,,,,,,,
,html-keyboard-response,66,246965,0.0-44.0-0.0,4603.600000008941,,,<div class='center'><p><img src='../static/images/tutorial/prac_best_pirate.png' height='500'></p></div>,49,,,,,,,,,,,
,html-keyboard-response,67,248890,0.0-45.0-0.0,1923,,,<div class='center'><p>That's correct! Red beard was the best.</p><p><b>[Press the space bar to continue]</b></p></div>,32,,,,,,,,,,,
,quiz_beginning,68,250892,0.0-45.0-1.0,null,,,<div class='center'><p>Good job on the practice game! Now, you will be asked some true or false questions to make sure you really understand the rules of the game.</p><p> Press <b>'1'</b> on the keyboard for true and press <b>'2'</b> for false.</p></div>,null,<div class='center'><p>Good job on the practice game! Now, you will be asked some true or false questions to make sure you really understand the rules of the game.</p><p> Press <b>'1'</b> on the keyboard for true and press <b>'2'</b> for false.</p></div>,,,,,,,,,,
,html-keyboard-response,69,259230,0.0-45.0-2.0,8336.29999999702,,,<div class='center'><p>You win bonus money by collecting gold coins.</p><p>Press 1 for true and press  2 for false.</p></div>,49,,,,,,,,,,,
,correct,70,261233,0.0-46.0-0.0,null,,,<div class='center'><p>That's correct!</p></div>,null,<div class='center'><p>That's correct!</p></div>,,,,,,,,,,
,html-keyboard-response,71,262872,0.0-46.0-1.0,1637.5,,,<div class='center'><p>That's correct!</p><p><b>[Press the space bar to continue]</b></p></div>,32,,,,,,,,,,,
,html-keyboard-response,72,269495,0.0-46.0-2.0,6622.399999991059,,,<div class='center'><p>The pirate who is the best at robbing ships when you first arrive on the island will definitely still be the best when you leave the island. </p><p>Press 1 for true and press  2 for false.</p></div>,49,,,,,,,,,,,
,q2_err,73,271496,0.0-47.0-0.0,null,,,<div class='center'><p>That’s incorrect. Which pirate is the best may change during your time on the island.</p></div>,null,<div class='center'><p>That’s incorrect. Which pirate is the best may change during your time on the island.</p></div>,,,,,,,,,,
,html-keyboard-response,74,275006,0.0-47.0-1.0,3508.2000000029802,,,<div class='center'><p>That’s incorrect. Which pirate is the best may change during your time on the island.</p><p><b>[Press the space bar to continue]</b></p></div>,32,,,,,,,,,,,
,html-keyboard-response,75,283966,0.0-47.0-2.0,8959.5,,,<div class='center'><p>The pirate who is the best at robbing ships on the first island will be the best on every other island.</p><p>Press 1 for true and press  2 for false.</p></div>,49,,,,,,,,,,,
,q3_err,76,285969,0.0-48.0-0.0,null,,,<div class='center'><p>That’s incorrect. How good a pirate is at robbing ships will change from island to island!</p></div>,null,<div class='center'><p>That’s incorrect. How good a pirate is at robbing ships will change from island to island!</p></div>,,,,,,,,,,
,html-keyboard-response,77,287596,0.0-48.0-1.0,1625.800000011921,,,<div class='center'><p>That’s incorrect. How good a pirate is at robbing ships will change from island to island!</p><p><b>[Press the space bar to continue]</b></p></div>,32,,,,,,,,,,,
,html-keyboard-response,78,291564,0.0-48.0-2.0,3967.300000011921,,,<div class='center'><p>You should remember the island where a pirate robbed a ship.</p><p>Press 1 for true and press  2 for false.</p></div>,49,,,,,,,,,,,
,correct,79,293566,0.0-49.0-0.0,null,,,<div class='center'><p>That's correct!</p></div>,null,<div class='center'><p>That's correct!</p></div>,,,,,,,,,,
,html-keyboard-response,80,294809,0.0-49.0-1.0,1241.7000000029802,,,<div class='center'><p>That's correct!</p><p><b>[Press the space bar to continue]</b></p></div>,32,,,,,,,,,,,
,q_all_err,81,296811,0.0-50.0-0.0,null,,,<div class='center'><p>Oops, you missed some questions. Now that you’ve heard the correct answers. Try the quiz again! </p></div>,null,<div class='center'><p>Oops, you missed some questions. Now that you’ve heard the correct answers. Try the quiz again! </p></div>,,,,,,,,,,
,html-keyboard-response,82,299089,0.0-50.0-1.0,2276.5,,,<div class='center'><p>Oops, you missed some questions. Now that you’ve heard the correct answers. Try the quiz again! </p><p><b>[Press the space bar to continue]</b></p></div>,32,,,,,,,,,,,
,html-keyboard-response,83,300761,0.0-50.0-2.0,1670.2999999970198,,,<div class='center'><p>You win bonus money by collecting gold coins.</p><p>Press 1 for true and press  2 for false.</p></div>,49,,,,,,,,,,,
,correct,84,302763,0.0-51.0-0.0,null,,,<div class='center'><p>That's correct!</p></div>,null,<div class='center'><p>That's correct!</p></div>,,,,,,,,,,
,html-keyboard-response,85,303725,0.0-51.0-1.0,960.7000000029802,,,<div class='center'><p>That's correct!</p><p><b>[Press the space bar to continue]</b></p></div>,32,,,,,,,,,,,
,html-keyboard-response,86,305635,0.0-51.0-2.0,1908.6000000089407,,,<div class='center'><p>The pirate who is the best at robbing ships when you first arrive on the island will definitely still be the best when you leave the island. </p><p>Press 1 for true and press  2 for false.</p></div>,50,,,,,,,,,,,
,correct,87,307637,0.0-52.0-0.0,null,,,<div class='center'><p>That's correct!</p></div>,null,<div class='center'><p>That's correct!</p></div>,,,,,,,,,,
,html-keyboard-response,88,308703,0.0-52.0-1.0,1064.8999999910593,,,<div class='center'><p>That's correct!</p><p><b>[Press the space bar to continue]</b></p></div>,32,,,,,,,,,,,
,html-keyboard-response,89,310800,0.0-52.0-2.0,2095.7999999970198,,,<div class='center'><p>The pirate who is the best at robbing ships on the first island will be the best on every other island.</p><p>Press 1 for true and press  2 for false.</p></div>,50,,,,,,,,,,,
,correct,90,312803,0.0-53.0-0.0,null,,,<div class='center'><p>That's correct!</p></div>,null,<div class='center'><p>That's correct!</p></div>,,,,,,,,,,
,html-keyboard-response,91,313446,0.0-53.0-1.0,642.2999999970198,,,<div class='center'><p>That's correct!</p><p><b>[Press the space bar to continue]</b></p></div>,32,,,,,,,,,,,
,html-keyboard-response,92,314814,0.0-53.0-2.0,1366.2000000029802,,,<div class='center'><p>You should remember the island where a pirate robbed a ship.</p><p>Press 1 for true and press  2 for false.</p></div>,49,,,,,,,,,,,
,correct,93,316837,0.0-54.0-0.0,null,,,<div class='center'><p>That's correct!</p></div>,null,<div class='center'><p>That's correct!</p></div>,,,,,,,,,,
,html-keyboard-response,94,317402,0.0-54.0-1.0,563.2000000029802,,,<div class='center'><p>That's correct!</p><p><b>[Press the space bar to continue]</b></p></div>,32,,,,,,,,,,,
,q_all_corr,95,319404,0.0-55.0-0.0,null,,,<div class='center'><p>Good job! You’re now ready to move on to the real game! Remember this game will be difficult but don't get discouraged and try your best!</p></div>,null,<div class='center'><p>Good job! You’re now ready to move on to the real game! Remember this game will be difficult but don't get discouraged and try your best!</p></div>,,,,,,,,,,
,html-keyboard-response,96,322937,0.0-55.0-1.0,3530.7999999970198,,,<div class='center'><p>Good job! You’re now ready to move on to the real game! Remember this game will be difficult but don't get discouraged and try your best!</p><p><b>[Press the space bar to continue]</b></p></div>,32,,,,,,,,,,,
,do_welcome,97,326971,0.0-56.0-0.0,null,,,,,,null,,,,,,,,,
,do_trial,98,330301,0.0-57.0-0.0,825.3999999910593,,,,,,49,0,0,0,0,coast,0,0.6,0.3,0.1,0,learn
,html-keyboard-response,99,331303,0.0-57.0-1.0,null,,,<p></p>,null,,,,,,,,,,,
,do_trial,100,334049,0.0-58.0-0.0,243.09999999403954,,,,,,51,1,0,0,0,coast,1,0.6583677850307121,0.4474209998810048,0.22414158117252825,0,learn
,html-keyboard-response,101,335051,0.0-58.0-1.0,null,,,<p></p>,null,,,,,,,,,,,
,do_trial,102,338098,0.0-59.0-0.0,537.7000000029802,,,,,,49,1,1,0,0,coast,2,0.6745912093760752,0.39573463140062176,0.29407768543758367,1,learn
,html-keyboard-response,103,339100,0.0-59.0-1.0,null,,,<p></p>,null,,,,,,,,,,,
,do_trial,104,341897,0.0-60.0-0.0,288.5,,,,,,50,1,0,0,0,coast,3,0.6063796903056013,0.31532345058440425,0.1999673970785306,0,learn
,html-keyboard-response,105,342900,0.0-60.0-1.0,null,,,<p></p>,null,,,,,,,,,,,
,do_trial,106,345739,0.0-61.0-0.0,329.69999998807907,,,,,,49,0,0,0,0,coast,4,0.524227569866964,0.17956633120794416,0.16620464666139487,0,learn
,html-keyboard-response,107,346741,0.0-61.0-1.0,null,,,<p></p>,null,,,,,,,,,,,
,do_trial,108,349459,0.0-62.0-0.0,209.5,,,,,,51,1,1,0,0,coast,5,0.5690399686295663,0.236597000690918,0.0953487258759986,0,learn
,html-keyboard-response,109,350461,0.0-62.0-1.0,null,,,<p></p>,null,,,,,,,,,,,
,do_trial,110,353291,0.0-63.0-0.0,325.30000001192093,,,,,,49,1,0,0,0,coast,6,0.6814897577278651,0.18366945800653445,0.07102658044603624,1,learn
,html-keyboard-response,111,354293,0.0-63.0-1.0,null,,,<p></p>,null,,,,,,,,,,,
,do_trial,112,357070,0.0-64.0-0.0,267.5,,,,,,50,0,1,1,0,coast,7,0.7743453402821194,0.28793998283987315,0.20769843755973352,1,learn
,html-keyboard-response,113,358072,0.0-64.0-1.0,null,,,<p></p>,null,,,,,,,,,,,
,do_trial,114,360821,0.0-65.0-0.0,240,,,,,,51,0,0,0,0,coast,8,0.578760870534259,0.24378730743968877,0.09267338226044053,0,learn
,html-keyboard-response,115,361824,0.0-65.0-1.0,null,,,<p></p>,null,,,,,,,,,,,
,do_trial,116,364672,0.0-66.0-0.0,338.59999999403954,,,,,,49,1,0,0,0,coast,9,0.5674252553516685,0.3338913301277939,0.11964678527641115,1,learn
,html-keyboard-response,117,365674,0.0-66.0-1.0,null,,,<p></p>,null,,,,,,,,,,,
,do_trial,118,368468,0.0-67.0-0.0,284.5,,,,,,49,0,0,0,0,coast,10,0.4566447323444233,0.42105918321680136,0.10182876579892124,0,learn
,html-keyboard-response,119,369470,0.0-67.0-1.0,null,,,<p></p>,null,,,,,,,,,,,
,do_trial,120,372155,0.0-68.0-0.0,176.90000000596046,,,,,,50,1,0,0,0,coast,11,0.5301775634107323,0.4841868027105637,0.13585616176967716,0,learn
,html-keyboard-response,121,373158,0.0-68.0-1.0,null,,,<p></p>,null,,,,,,,,,,,
,do_trial,122,375910,0.0-69.0-0.0,243.1000000089407,,,,,,49,0,1,0,0,coast,12,0.5325917688534961,0.3449171206706621,0.07350745042989731,0,learn
,html-keyboard-response,123,376912,0.0-69.0-1.0,null,,,<p></p>,null,,,,,,,,,,,
,do_trial,124,379646,0.0-70.0-0.0,229.5,,,,,,49,1,0,0,0,coast,13,0.5955323830639931,0.3216933958626998,0.11594488507898497,1,learn
,html-keyboard-response,125,380648,0.0-70.0-1.0,null,,,<p></p>,null,,,,,,,,,,,
,do_trial,126,383196,0.0-71.0-0.0,43.20000000298023,,,,,,51,0,1,0,0,coast,14,0.5106075732187143,0.3340421015034452,0.1064190785557304,0,learn
,html-keyboard-response,127,384198,0.0-71.0-1.0,null,,,<p></p>,null,,,,,,,,,,,
,do_trial,128,386922,0.0-72.0-0.0,215,,,,,,51,1,0,0,0,coast,15,0.5300623336817022,0.2953037627876489,0.07207586820290698,0,learn
,html-keyboard-response,129,387925,0.0-72.0-1.0,null,,,<p></p>,null,,,,,,,,,,,
,do_trial,130,390491,0.0-73.0-0.0,57.5,,,,,,50,0,0,0,0,coast,16,0.5301603207052017,0.23197714526512855,0.07776302570850888,0,learn
,html-keyboard-response,131,391494,0.0-73.0-1.0,null,,,<p></p>,null,,,,,,,,,,,
,do_trial,132,394348,0.0-74.0-0.0,345.20000000298023,,,,,,51,0,0,0,0,coast,17,0.5740293355886892,0.21063237040101024,0.10848738526924416,0,learn
,html-keyboard-response,133,395351,0.0-74.0-1.0,null,,,<p></p>,null,,,,,,,,,,,
,do_trial,134,397958,0.0-75.0-0.0,98.80000001192093,,,,,,49,0,0,0,0,coast,18,0.6272454386223884,0.2018931082983726,0.06451088447026168,0,learn
,html-keyboard-response,135,398961,0.0-75.0-1.0,null,,,<p></p>,null,,,,,,,,,,,
,do_trial,136,401769,0.0-76.0-0.0,301,,,,,,51,1,0,0,0,coast,19,0.5933272269400334,0.3296956755435251,0.12711310708955711,0,learn
,html-keyboard-response,137,402772,0.0-76.0-1.0,null,,,<p></p>,null,,,,,,,,,,,
,do_trial,138,405514,0.0-77.0-0.0,233.09999999403954,,,,,,51,1,0,0,0,coast,20,0.6545025089266764,0.40166098429649366,0.08802629654269058,0,learn
,html-keyboard-response,139,406516,0.0-77.0-1.0,null,,,<p></p>,null,,,,,,,,,,,
,do_trial,140,409263,0.0-78.0-0.0,238.20000000298023,,,,,,51,1,1,0,0,coast,21,0.52970719831387,0.34886512929053615,0.20803619121050965,0,learn
,html-keyboard-response,141,410266,0.0-78.0-1.0,null,,,<p></p>,null,,,,,,,,,,,
,do_trial,142,413052,0.0-79.0-0.0,276.59999999403954,,,,,,51,0,0,1,0,coast,22,0.5997943395347165,0.46162246237708304,0.06303969892936005,1,learn
,html-keyboard-response,143,414054,0.0-79.0-1.0,null,,,<p></p>,null,,,,,,,,,,,
,do_trial,144,416892,0.0-80.0-0.0,328.70000000298023,,,,,,49,1,0,0,0,coast,23,0.6016799225737135,0.41497821116976985,0.08752130225360474,1,learn
,html-keyboard-response,145,417894,0.0-80.0-1.0,null,,,<p></p>,null,,,,,,,,,,,
,do_trial,146,420874,0.0-81.0-0.0,471.5,,,,,,49,1,1,0,0,coast,24,0.5956887132080125,0.31795660137371207,0.13194769929571762,1,learn
,html-keyboard-response,147,421876,0.0-81.0-1.0,null,,,<p></p>,null,,,,,,,,,,,
,do_trial,148,424801,0.0-82.0-0.0,421,,,,,,51,1,0,0,0,coast,25,0.509127570296318,0.33519723730134937,0.1760944464540949,0,learn
,html-keyboard-response,149,425803,0.0-82.0-1.0,null,,,<p></p>,null,,,,,,,,,,,
,do_trial,150,428965,0.0-83.0-0.0,653.2999999970198,,,,,,50,0,1,0,0,coast,26,0.6047138718771959,0.19660284368339184,0.19645822058143672,1,learn
,html-keyboard-response,151,429967,0.0-83.0-1.0,null,,,<p></p>,null,,,,,,,,,,,
,do_trial,152,432876,0.0-84.0-0.0,402.79999999701977,,,,,,50,0,0,0,0,coast,27,0.6808363661903163,0.22218670396745674,0.18488285656414666,0,learn
,html-keyboard-response,153,433878,0.0-84.0-1.0,null,,,<p></p>,null,,,,,,,,,,,
,do_trial,154,436613,0.0-85.0-0.0,227,,,,,,51,1,1,0,0,coast,28,0.5518609661631912,0.32978889250087273,0.1235514842687779,0,learn
,html-keyboard-response,155,437615,0.0-85.0-1.0,null,,,<p></p>,null,,,,,,,,,,,
,do_trial,156,440397,0.0-86.0-0.0,273.6000000089407,,,,,,49,0,0,0,0,coast,29,0.43373674579931787,0.3314990230961008,0.22400380092172037,0,learn
,html-keyboard-response,157,441400,0.0-86.0-1.0,null,,,<p></p>,null,,,,,,,,,,,
,do_bye,158,442910,0.0-87.0-0.0,null,,,,,,null,,,,,,,,,
,do_travel,159,451917,0.0-88.0-0.0,null,,,,,,null,,,,,,,,,
,do_welcome,160,455932,0.0-88.0-1.0,null,,,,,,null,,,,,,,,,
,do_trial,161,461016,0.0-89.0-0.0,2575,,,,,,51,1,1,0,1,mountain,30,1,0.41674851916595756,0.08806105940720353,0,learn
,html-keyboard-response,162,462018,0.0-89.0-1.0,null,,,<p></p>,null,,,,,,,,,,,
,do_trial,163,466740,0.0-90.0-0.0,2213.300000011921,,,,,,50,1,0,0,1,mountain,31,1,0.22569913925561508,0.1319997541368207,0,learn
,html-keyboard-response,164,467742,0.0-90.0-1.0,null,,,<p></p>,null,,,,,,,,,,,
,do_trial,165,470271,0.0-91.0-0.0,20.799999997019768,,,,,,49,1,0,0,1,mountain,32,1,0.2642151817262626,0.15049352466533159,1,learn
,html-keyboard-response,166,471272,0.0-91.0-1.0,null,,,<p></p>,null,,,,,,,,,,,
,do_trial,167,474180,0.0-92.0-0.0,396.3999999910593,,,,,,49,1,1,0,1,mountain,33,0.8139339621964355,0.3700555390383545,0.05734815319300584,1,learn
,html-keyboard-response,168,475182,0.0-92.0-1.0,null,,,<p></p>,null,,,,,,,,,,,
,do_trial,169,477735,0.0-93.0-0.0,48.599999994039536,,,,,,51,1,0,0,1,mountain,34,0.7621376759775251,0.25480544835495267,0.09264275632127349,0,learn
,html-keyboard-response,170,478737,0.0-93.0-1.0,null,,,<p></p>,null,,,,,,,,,,,
,do_trial,171,481499,0.0-94.0-0.0,253.40000000596046,,,,,,51,0,0,0,1,mountain,35,0.6896992672555244,0.2895353860071011,0.08475104420678271,0,learn
,html-keyboard-response,172,482501,0.0-94.0-1.0,null,,,<p></p>,null,,,,,,,,,,,
,do_trial,173,485173,0.0-95.0-0.0,162.20000000298023,,,,,,51,0,0,0,1,mountain,36,0.6670049547859271,0.31583719753208017,0.05380472938481101,0,learn
,html-keyboard-response,174,486175,0.0-95.0-1.0,null,,,<p></p>,null,,,,,,,,,,,
,do_trial,175,488865,0.0-96.0-0.0,181.79999999701977,,,,,,51,0,1,0,1,mountain,37,0.6464003580117826,0.21648044952280368,0.1380781499781018,0,learn
,html-keyboard-response,176,489867,0.0-96.0-1.0,null,,,<p></p>,null,,,,,,,,,,,
,do_trial,177,492610,0.0-97.0-0.0,235,,,,,,50,0,0,0,1,mountain,38,0.5832777234819991,0.35863737388510075,0.07711607353560967,0,learn
,html-keyboard-response,178,493612,0.0-97.0-1.0,null,,,<p></p>,null,,,,,,,,,,,
,do_trial,179,496368,0.0-98.0-0.0,247,,,,,,50,1,1,0,1,mountain,39,0.6159856079345698,0.4156981133543766,0.07076184885091359,1,learn
,html-keyboard-response,180,497370,0.0-98.0-1.0,null,,,<p></p>,null,,,,,,,,,,,
,do_trial,181,500348,0.0-99.0-0.0,471,,,,,,51,1,0,0,1,mountain,40,0.5288201232798481,0.4304928049976103,0.06906708724418036,0,learn
,html-keyboard-response,182,501349,0.0-99.0-1.0,null,,,<p></p>,null,,,,,,,,,,,
,do_trial,183,503863,0.0-100.0-0.0,10.200000002980232,,,,,,49,1,0,0,1,mountain,41,0.6778355669352337,0.5297384851961353,0.16392656731953445,1,learn
,html-keyboard-response,184,504865,0.0-100.0-1.0,null,,,<p></p>,null,,,,,,,,,,,
,do_trial,185,507818,0.0-101.0-0.0,443.5,,,,,,50,1,0,0,1,mountain,42,0.487437754876672,0.3731929088724282,0.25808557382028974,0,learn
,html-keyboard-response,186,508819,0.0-101.0-1.0,null,,,<p></p>,null,,,,,,,,,,,
,do_trial,187,511525,0.0-102.0-0.0,201.79999999701977,,,,,,49,1,0,1,1,mountain,43,0.3388329877360847,0.18843839460736017,0.49212430350659575,1,learn
,html-keyboard-response,188,512527,0.0-102.0-1.0,null,,,<p></p>,null,,,,,,,,,,,
,do_trial,189,515425,0.0-103.0-0.0,388.90000000596046,,,,,,49,0,0,0,1,mountain,44,0.3355690414433838,0.0697568989496957,0.5977386677231249,0,learn
,html-keyboard-response,190,516427,0.0-103.0-1.0,null,,,<p></p>,null,,,,,,,,,,,
,do_trial,191,519192,0.0-104.0-0.0,256.3999999910593,,,,,,51,0,1,1,1,mountain,45,0.19359705926380166,0.1597325131702311,0.5002860728801218,1,learn
,html-keyboard-response,192,520195,0.0-104.0-1.0,null,,,<p></p>,null,,,,,,,,,,,
,do_trial,193,522965,0.0-105.0-0.0,262.20000000298023,,,,,,51,0,0,1,1,mountain,46,0.19255852487905362,0.1980135489385491,0.4456794466613656,1,learn
,html-keyboard-response,194,523967,0.0-105.0-1.0,null,,,<p></p>,null,,,,,,,,,,,
,do_trial,195,526594,0.0-106.0-0.0,119.3999999910593,,,,,,49,0,0,0,1,mountain,47,0.1192784827542332,0.08773048275404012,0.544740996705001,0,learn
,html-keyboard-response,196,527596,0.0-106.0-1.0,null,,,<p></p>,null,,,,,,,,,,,
,do_trial,197,530351,0.0-107.0-0.0,245.90000000596046,,,,,,50,0,0,1,1,mountain,48,0.1993308737707933,0.14087222694266238,0.5840127672742548,0,learn
,html-keyboard-response,198,531353,0.0-107.0-1.0,null,,,<p></p>,null,,,,,,,,,,,
,do_trial,199,533950,0.0-108.0-0.0,93,,,,,,49,0,0,0,1,mountain,49,0.15285298895326718,0.22105279169159112,0.4659085064912411,0,learn
,html-keyboard-response,200,534952,0.0-108.0-1.0,null,,,<p></p>,null,,,,,,,,,,,
,do_trial,201,537699,0.0-109.0-0.0,238.20000000298023,,,,,,49,0,0,1,1,mountain,50,0.25227878697562917,0.1832960941985815,0.5800237985819818,0,learn
,html-keyboard-response,202,538701,0.0-109.0-1.0,null,,,<p></p>,null,,,,,,,,,,,
,do_trial,203,541458,0.0-110.0-0.0,247.70000000298023,,,,,,49,0,0,0,1,mountain,51,0.2893777927504166,0.07175245548043574,0.5046888906466902,0,learn
,html-keyboard-response,204,542460,0.0-110.0-1.0,null,,,<p></p>,null,,,,,,,,,,,
,do_trial,205,545596,0.0-111.0-0.0,626.7999999970198,,,,,,49,1,0,0,1,mountain,52,0.2798853305942365,0.18216378469144276,0.681261627405811,1,learn
,html-keyboard-response,206,546598,0.0-111.0-1.0,null,,,<p></p>,null,,,,,,,,,,,
,do_trial,207,549421,0.0-112.0-0.0,319.29999999701977,,,,,,51,0,0,0,1,mountain,53,0.21145876376525352,0.08114006673425087,0.6003054654620346,0,learn
,html-keyboard-response,208,550424,0.0-112.0-1.0,null,,,<p></p>,null,,,,,,,,,,,
,do_trial,209,552967,0.0-113.0-0.0,34.6000000089407,,,,,,50,0,1,0,1,mountain,54,0.22829832342705228,0.13755903140228046,0.6586915059883333,1,learn
,html-keyboard-response,210,553970,0.0-113.0-1.0,null,,,<p></p>,null,,,,,,,,,,,
,do_trial,211,556684,0.0-114.0-0.0,205.09999999403954,,,,,,51,0,0,1,1,mountain,55,0.1736488101481535,0.19393892440352475,0.7444001276890327,1,learn
,html-keyboard-response,212,557686,0.0-114.0-1.0,null,,,<p></p>,null,,,,,,,,,,,
,do_trial,213,560516,0.0-115.0-0.0,321,,,,,,49,0,0,1,1,mountain,56,0.18961236798627074,0.08620161343253534,0.7767052533602814,0,learn
,html-keyboard-response,214,561518,0.0-115.0-1.0,null,,,<p></p>,null,,,,,,,,,,,
,do_trial,215,564273,0.0-116.0-0.0,246.5,,,,,,50,0,0,0,1,mountain,57,0.3416769101083212,0.17804075504414393,0.789260532399757,0,learn
,html-keyboard-response,216,565275,0.0-116.0-1.0,null,,,<p></p>,null,,,,,,,,,,,
,do_trial,217,568066,0.0-117.0-0.0,281.19999998807907,,,,,,50,1,0,0,1,mountain,58,0.4175484509903113,0.10028384144652147,0.688078326022783,0,learn
,html-keyboard-response,218,569068,0.0-117.0-1.0,null,,,<p></p>,null,,,,,,,,,,,
,do_trial,219,571958,0.0-118.0-0.0,380.59999999403954,,,,,,49,0,0,1,1,mountain,59,0.27981030778719884,0.11208326499655008,0.60057079697056,0,learn
,html-keyboard-response,220,572960,0.0-118.0-1.0,null,,,<p></p>,null,,,,,,,,,,,
,do_trial,221,575725,0.0-119.0-0.0,256.69999998807907,,,,,,49,0,0,0,1,mountain,60,0.46605655332295015,0.1322068742060981,0.6611113098952843,0,learn
,html-keyboard-response,222,576728,0.0-119.0-1.0,null,,,<p></p>,null,,,,,,,,,,,
,do_trial,223,579306,0.0-120.0-0.0,69.40000000596046,,,,,,49,0,0,0,1,mountain,61,0.41859017636364554,0.21699154303532567,0.6126846871731918,0,learn
,html-keyboard-response,224,580309,0.0-120.0-1.0,null,,,<p></p>,null,,,,,,,,,,,
,do_trial,225,583051,0.0-121.0-0.0,234,,,,,,51,0,0,1,1,mountain,62,0.3787261183207514,0.20054881605863162,0.5890784991172945,1,learn
,html-keyboard-response,226,584053,0.0-121.0-1.0,null,,,<p></p>,null,,,,,,,,,,,
,do_trial,227,587166,0.0-122.0-0.0,606.5999999940395,,,,,,50,1,0,1,1,mountain,63,0.46436057733711195,0.14403277480496635,0.5771949603425255,0,learn
,html-keyboard-response,228,588168,0.0-122.0-1.0,null,,,<p></p>,null,,,,,,,,,,,
,do_trial,229,591048,0.0-123.0-0.0,374.79999999701977,,,,,,49,1,0,1,1,mountain,64,0.43231598379223185,0.08390815965119192,0.6835952896980517,1,learn
,html-keyboard-response,230,592049,0.0-123.0-1.0,null,,,<p></p>,null,,,,,,,,,,,
,do_trial,231,594738,0.0-124.0-0.0,184,,,,,,51,0,0,1,1,mountain,65,0.3674750983969818,0.08032662704682796,0.6558168440973533,1,learn
,html-keyboard-response,232,595740,0.0-124.0-1.0,null,,,<p></p>,null,,,,,,,,,,,
,do_trial,233,598804,0.0-125.0-0.0,559.7000000029802,,,,,,49,1,0,1,1,mountain,66,0.49058895956426873,0.05609650996695924,0.6745815803501171,1,learn
,html-keyboard-response,234,599806,0.0-125.0-1.0,null,,,<p></p>,null,,,,,,,,,,,
,do_trial,235,602682,0.0-126.0-0.0,367.20000000298023,,,,,,51,1,0,1,1,mountain,67,0.314634727899438,0.1835201189359894,0.7300609518662142,1,learn
,html-keyboard-response,236,603684,0.0-126.0-1.0,null,,,<p></p>,null,,,,,,,,,,,
,do_trial,237,606507,0.0-127.0-0.0,314.29999999701977,,,,,,49,0,0,0,1,mountain,68,0.2695032833436594,0.1919846254723241,0.788312506149761,0,learn
,html-keyboard-response,238,607509,0.0-127.0-1.0,null,,,<p></p>,null,,,,,,,,,,,
,do_trial,239,610385,0.0-128.0-0.0,366.3999999910593,,,,,,51,0,0,0,1,mountain,69,0.4061469994906205,0.22273952061916757,0.5930071440070904,0,learn
,html-keyboard-response,240,611387,0.0-128.0-1.0,null,,,<p></p>,null,,,,,,,,,,,
,do_bye,241,612898,0.0-129.0-0.0,null,,,,,,null,,,,,,,,,
,do_travel,242,621904,0.0-130.0-0.0,null,,,,,,null,,,,,,,,,
,do_welcome,243,625944,0.0-130.0-1.0,null,,,,,,null,,,,,,,,,
,do_trial,244,629902,0.0-131.0-0.0,1449.199999988079,,,,,,51,1,0,1,2,city,70,0.3194753715004714,0.12258927295709801,1,1,learn
,html-keyboard-response,245,630904,0.0-131.0-1.0,null,,,<p></p>,null,,,,,,,,,,,
,do_trial,246,633645,0.0-132.0-0.0,231.80000001192093,,,,,,49,0,1,1,2,city,71,0.33538852540388386,0.10337934436128274,1,0,learn
,html-keyboard-response,247,634647,0.0-132.0-1.0,null,,,<p></p>,null,,,,,,,,,,,
,do_trial,248,637395,0.0-133.0-0.0,244.1000000089407,,,,,,50,0,0,1,2,city,72,0.2228811041409704,0.12595565179826637,0.7448992543855739,0,learn
,html-keyboard-response,249,638397,0.0-133.0-1.0,null,,,<p></p>,null,,,,,,,,,,,
,do_trial,250,640992,0.0-134.0-0.0,85.70000000298023,,,,,,51,0,0,1,2,city,73,0.2321577506029127,0.2072836399882025,0.6758984910646697,1,learn
,html-keyboard-response,251,641994,0.0-134.0-1.0,null,,,<p></p>,null,,,,,,,,,,,
,do_trial,252,644789,0.0-135.0-0.0,285.70000000298023,,,,,,51,0,0,1,2,city,74,0.23267387416850985,0.12586321565854955,0.6898554770047318,1,learn
,html-keyboard-response,253,645791,0.0-135.0-1.0,null,,,<p></p>,null,,,,,,,,,,,
,do_trial,254,648559,0.0-136.0-0.0,260.09999999403954,,,,,,51,1,1,0,2,city,75,0.24451536470169288,0.12292444687166697,0.4784709967368727,0,learn
,html-keyboard-response,255,649561,0.0-136.0-1.0,null,,,<p></p>,null,,,,,,,,,,,
,do_trial,256,652507,0.0-137.0-0.0,438.20000000298023,,,,,,51,0,1,0,2,city,76,0.25051328706479503,0.13933545145733875,0.5499102469524154,0,learn
,html-keyboard-response,257,653509,0.0-137.0-1.0,null,,,<p></p>,null,,,,,,,,,,,
,do_trial,258,656259,0.0-138.0-0.0,240.80000001192093,,,,,,49,1,0,1,2,city,77,0.3514894752771729,0.11143876824477035,0.6022076433811013,1,learn
,html-keyboard-response,259,657261,0.0-138.0-1.0,null,,,<p></p>,null,,,,,,,,,,,
,do_trial,260,659986,0.0-139.0-0.0,216.09999999403954,,,,,,51,0,0,1,2,city,78,0.40451056728343354,0.14939523322775022,0.6303320539523838,1,learn
,html-keyboard-response,261,660987,0.0-139.0-1.0,null,,,<p></p>,null,,,,,,,,,,,
,do_trial,262,663750,0.0-140.0-0.0,258.59999999403954,,,,,,50,0,0,0,2,city,79,0.26879211050157686,0.14006304296030592,0.4241051878969664,0,learn
,html-keyboard-response,263,664752,0.0-140.0-1.0,null,,,<p></p>,null,,,,,,,,,,,
,do_trial,264,667500,0.0-141.0-0.0,238.5,,,,,,51,0,0,1,2,city,80,0.24394444636883586,0.0950054291162995,0.3938305504508924,1,learn
,html-keyboard-response,265,668502,0.0-141.0-1.0,null,,,<p></p>,null,,,,,,,,,,,
,do_trial,266,671209,0.0-142.0-0.0,197.09999999403954,,,,,,51,0,0,0,2,city,81,0.2342525894540107,0.12303783331076573,0.38705072241714616,0,learn
,html-keyboard-response,267,672211,0.0-142.0-1.0,null,,,<p></p>,null,,,,,,,,,,,
,do_trial,268,675645,0.0-143.0-0.0,925.7000000029802,,,,,,49,1,1,0,2,city,82,0.3513677942230609,0.1796788684274766,0.22228100698789427,1,learn
,html-keyboard-response,269,676648,0.0-143.0-1.0,null,,,<p></p>,null,,,,,,,,,,,
,do_trial,270,679818,0.0-144.0-0.0,661.7999999970198,,,,,,50,1,1,0,2,city,83,0.47205925853297637,0.2513734268139008,0.23441861506922212,1,learn
,html-keyboard-response,271,680819,0.0-144.0-1.0,null,,,<p></p>,null,,,,,,,,,,,
,do_trial,272,683875,0.0-145.0-0.0,546.2999999970198,,,,,,49,1,0,0,2,city,84,0.43792967915770414,0.22800084189847206,0.1530101184134831,1,learn
,html-keyboard-response,273,684877,0.0-145.0-1.0,null,,,<p></p>,null,,,,,,,,,,,
,do_trial,274,687983,0.0-146.0-0.0,597.5,,,,,,50,1,0,0,2,city,85,0.5161479979664886,0.20257977423648504,0.05837650834984604,0,learn
,html-keyboard-response,275,688985,0.0-146.0-1.0,null,,,<p></p>,null,,,,,,,,,,,
,do_trial,276,692008,0.0-147.0-0.0,518.6000000089407,,,,,,50,0,0,0,2,city,86,0.5000092882107614,0.26393146486463887,0.11546702261291668,0,learn
,html-keyboard-response,277,693009,0.0-147.0-1.0,null,,,<p></p>,null,,,,,,,,,,,
,do_trial,278,695670,0.0-148.0-0.0,152.1000000089407,,,,,,49,1,0,0,2,city,87,0.6076627588938751,0.2403926444950937,0.14259482028396833,1,learn
,html-keyboard-response,279,696672,0.0-148.0-1.0,null,,,<p></p>,null,,,,,,,,,,,
,do_trial,280,699633,0.0-149.0-0.0,456.29999999701977,,,,,,51,0,1,1,2,city,88,0.7197210219352747,0.4011483166353182,0.12060540714017906,1,learn
,html-keyboard-response,281,700636,0.0-149.0-1.0,null,,,<p></p>,null,,,,,,,,,,,
,do_trial,282,703509,0.0-150.0-0.0,364.79999999701977,,,,,,49,1,1,1,2,city,89,0.6599504076442324,0.3812715507968663,0.17251879719979346,1,learn
,html-keyboard-response,283,704512,0.0-150.0-1.0,null,,,<p></p>,null,,,,,,,,,,,
,do_trial,284,710521,0.0-151.0-0.0,null,,,,,,null,1,0,0,2,city,90,0.6669062379602663,0.38037356329017585,0.10945308313180276,,learn
,html-keyboard-response,285,711524,0.0-151.0-1.0,null,,,<p></p>,null,,,,,,,,,,,
,do_trial,286,714391,0.0-152.0-0.0,362.29999999701977,,,,,,51,1,1,0,2,city,91,0.6026335146848061,0.4440636211105591,0.10326048126609744,0,learn
,html-keyboard-response,287,715394,0.0-152.0-1.0,null,,,<p></p>,null,,,,,,,,,,,
,do_trial,288,718182,0.0-153.0-0.0,279.09999999403954,,,,,,49,1,0,0,2,city,92,0.6049539437647556,0.41194759744964926,0.14039193669822053,1,learn
,html-keyboard-response,289,719184,0.0-153.0-1.0,null,,,<p></p>,null,,,,,,,,,,,
,do_trial,290,723433,0.0-154.0-0.0,1741.1000000089407,,,,,,49,1,0,0,2,city,93,0.3459147690941739,0.3161053616331246,0.07054812217006018,1,learn
,html-keyboard-response,291,724435,0.0-154.0-1.0,null,,,<p></p>,null,,,,,,,,,,,
,do_trial,292,727235,0.0-155.0-0.0,291.59999999403954,,,,,,51,1,0,0,2,city,94,0.42402365292304445,0.21252161906331302,0.1653089749255857,0,learn
,html-keyboard-response,293,728237,0.0-155.0-1.0,null,,,<p></p>,null,,,,,,,,,,,
,do_trial,294,731100,0.0-156.0-0.0,354.5,,,,,,49,1,0,0,2,city,95,0.46997336954985536,0.19382299546662307,0.12176764432585076,1,learn
,html-keyboard-response,295,732103,0.0-156.0-1.0,null,,,<p></p>,null,,,,,,,,,,,
,do_trial,296,734980,0.0-157.0-0.0,369.29999999701977,,,,,,51,0,0,0,2,city,96,0.44041890390827065,0.3917289523582467,0.1511289407592899,0,learn
,html-keyboard-response,297,735983,0.0-157.0-1.0,null,,,<p></p>,null,,,,,,,,,,,
,do_trial,298,738897,0.0-158.0-0.0,405.59999999403954,,,,,,49,0,0,0,2,city,97,0.4897120680827539,0.3355760813169178,0.09010522592374892,0,learn
,html-keyboard-response,299,739899,0.0-158.0-1.0,null,,,<p></p>,null,,,,,,,,,,,
,do_trial,300,742497,0.0-159.0-0.0,88.6000000089407,,,,,,49,0,0,0,2,city,98,0.5745962704379153,0.28253395403962484,0.12416750182659395,0,learn
,html-keyboard-response,301,743499,0.0-159.0-1.0,null,,,<p></p>,null,,,,,,,,,,,
,do_trial,302,746284,0.0-160.0-0.0,276.5,,,,,,49,1,0,0,2,city,99,0.5697009304864387,0.26993118657882287,0.11576127242143497,1,learn
,html-keyboard-response,303,747286,0.0-160.0-1.0,null,,,<p></p>,null,,,,,,,,,,,
,do_trial,304,750006,0.0-161.0-0.0,216.69999998807907,,,,,,50,0,1,0,2,city,100,0.667553690340002,0.2871831324807368,0.12602172874682194,1,learn
,html-keyboard-response,305,751009,0.0-161.0-1.0,null,,,<p></p>,null,,,,,,,,,,,
,do_trial,306,753534,0.0-162.0-0.0,16.700000002980232,,,,,,50,1,1,0,2,city,101,0.7615926127149985,0.44598449446602445,0.09057746757608114,1,learn
,html-keyboard-response,307,754535,0.0-162.0-1.0,null,,,<p></p>,null,,,,,,,,,,,
,do_trial,308,757464,0.0-163.0-0.0,423.79999999701977,,,,,,50,0,1,0,2,city,102,0.6887259780038509,0.557847651947334,0.05432093522216769,1,learn
,html-keyboard-response,309,758467,0.0-163.0-1.0,null,,,<p></p>,null,,,,,,,,,,,
,do_trial,310,761078,0.0-164.0-0.0,102.70000000298023,,,,,,51,1,1,0,2,city,103,0.6634716983541774,0.5566020793929722,0.14799917125762072,0,learn
,html-keyboard-response,311,762079,0.0-164.0-1.0,null,,,<p></p>,null,,,,,,,,,,,
,do_trial,312,764717,0.0-165.0-0.0,133.59999999403954,,,,,,49,1,1,0,2,city,104,0.8275607736532012,0.5473064884580812,0.13755737607022014,1,learn
,html-keyboard-response,313,765719,0.0-165.0-1.0,null,,,<p></p>,null,,,,,,,,,,,
,do_trial,314,768339,0.0-166.0-0.0,115.29999999701977,,,,,,50,1,0,0,2,city,105,0.8068260690302032,0.4730448670339555,0.1479168407411545,0,learn
,html-keyboard-response,315,769341,0.0-166.0-1.0,null,,,<p></p>,null,,,,,,,,,,,
,do_trial,316,772015,0.0-167.0-0.0,170.59999999403954,,,,,,50,1,1,0,2,city,106,0.6085428223860762,0.4563801940523487,0.13469402080546414,1,learn
,html-keyboard-response,317,773016,0.0-167.0-1.0,null,,,<p></p>,null,,,,,,,,,,,
,do_trial,318,775734,0.0-168.0-0.0,203.79999999701977,,,,,,50,0,0,0,2,city,107,0.6245087028814487,0.4033986399705226,0.2493871099260278,0,learn
,html-keyboard-response,319,776736,0.0-168.0-1.0,null,,,<p></p>,null,,,,,,,,,,,
,do_trial,320,779252,0.0-169.0-0.0,6.9000000059604645,,,,,,49,0,0,0,2,city,108,0.7156206870817203,0.3553591211791982,0.21132385766553474,0,learn
,html-keyboard-response,321,780254,0.0-169.0-1.0,null,,,<p></p>,null,,,,,,,,,,,
,do_trial,322,783163,0.0-170.0-0.0,400.5,,,,,,49,1,0,0,2,city,109,0.649627377914224,0.29897828384954106,0.1512084822199775,1,learn
,html-keyboard-response,323,784165,0.0-170.0-1.0,null,,,<p></p>,null,,,,,,,,,,,
,do_bye,324,785669,0.0-171.0-0.0,null,,,,,,null,,,,,,,,,
,do_travel,325,794672,0.0-172.0-0.0,null,,,,,,null,,,,,,,,,
,do_welcome,326,798694,0.0-172.0-1.0,null,,,,,,null,,,,,,,,,
,do_trial,327,804703,0.0-173.0-0.0,null,,,,,,null,1,0,0,3,countryside,110,1,0.19497493073871291,0.1629872652113481,,learn
,html-keyboard-response,328,805707,0.0-173.0-1.0,null,,,<p></p>,null,,,,,,,,,,,
,do_trial,329,808436,0.0-174.0-0.0,220.59999999403954,,,,,,50,1,1,0,3,countryside,111,1,0.18570334628946733,0.24773914864073437,1,learn
,html-keyboard-response,330,809438,0.0-174.0-1.0,null,,,<p></p>,null,,,,,,,,,,,
,do_trial,331,812155,0.0-175.0-0.0,208.29999999701977,,,,,,49,1,0,0,3,countryside,112,0.852990576733604,0.12703357667028636,0.22898651321426375,1,learn
,html-keyboard-response,332,813157,0.0-175.0-1.0,null,,,<p></p>,null,,,,,,,,,,,
,do_trial,333,815857,0.0-176.0-0.0,190.90000000596046,,,,,,50,1,0,0,3,countryside,113,0.7555787525596508,0.21599301101017118,0.1370520636541188,0,learn
,html-keyboard-response,334,816859,0.0-176.0-1.0,null,,,<p></p>,null,,,,,,,,,,,
,do_trial,335,819565,0.0-177.0-0.0,196.5,,,,,,50,0,0,0,3,countryside,114,0.7475603415184005,0.2510750244015327,0.054179853509345705,0,learn
,html-keyboard-response,336,820567,0.0-177.0-1.0,null,,,<p></p>,null,,,,,,,,,,,
,do_trial,337,823149,0.0-178.0-0.0,73.29999999701977,,,,,,50,1,0,0,3,countryside,115,0.6318276969383277,0.2319514571364895,0.130043586413361,0,learn
,html-keyboard-response,338,824152,0.0-178.0-1.0,null,,,<p></p>,null,,,,,,,,,,,
,do_trial,339,827134,0.0-179.0-0.0,473.70000000298023,,,,,,50,0,1,0,3,countryside,116,0.6539952538775234,0.3741926909067878,0.05662251431920679,1,learn
,html-keyboard-response,340,828137,0.0-179.0-1.0,null,,,<p></p>,null,,,,,,,,,,,
,do_trial,341,831361,0.0-180.0-0.0,716.2000000029802,,,,,,51,0,1,0,3,countryside,117,0.6361665483429965,0.30588783445654283,0.15885016675192568,0,learn
,html-keyboard-response,342,832363,0.0-180.0-1.0,null,,,<p></p>,null,,,,,,,,,,,
,do_trial,343,835082,0.0-181.0-0.0,215.29999999701977,,,,,,51,1,0,0,3,countryside,118,0.7045536505229516,0.20077291107264594,0.10388827339448238,0,learn
,html-keyboard-response,344,836085,0.0-181.0-1.0,null,,,<p></p>,null,,,,,,,,,,,
,do_trial,345,838844,0.0-182.0-0.0,250.29999999701977,,,,,,49,1,0,0,3,countryside,119,0.5736554625761255,0.29408828050024743,0.1639712846965405,1,learn
,html-keyboard-response,346,839846,0.0-182.0-1.0,null,,,<p></p>,null,,,,,,,,,,,
,do_trial,347,842591,0.0-183.0-0.0,236.20000000298023,,,,,,49,1,0,0,3,countryside,120,0.4005540051974416,0.36476646986527456,0.08702289798838642,1,learn
,html-keyboard-response,348,843593,0.0-183.0-1.0,null,,,<p></p>,null,,,,,,,,,,,
,do_trial,349,846501,0.0-184.0-0.0,404.20000000298023,,,,,,49,0,1,0,3,countryside,121,0.2454556321073752,0.45193068632960454,0.06763652653402495,0,learn
,html-keyboard-response,350,847503,0.0-184.0-1.0,null,,,<p></p>,null,,,,,,,,,,,
,do_trial,351,850396,0.0-185.0-0.0,384.69999998807907,,,,,,50,0,0,0,3,countryside,122,0.32335037719641263,0.2668423839985995,0.07587684260268987,0,learn
,html-keyboard-response,352,851398,0.0-185.0-1.0,null,,,<p></p>,null,,,,,,,,,,,
,do_trial,353,854168,0.0-186.0-0.0,261.70000000298023,,,,,,49,0,0,0,3,countryside,123,0.3860219345579947,0.1728692259998149,0.26669675430963635,0,learn
,html-keyboard-response,354,855170,0.0-186.0-1.0,null,,,<p></p>,null,,,,,,,,,,,
,do_trial,355,857903,0.0-187.0-0.0,229.19999998807907,,,,,,51,1,0,1,3,countryside,124,0.3260446353787913,0.08840385922866183,0.4184969226220279,1,learn
,html-keyboard-response,356,858905,0.0-187.0-1.0,null,,,<p></p>,null,,,,,,,,,,,
,do_trial,357,862066,0.0-188.0-0.0,652.0999999940395,,,,,,51,0,0,1,3,countryside,125,0.19800701669942952,0.2570545392179106,0.49740386044282764,1,learn
,html-keyboard-response,358,863069,0.0-188.0-1.0,null,,,<p></p>,null,,,,,,,,,,,
,do_trial,359,865967,0.0-189.0-0.0,390.19999998807907,,,,,,51,1,0,0,3,countryside,126,0.19892074220448927,0.22797747723553147,0.6168929085089166,0,learn
,html-keyboard-response,360,866970,0.0-189.0-1.0,null,,,<p></p>,null,,,,,,,,,,,
,do_trial,361,869672,0.0-190.0-0.0,193.20000000298023,,,,,,49,0,0,1,3,countryside,127,0.2631540490691616,0.14449164123084632,0.5339510199274953,0,learn
,html-keyboard-response,362,870674,0.0-190.0-1.0,null,,,<p></p>,null,,,,,,,,,,,
,do_trial,363,873425,0.0-191.0-0.0,241.69999998807907,,,,,,50,0,1,0,3,countryside,128,0.33526978704214794,0.18368296342164997,0.5088866459914315,1,learn
,html-keyboard-response,364,874427,0.0-191.0-1.0,null,,,<p></p>,null,,,,,,,,,,,
,do_trial,365,877241,0.0-192.0-0.0,304.09999999403954,,,,,,49,1,0,1,3,countryside,129,0.42991815448335163,0.11146657302512882,0.5683657181919385,1,learn
,html-keyboard-response,366,878243,0.0-192.0-1.0,null,,,<p></p>,null,,,,,,,,,,,
,do_trial,367,880997,0.0-193.0-0.0,245.30000001192093,,,,,,51,1,0,0,3,countryside,130,0.3934049080040851,0.06510305001175266,0.7123654654713557,0,learn
,html-keyboard-response,368,881999,0.0-193.0-1.0,null,,,<p></p>,null,,,,,,,,,,,
,do_trial,369,884713,0.0-194.0-0.0,206.40000000596046,,,,,,50,0,0,1,3,countryside,131,0.19744624142056907,0.08927032132518764,0.5611109617549466,0,learn
,html-keyboard-response,370,885716,0.0-194.0-1.0,null,,,<p></p>,null,,,,,,,,,,,
,do_trial,371,888486,0.0-195.0-0.0,261.69999998807907,,,,,,49,0,0,1,3,countryside,132,0.35311464352920846,0.09688067793162473,0.5507137226934705,0,learn
,html-keyboard-response,372,889488,0.0-195.0-1.0,null,,,<p></p>,null,,,,,,,,,,,
,do_trial,373,892286,0.0-196.0-0.0,289.3999999910593,,,,,,49,1,0,0,3,countryside,133,0.2985891697544836,0.1866208139693972,0.4636855989034426,1,learn
,html-keyboard-response,374,893288,0.0-196.0-1.0,null,,,<p></p>,null,,,,,,,,,,,
,do_trial,375,896454,0.0-197.0-0.0,663,,,,,,49,1,1,1,3,countryside,134,0.26240081793549425,0.13441905447729693,0.5580418910134923,1,learn
,html-keyboard-response,376,897456,0.0-197.0-1.0,null,,,<p></p>,null,,,,,,,,,,,
,do_trial,377,900236,0.0-198.0-0.0,270.79999999701977,,,,,,50,1,0,0,3,countryside,135,0.266653761463293,0.12243936360034371,0.6254863345598306,0,learn
,html-keyboard-response,378,901238,0.0-198.0-1.0,null,,,<p></p>,null,,,,,,,,,,,
,do_trial,379,903961,0.0-199.0-0.0,219.29999999701977,,,,,,51,0,0,0,3,countryside,136,0.12696213044892918,0.12895640214612822,0.5922966962707767,0,learn
,html-keyboard-response,380,904963,0.0-199.0-1.0,null,,,<p></p>,null,,,,,,,,,,,
,do_trial,381,907705,0.0-200.0-0.0,234,,,,,,51,0,0,1,3,countryside,137,0.1990289917868368,0.07413125379603001,0.6433869407171308,1,learn
,html-keyboard-response,382,908707,0.0-200.0-1.0,null,,,<p></p>,null,,,,,,,,,,,
,do_trial,383,911475,0.0-201.0-0.0,262.5,,,,,,51,0,0,1,3,countryside,138,0.34158066437923595,0.14150887218465585,0.5553985832208908,1,learn
,html-keyboard-response,384,912477,0.0-201.0-1.0,null,,,<p></p>,null,,,,,,,,,,,
,do_trial,385,915241,0.0-202.0-0.0,255.1000000089407,,,,,,51,0,0,0,3,countryside,139,0.3678287521585774,0.14110318459957444,0.5261506377759886,0,learn
,html-keyboard-response,386,916243,0.0-202.0-1.0,null,,,<p></p>,null,,,,,,,,,,,
,do_trial,387,918768,0.0-203.0-0.0,15.700000002980232,,,,,,50,0,0,0,3,countryside,140,0.39421310119305697,0.11952355431467208,0.6245984490504864,0,learn
,html-keyboard-response,388,919771,0.0-203.0-1.0,null,,,<p></p>,null,,,,,,,,,,,
,do_trial,389,922440,0.0-204.0-0.0,160.90000000596046,,,,,,50,0,0,1,3,countryside,141,0.31091547141859155,0.17377032902618791,0.8118915112434049,0,learn
,html-keyboard-response,390,923443,0.0-204.0-1.0,null,,,<p></p>,null,,,,,,,,,,,
,do_trial,391,926223,0.0-205.0-0.0,272.09999999403954,,,,,,49,0,0,0,3,countryside,142,0.3132070941661102,0.17859501176733653,0.6766973195417001,0,learn
,html-keyboard-response,392,927226,0.0-205.0-1.0,null,,,<p></p>,null,,,,,,,,,,,
,do_trial,393,929998,0.0-206.0-0.0,262.40000000596046,,,,,,50,0,0,1,3,countryside,143,0.41536059036477285,0.05968058995765659,0.6579077292719911,0,learn
,html-keyboard-response,394,931000,0.0-206.0-1.0,null,,,<p></p>,null,,,,,,,,,,,
,do_trial,395,933730,0.0-207.0-0.0,221.09999999403954,,,,,,49,1,0,1,3,countryside,144,0.3887888280767638,0.09947928929472878,0.5964227312252939,1,learn
,html-keyboard-response,396,934732,0.0-207.0-1.0,null,,,<p></p>,null,,,,,,,,,,,
,do_trial,397,937453,0.0-208.0-0.0,217.40000000596046,,,,,,49,0,0,1,3,countryside,145,0.37530375507979136,0.24211833015192954,0.4537274057291165,0,learn
,html-keyboard-response,398,938455,0.0-208.0-1.0,null,,,<p></p>,null,,,,,,,,,,,
,do_trial,399,941187,0.0-209.0-0.0,225.09999999403954,,,,,,51,1,0,0,3,countryside,146,0.21205007274891902,0.1088032400272056,0.5605630128428208,0,learn
,html-keyboard-response,400,942190,0.0-209.0-1.0,null,,,<p></p>,null,,,,,,,,,,,
,do_trial,401,944904,0.0-210.0-0.0,206.40000000596046,,,,,,51,1,0,0,3,countryside,147,0.16532436470396192,0.057678912925075626,0.48560511226933833,0,learn
,html-keyboard-response,402,945906,0.0-210.0-1.0,null,,,<p></p>,null,,,,,,,,,,,
,do_trial,403,948574,0.0-211.0-0.0,158.90000000596046,,,,,,51,0,1,1,3,countryside,148,0.11606102807154418,0.1854376719431693,0.5409571084808197,1,learn
,html-keyboard-response,404,949577,0.0-211.0-1.0,null,,,<p></p>,null,,,,,,,,,,,
,do_trial,405,952286,0.0-212.0-0.0,201,,,,,,51,1,0,1,3,countryside,149,0.2808061445716964,0.05181756329837242,0.6240731232773855,1,learn
,html-keyboard-response,406,953288,0.0-212.0-1.0,null,,,<p></p>,null,,,,,,,,,,,
,do_bye,407,954794,0.0-213.0-0.0,null,,,,,,null,,,,,,,,,
,do_travel,408,963798,0.0-214.0-0.0,null,,,,,,null,,,,,,,,,
