success,trial_type,trial_index,time_elapsed,internal_node_id,rt,responses,subject_id,stimulus,key_press,prompt,response,choice_outcomes,context_n,context_img_id,trial_n,pR_red,pR_white,pR_black,outcome,phase
true,fullscreen,0,3918,0.0-0.0,,,,,,,,,,,,,,,,
,survey-html-form,1,12617,0.0-1.0,8696.70000000298,{worker_id:69c8515cdc4e6ffc6db20b85},69c8515cdc4e6ffc6db20b85,,,,,,,,,,,,,
,instruc1,2,14621,0.0-2.0,null,,69c8515cdc4e6ffc6db20b85,<div class='center'><p>Welcome! This study will last ~30 minutes. After the instructions there will be a practice game and quiz to make sure you understand the task. Today you will be the head captain of a pirate ship traveling around the world to different islands. Here is an overview of what you will be doing:</p><br><p> 1. Try to find the most successful pirate on 6 different islands</p><p> 2. Recall which pirates did the best on each island</p><br><p>,null,<div class='center'><p>Welcome! This study will last ~30 minutes. After the instructions there will be a practice game and quiz to make sure you understand the task. Today you will be the head captain of a pirate ship traveling around the world to different islands. Here is an overview of what you will be doing:</p><br><p> 1. Try to find the most successful pirate on 6 different islands</p><p> 2. Recall which pirates did the best on each island</p><br><p>,,,,,,,,,,
,html-keyboard-response,3,28718,0.0-3.0,14095.79999999702,,,<div class='center'><p>Welcome! This study will last ~30 minutes. After the instructions there will be a practice game and quiz to make sure you understand the task. Today you will be the head captain of a pirate ship traveling around the world to different islands. Here is an overview of what you will be doing:</p><br><p> 1. Try to find the most successful pirate on 6 different islands</p><p> 2. Recall which pirates did the best on each island</p><br><p><p><b>[Press the space bar to continue]</b></p></div>,32,,,,,,,,,,,
,instruc2,4,30722,0.0-4.0,null,,,<div class='center'><p>You are going to visit these 6 islands on your journey. You'll be able to see these islands from your ship.</p><p><img src='../static/images/contexts/all_contexts.png' height='500'></p></div>,null,<div class='center'><p>You are going to visit these 6 islands on your journey. You'll be able to see these islands from your ship.</p><p><img src='../static/images/contexts/all_contexts.png' height='500'></p></div>,,,,,,,,,,
,html-keyboard-response,5,38156,0.0-5.0,7432.39999999851,,,<div class='center'><p>You are going to visit these 6 islands on your journey. You'll be able to see these islands from your ship.</p><p><img src='../static/images/contexts/all_contexts.png' height='500'></p><p><b>[Press the space bar to continue]</b></p></div>,32,,,,,,,,,,,
,instruc4,6,40169,0.0-6.0,null,,,<div class='center'><p>As the head captain, you do not have to rob any ships yourself. Another pirate will be doing the robbing for you. First, you will choose a pirate to rob the next ship.</p><p><img src='../static/images/tutorial/pirates_all_crop.png' height='200'></p><p>Then, you'll see if the pirate successfully robbed the ship of their gold. If they were successful, then you'll get a stack of gold coins like this:</p><p><img src='../static/images/tutorial/reward.png' height='150'></p><p> If they were <b>not</b> successful, then you'll get no gold coins, and you'll see a big red x like this: </p><p><img src='../static/images/tutorial/reward_no.png' height='150'></p><p> How much bonus money you make is based on how many gold coins you collect.</p><div>,null,<div class='center'><p>As the head captain, you do not have to rob any ships yourself. Another pirate will be doing the robbing for you. First, you will choose a pirate to rob the next ship.</p><p><img src='../static/images/tutorial/pirates_all_crop.png' height='200'></p><p>Then, you'll see if the pirate successfully robbed the ship of their gold. If they were successful, then you'll get a stack of gold coins like this:</p><p><img src='../static/images/tutorial/reward.png' height='150'></p><p> If they were <b>not</b> successful, then you'll get no gold coins, and you'll see a big red x like this: </p><p><img src='../static/images/tutorial/reward_no.png' height='150'></p><p> How much bonus money you make is based on how many gold coins you collect.</p><div>,,,,,,,,,,
,html-keyboard-response,7,61774,0.0-7.0,21603.10000000149,,,<div class='center'><p>As the head captain, you do not have to rob any ships yourself. Another pirate will be doing the robbing for you. First, you will choose a pirate to rob the next ship.</p><p><img src='../static/images/tutorial/pirates_all_crop.png' height='200'></p><p>Then, you'll see if the pirate successfully robbed the ship of their gold. If they were successful, then you'll get a stack of gold coins like this:</p><p><img src='../static/images/tutorial/reward.png' height='150'></p><p> If they were <b>not</b> successful, then you'll get no gold coins, and you'll see a big red x like this: </p><p><img src='../static/images/tutorial/reward_no.png' height='150'></p><p> How much bonus money you make is based on how many gold coins you collect.</p><div><p><b>[Press the space bar to continue]</b></p></div>,32,,,,,,,,,,,
,instruc5,8,83794,0.0-8.0,22018.10000000149,,,<div class='center'><p>Even the most skilled pirate can not rob EVERY ship.</p><p> Some ships will have very strong protections against pirate attacks.</p><p> Blue beard, here, is very, very good at robbing ships, but he won't be successful every time he tries to rob one.</p><p> You can press the <b>'1'</b> key on the keyboard to choose him.</p><p> Try choosing him 10 times to see how often he succeeds at robbing a ship. </p><p><img src='../static/images/tutorial/blue.png' height='500'></p></div>,49,<div class='center'><p>Even the most skilled pirate can not rob EVERY ship.</p><p> Some ships will have very strong protections against pirate attacks.</p><p> Blue beard, here, is very, very good at robbing ships, but he won't be successful every time he tries to rob one.</p><p> You can press the <b>'1'</b> key on the keyboard to choose him.</p><p> Try choosing him 10 times to see how often he succeeds at robbing a ship. </p><p><img src='../static/images/tutorial/blue.png' height='500'></p></div>,,,,,,,,,,
,html-keyboard-response,9,85311,0.0-9.0,null,,,<div class='center'><p><img src='../static/images/tutorial/blue_win.png' height='500'></p></div>,null,,,,,,,,,,,
,html-keyboard-response,10,88470,0.0-10.0,3157.7000000029802,,,<div class='center'><img src='../static/images/tutorial/blue.png' height='500'></p></div>,49,,,,,,,,,,,
,html-keyboard-response,11,89986,0.0-11.0,null,,,<div class='center'><p><img src='../static/images/tutorial/blue_win.png' height='500'></p></div>,null,,,,,,,,,,,
,html-keyboard-response,12,92047,0.0-12.0,2059,,,<div class='center'><img src='../static/images/tutorial/blue.png' height='500'></p></div>,49,,,,,,,,,,,
,html-keyboard-response,13,93553,0.0-13.0,null,,,<div class='center'><p><img src='../static/images/tutorial/blue_win.png' height='500'></p></div>,null,,,,,,,,,,,
,html-keyboard-response,14,95679,0.0-14.0,2124.5999999940395,,,<div class='center'><img src='../static/images/tutorial/blue.png' height='500'></p></div>,49,,,,,,,,,,,
,html-keyboard-response,15,97191,0.0-15.0,null,,,<div class='center'><p><img src='../static/images/tutorial/blue_no_win.png' height='500'></p></div>,null,,,,,,,,,,,
,html-keyboard-response,16,99624,0.0-16.0,2431.10000000149,,,<div class='center'><img src='../static/images/tutorial/blue.png' height='500'></p></div>,49,,,,,,,,,,,
,html-keyboard-response,17,101130,0.0-17.0,null,,,<div class='center'><p><img src='../static/images/tutorial/blue_win.png' height='500'></p></div>,null,,,,,,,,,,,
,html-keyboard-response,18,102964,0.0-18.0,1832,,,<div class='center'><img src='../static/images/tutorial/blue.png' height='500'></p></div>,49,,,,,,,,,,,
,html-keyboard-response,19,104472,0.0-19.0,null,,,<div class='center'><p><img src='../static/images/tutorial/blue_win.png' height='500'></p></div>,null,,,,,,,,,,,
,html-keyboard-response,20,105883,0.0-20.0,1409.2999999970198,,,<div class='center'><img src='../static/images/tutorial/blue.png' height='500'></p></div>,49,,,,,,,,,,,
,html-keyboard-response,21,107390,0.0-21.0,null,,,<div class='center'><p><img src='../static/images/tutorial/blue_win.png' height='500'></p></div>,null,,,,,,,,,,,
,html-keyboard-response,22,108161,0.0-22.0,769.3999999985099,,,<div class='center'><img src='../static/images/tutorial/blue.png' height='500'></p></div>,49,,,,,,,,,,,
,html-keyboard-response,23,109672,0.0-23.0,null,,,<div class='center'><p><img src='../static/images/tutorial/blue_no_win.png' height='500'></p></div>,null,,,,,,,,,,,
,html-keyboard-response,24,116072,0.0-24.0,6398.10000000149,,,<div class='center'><img src='../static/images/tutorial/blue.png' height='500'></p></div>,49,,,,,,,,,,,
,html-keyboard-response,25,117577,0.0-25.0,null,,,<div class='center'><p><img src='../static/images/tutorial/blue_win.png' height='500'></p></div>,null,,,,,,,,,,,
,html-keyboard-response,26,120289,0.0-26.0,2711,,,<div class='center'><img src='../static/images/tutorial/blue.png' height='500'></p></div>,49,,,,,,,,,,,
,html-keyboard-response,27,121800,0.0-27.0,null,,,<div class='center'><p><img src='../static/images/tutorial/blue_win.png' height='500'></p></div>,null,,,,,,,,,,,
,instruc6,28,123804,0.0-28.0,null,,,<div class='center'><p> See, he succeeded in robbing the ships most of the time but not every time. </p></div>,null,<div class='center'><p> See, he succeeded in robbing the ships most of the time but not every time. </p></div>,,,,,,,,,,
,html-keyboard-response,29,125007,0.0-29.0,1201.1000000014901,,,<div class='center'><p> See, he succeeded in robbing the ships most of the time but not every time. </p><p><b>[Press the space bar to continue]</b></p></div>,32,,,,,,,,,,,
,html-keyboard-response,30,146977,0.0-30.0,21968.5,,,<div class='center'><p>From these three pirates, you will get to choose which one you want to rob the next ship. <p>Press the <b>'1'</b> key on your keyboard to pick the pirate with the red beard.</p><p> Press <b>'2'</b> to pick the pirate with the white beard.</p><p> Press <b>'3'</b> to pick the pirate with the black beard.</p><p>Try picking a pirate now!</p><p><img src='../static/images/tutorial/all_pirates.png' height='500'></p></div>,51,,,,,,,,,,,
,html-keyboard-response,31,149772,0.0-31.0-0.0,2792.89999999851,,,<div class='center'><p>Yay! This pirate succeeded in robbing the ship!</p><p><img src='../static/images/tutorial/black_win.png' height='500'></p><p><b>[Press the space bar to continue]</b></p></div>,32,,,,,,,,,,,
,html-keyboard-response,32,152299,0.0-31.0-1.0,2525,,,<div class='center'><p>Now try choosing another.</p><p><img src='../static/images/tutorial/all_pirates.png' height='500'></p></div>,50,,,,,,,,,,,
,html-keyboard-response,33,154398,0.0-32.0-0.0,2096.6999999955297,,,<div class='center'><p>Oh no! This pirate did not succeed in robbing the ship.</p><p><img src='../static/images/tutorial/white_no_win.png' height='500'></p><p><b>[Press the space bar to continue]</b></p></div>,32,,,,,,,,,,,
,instruc9,34,156407,0.0-33.0-0.0,null,,,<div class='center'><p>If you don't make your choice fast enough, you'll have to wait a few seconds before you can make another one. </p><p><img src='../static/images/miscellaneous/hurry_up.png' height='500'></p></div>,null,<div class='center'><p>If you don't make your choice fast enough, you'll have to wait a few seconds before you can make another one. </p><p><img src='../static/images/miscellaneous/hurry_up.png' height='500'></p></div>,,,,,,,,,,
,html-keyboard-response,35,158771,0.0-33.0-1.0,2363.3000000044703,,,<div class='center'><p>If you don't make your choice fast enough, you'll have to wait a few seconds before you can make another one. </p><p><img src='../static/images/miscellaneous/hurry_up.png' height='500'></p><p><b>[Press the space bar to continue]</b></p></div>,32,,,,,,,,,,,
,instruc11,36,160776,0.0-33.0-2.0,null,,,<div class='center'><p>How successful a pirate is at robbing ships will depend on the island you're on.</p><p> A pirate may have visited this island many times before and gained a lot of practice robbing ships there.</p><p>So, they're more likely to be successful than a pirate who has never visited the island before.</p></div>,null,<div class='center'><p>How successful a pirate is at robbing ships will depend on the island you're on.</p><p> A pirate may have visited this island many times before and gained a lot of practice robbing ships there.</p><p>So, they're more likely to be successful than a pirate who has never visited the island before.</p></div>,,,,,,,,,,
,html-keyboard-response,37,163514,0.0-33.0-3.0,2736,,,<div class='center'><p>How successful a pirate is at robbing ships will depend on the island you're on.</p><p> A pirate may have visited this island many times before and gained a lot of practice robbing ships there.</p><p>So, they're more likely to be successful than a pirate who has never visited the island before.</p><p><b>[Press the space bar to continue]</b></p></div>,32,,,,,,,,,,,
,instruc12,38,165521,0.0-33.0-4.0,null,,,<div class='center'><p>How successful a pirate is at robbing ships can also change over the time spent on the island. </p><p> Ships may hear from islanders about the pirates coming and will improve their protections against the attack. This may make it harder to rob them.</p><p> Ships may also become lazy and weaken the strength of their protections. This may make it easier to rob them.</p><br><p>Things are always changing on the high seas! So, try your best to pay attention!</p><p><img src='../static/images/tutorial/contingency.png' height='500'></p></div>,null,<div class='center'><p>How successful a pirate is at robbing ships can also change over the time spent on the island. </p><p> Ships may hear from islanders about the pirates coming and will improve their protections against the attack. This may make it harder to rob them.</p><p> Ships may also become lazy and weaken the strength of their protections. This may make it easier to rob them.</p><br><p>Things are always changing on the high seas! So, try your best to pay attention!</p><p><img src='../static/images/tutorial/contingency.png' height='500'></p></div>,,,,,,,,,,
,html-keyboard-response,39,183185,0.0-33.0-5.0,17663,,,<div class='center'><p>How successful a pirate is at robbing ships can also change over the time spent on the island. </p><p> Ships may hear from islanders about the pirates coming and will improve their protections against the attack. This may make it harder to rob them.</p><p> Ships may also become lazy and weaken the strength of their protections. This may make it easier to rob them.</p><br><p>Things are always changing on the high seas! So, try your best to pay attention!</p><p><img src='../static/images/tutorial/contingency.png' height='500'></p><p><b>[Press the space bar to continue]</b></p></div>,32,,,,,,,,,,,
,instruc13,40,185189,0.0-33.0-6.0,null,,,<div class='center'><p>Let's go over the instructions quickly again. You have one thing to do: </p><p><b>Pick the pirate who is the best at robbing ships on the current island.</b></p><p>The amount of bonus money you win depends on it.</p><br><p>Let's try a practice game. The game will start by showing you an island. Pick a pirate using the <b>1, 2, 3</b> keys on your keyboard to get it to try and rob one of the ships leaving the island.</p><p>This is just a practice game, so you're not playing for money.</p><p>Good luck! This game will be very difficult but try your best!</p></div>,null,<div class='center'><p>Let's go over the instructions quickly again. You have one thing to do: </p><p><b>Pick the pirate who is the best at robbing ships on the current island.</b></p><p>The amount of bonus money you win depends on it.</p><br><p>Let's try a practice game. The game will start by showing you an island. Pick a pirate using the <b>1, 2, 3</b> keys on your keyboard to get it to try and rob one of the ships leaving the island.</p><p>This is just a practice game, so you're not playing for money.</p><p>Good luck! This game will be very difficult but try your best!</p></div>,,,,,,,,,,
,html-keyboard-response,41,202046,0.0-33.0-7.0,16855.29999999702,,,<div class='center'><p>Let's go over the instructions quickly again. You have one thing to do: </p><p><b>Pick the pirate who is the best at robbing ships on the current island.</b></p><p>The amount of bonus money you win depends on it.</p><br><p>Let's try a practice game. The game will start by showing you an island. Pick a pirate using the <b>1, 2, 3</b> keys on your keyboard to get it to try and rob one of the ships leaving the island.</p><p>This is just a practice game, so you're not playing for money.</p><p>Good luck! This game will be very difficult but try your best!</p><p><b>[Press the space bar to continue]</b></p></div>,32,,,,,,,,,,,
,do_welcome,42,206059,0.0-33.0-8.0,null,,,,,,null,,,,,,,,,
,do_trial,43,209960,0.0-33.0-9.0,1387.9000000059605,,,,,,49,1,0,0,,,,,,,,
,html-keyboard-response,44,210964,0.0-34.0-0.0,null,,,<p></p>,null,,,,,,,,,,,
,do_trial,45,214644,0.0-34.0-1.0,1170.2999999970198,,,,,,51,1,1,0,,,,,,,,
,html-keyboard-response,46,215651,0.0-35.0-0.0,null,,,<p></p>,null,,,,,,,,,,,
,do_trial,47,218230,0.0-35.0-1.0,66.59999999403954,,,,,,50,1,0,1,,,,,,,,
,html-keyboard-response,48,219239,0.0-36.0-0.0,null,,,<p></p>,null,,,,,,,,,,,
,do_trial,49,222226,0.0-36.0-1.0,482.3999999985099,,,,,,49,0,1,0,,,,,,,,
,html-keyboard-response,50,223232,0.0-37.0-0.0,null,,,<p></p>,null,,,,,,,,,,,
,do_trial,51,225758,0.0-37.0-1.0,22.5,,,,,,50,1,0,0,,,,,,,,
,do_bye,52,227279,0.0-38.0-0.0,null,,,,,,null,,,,,,,,,
,do_travel,53,236290,0.0-38.0-1.0,null,,,,,,null,,,,,,,,,
,do_welcome,54,240304,0.0-38.0-2.0,null,,,,,,null,,,,,,,,,
,do_trial,55,243860,0.0-38.0-3.0,1039.6999999955297,,,,,,49,1,0,0,,,,,,,,
,html-keyboard-response,56,244868,0.0-39.0-0.0,null,,,<p></p>,null,,,,,,,,,,,
,do_trial,57,248987,0.0-39.0-1.0,1603.5,,,,,,49,1,0,1,,,,,,,,
,html-keyboard-response,58,249991,0.0-40.0-0.0,null,,,<p></p>,null,,,,,,,,,,,
,do_trial,59,254232,0.0-40.0-1.0,1730.2000000029802,,,,,,49,1,1,0,,,,,,,,
,html-keyboard-response,60,255237,0.0-41.0-0.0,null,,,<p></p>,null,,,,,,,,,,,
,do_trial,61,258640,0.0-41.0-1.0,897,,,,,,49,0,0,1,,,,,,,,
,html-keyboard-response,62,259644,0.0-42.0-0.0,null,,,<p></p>,null,,,,,,,,,,,
,do_trial,63,262162,0.0-42.0-1.0,6.899999998509884,,,,,,51,1,0,1,,,,,,,,
,html-keyboard-response,64,265621,0.0-43.0-0.0,3457.1999999955297,,,<div class='center'><p><img src='../static/images/tutorial/prac_best_pirate.png' height='500'></p></div>,49,,,,,,,,,,,
,html-keyboard-response,65,268720,0.0-44.0-0.0,3097.7000000029802,,,<div class='center'><p>That's correct! Red beard was the best.</p><p><b>[Press the space bar to continue]</b></p></div>,32,,,,,,,,,,,
,quiz_beginning,66,270721,0.0-44.0-1.0,null,,,<div class='center'><p>Good job on the practice game! Now, you will be asked some true or false questions to make sure you really understand the rules of the game.</p><p> Press <b>'1'</b> on the keyboard for true and press <b>'2'</b> for false.</p></div>,null,<div class='center'><p>Good job on the practice game! Now, you will be asked some true or false questions to make sure you really understand the rules of the game.</p><p> Press <b>'1'</b> on the keyboard for true and press <b>'2'</b> for false.</p></div>,,,,,,,,,,
,html-keyboard-response,67,276571,0.0-44.0-2.0,5848.5,,,<div class='center'><p>You win bonus money by collecting gold coins.</p><p>Press 1 for true and press  2 for false.</p></div>,50,,,,,,,,,,,
,q1_err,68,278586,0.0-45.0-0.0,null,,,<div class='center'><p>That’s incorrect. You win bonus money by collecting gold coins.</p></div>,null,<div class='center'><p>That’s incorrect. You win bonus money by collecting gold coins.</p></div>,,,,,,,,,,
,html-keyboard-response,69,282988,0.0-45.0-1.0,4399.39999999851,,,<div class='center'><p>That’s incorrect. You win bonus money by collecting gold coins.</p><p><b>[Press the space bar to continue]</b></p></div>,32,,,,,,,,,,,
,html-keyboard-response,70,290540,0.0-45.0-2.0,7550.89999999851,,,<div class='center'><p>The pirate who is the best at robbing ships when you first arrive on the island will definitely still be the best when you leave the island. </p><p>Press 1 for true and press  2 for false.</p></div>,49,,,,,,,,,,,
,q2_err,71,292545,0.0-46.0-0.0,null,,,<div class='center'><p>That’s incorrect. Which pirate is the best may change during your time on the island.</p></div>,null,<div class='center'><p>That’s incorrect. Which pirate is the best may change during your time on the island.</p></div>,,,,,,,,,,
,html-keyboard-response,72,293992,0.0-46.0-1.0,1445.8999999985099,,,<div class='center'><p>That’s incorrect. Which pirate is the best may change during your time on the island.</p><p><b>[Press the space bar to continue]</b></p></div>,32,,,,,,,,,,,
,html-keyboard-response,73,297555,0.0-46.0-2.0,3561.9000000059605,,,<div class='center'><p>The pirate who is the best at robbing ships on the first island will be the best on every other island.</p><p>Press 1 for true and press  2 for false.</p></div>,50,,,,,,,,,,,
,correct,74,299564,0.0-47.0-0.0,null,,,<div class='center'><p>That's correct!</p></div>,null,<div class='center'><p>That's correct!</p></div>,,,,,,,,,,
,html-keyboard-response,75,300810,0.0-47.0-1.0,1243.8000000044703,,,<div class='center'><p>That's correct!</p><p><b>[Press the space bar to continue]</b></p></div>,32,,,,,,,,,,,
,html-keyboard-response,76,305301,0.0-47.0-2.0,4490.80000000447,,,<div class='center'><p>You should remember the island where a pirate robbed a ship.</p><p>Press 1 for true and press  2 for false.</p></div>,50,,,,,,,,,,,
,q4_err,77,307311,0.0-48.0-0.0,null,,,<div class='center'><p>That’s incorrect. You should remember the island where a pirate robbed a ship. To help you remember, you can make up a story associating the object on the ship with the island.</p></div>,null,<div class='center'><p>That’s incorrect. You should remember the island where a pirate robbed a ship. To help you remember, you can make up a story associating the object on the ship with the island.</p></div>,,,,,,,,,,
,html-keyboard-response,78,310197,0.0-48.0-1.0,2885,,,<div class='center'><p>That’s incorrect. You should remember the island where a pirate robbed a ship. To help you remember, you can make up a story associating the object on the ship with the island.</p><p><b>[Press the space bar to continue]</b></p></div>,32,,,,,,,,,,,
,q_all_err,79,312199,0.0-49.0-0.0,null,,,<div class='center'><p>Oops, you missed some questions. Now that you’ve heard the correct answers. Try the quiz again! </p></div>,null,<div class='center'><p>Oops, you missed some questions. Now that you’ve heard the correct answers. Try the quiz again! </p></div>,,,,,,,,,,
,html-keyboard-response,80,313972,0.0-49.0-1.0,1772,,,<div class='center'><p>Oops, you missed some questions. Now that you’ve heard the correct answers. Try the quiz again! </p><p><b>[Press the space bar to continue]</b></p></div>,32,,,,,,,,,,,
,html-keyboard-response,81,316440,0.0-49.0-2.0,2466.60000000149,,,<div class='center'><p>You win bonus money by collecting gold coins.</p><p>Press 1 for true and press  2 for false.</p></div>,49,,,,,,,,,,,
,correct,82,318448,0.0-50.0-0.0,null,,,<div class='center'><p>That's correct!</p></div>,null,<div class='center'><p>That's correct!</p></div>,,,,,,,,,,
,html-keyboard-response,83,319475,0.0-50.0-1.0,1025.6000000014901,,,<div class='center'><p>That's correct!</p><p><b>[Press the space bar to continue]</b></p></div>,32,,,,,,,,,,,
,html-keyboard-response,84,322435,0.0-50.0-2.0,2959.2000000029802,,,<div class='center'><p>The pirate who is the best at robbing ships when you first arrive on the island will definitely still be the best when you leave the island. </p><p>Press 1 for true and press  2 for false.</p></div>,49,,,,,,,,,,,
,q2_err,85,324445,0.0-51.0-0.0,null,,,<div class='center'><p>That’s incorrect. Which pirate is the best may change during your time on the island.</p></div>,null,<div class='center'><p>That’s incorrect. Which pirate is the best may change during your time on the island.</p></div>,,,,,,,,,,
,html-keyboard-response,86,326311,0.0-51.0-1.0,1864.3999999985099,,,<div class='center'><p>That’s incorrect. Which pirate is the best may change during your time on the island.</p><p><b>[Press the space bar to continue]</b></p></div>,32,,,,,,,,,,,
,html-keyboard-response,87,330128,0.0-51.0-2.0,3815.89999999851,,,<div class='center'><p>The pirate who is the best at robbing ships on the first island will be the best on every other island.</p><p>Press 1 for true and press  2 for false.</p></div>,49,,,,,,,,,,,
,q3_err,88,332135,0.0-52.0-0.0,null,,,<div class='center'><p>That’s incorrect. How good a pirate is at robbing ships will change from island to island!</p></div>,null,<div class='center'><p>That’s incorrect. How good a pirate is at robbing ships will change from island to island!</p></div>,,,,,,,,,,
,html-keyboard-response,89,333649,0.0-52.0-1.0,1511.7999999970198,,,<div class='center'><p>That’s incorrect. How good a pirate is at robbing ships will change from island to island!</p><p><b>[Press the space bar to continue]</b></p></div>,32,,,,,,,,,,,
,html-keyboard-response,90,337694,0.0-52.0-2.0,4044.7000000029802,,,<div class='center'><p>You should remember the island where a pirate robbed a ship.</p><p>Press 1 for true and press  2 for false.</p></div>,49,,,,,,,,,,,
,correct,91,339698,0.0-53.0-0.0,null,,,<div class='center'><p>That's correct!</p></div>,null,<div class='center'><p>That's correct!</p></div>,,,,,,,,,,
,html-keyboard-response,92,340798,0.0-53.0-1.0,1098.6999999955297,,,<div class='center'><p>That's correct!</p><p><b>[Press the space bar to continue]</b></p></div>,32,,,,,,,,,,,
,q_all_err,93,342813,0.0-54.0-0.0,null,,,<div class='center'><p>Oops, you missed some questions. Now that you’ve heard the correct answers. Try the quiz again! </p></div>,null,<div class='center'><p>Oops, you missed some questions. Now that you’ve heard the correct answers. Try the quiz again! </p></div>,,,,,,,,,,
,html-keyboard-response,94,343624,0.0-54.0-1.0,809.7000000029802,,,<div class='center'><p>Oops, you missed some questions. Now that you’ve heard the correct answers. Try the quiz again! </p><p><b>[Press the space bar to continue]</b></p></div>,32,,,,,,,,,,,
,html-keyboard-response,95,346301,0.0-54.0-2.0,2675.6999999955297,,,<div class='center'><p>You win bonus money by collecting gold coins.</p><p>Press 1 for true and press  2 for false.</p></div>,49,,,,,,,,,,,
,correct,96,348310,0.0-55.0-0.0,null,,,<div class='center'><p>That's correct!</p></div>,null,<div class='center'><p>That's correct!</p></div>,,,,,,,,,,
,html-keyboard-response,97,349310,0.0-55.0-1.0,999,,,<div class='center'><p>That's correct!</p><p><b>[Press the space bar to continue]</b></p></div>,32,,,,,,,,,,,
,html-keyboard-response,98,353768,0.0-55.0-2.0,4457.20000000298,,,<div class='center'><p>The pirate who is the best at robbing ships when you first arrive on the island will definitely still be the best when you leave the island. </p><p>Press 1 for true and press  2 for false.</p></div>,50,,,,,,,,,,,
,correct,99,355778,0.0-56.0-0.0,null,,,<div class='center'><p>That's correct!</p></div>,null,<div class='center'><p>That's correct!</p></div>,,,,,,,,,,
,html-keyboard-response,100,356744,0.0-56.0-1.0,964.3999999985099,,,<div class='center'><p>That's correct!</p><p><b>[Press the space bar to continue]</b></p></div>,32,,,,,,,,,,,
,html-keyboard-response,101,362454,0.0-56.0-2.0,5709.79999999702,,,<div class='center'><p>The pirate who is the best at robbing ships on the first island will be the best on every other island.</p><p>Press 1 for true and press  2 for false.</p></div>,50,,,,,,,,,,,
,correct,102,364464,0.0-57.0-0.0,null,,,<div class='center'><p>That's correct!</p></div>,null,<div class='center'><p>That's correct!</p></div>,,,,,,,,,,
,html-keyboard-response,103,365251,0.0-57.0-1.0,785.0999999940395,,,<div class='center'><p>That's correct!</p><p><b>[Press the space bar to continue]</b></p></div>,32,,,,,,,,,,,
,html-keyboard-response,104,368923,0.0-57.0-2.0,3671.7000000029802,,,<div class='center'><p>You should remember the island where a pirate robbed a ship.</p><p>Press 1 for true and press  2 for false.</p></div>,49,,,,,,,,,,,
,correct,105,370952,0.0-58.0-0.0,null,,,<div class='center'><p>That's correct!</p></div>,null,<div class='center'><p>That's correct!</p></div>,,,,,,,,,,
,html-keyboard-response,106,371918,0.0-58.0-1.0,965,,,<div class='center'><p>That's correct!</p><p><b>[Press the space bar to continue]</b></p></div>,32,,,,,,,,,,,
,q_all_corr,107,373923,0.0-59.0-0.0,null,,,<div class='center'><p>Good job! You’re now ready to move on to the real game! Remember this game will be difficult but don't get discouraged and try your best!</p></div>,null,<div class='center'><p>Good job! You’re now ready to move on to the real game! Remember this game will be difficult but don't get discouraged and try your best!</p></div>,,,,,,,,,,
,html-keyboard-response,108,376734,0.0-59.0-1.0,2809.6999999955297,,,<div class='center'><p>Good job! You’re now ready to move on to the real game! Remember this game will be difficult but don't get discouraged and try your best!</p><p><b>[Press the space bar to continue]</b></p></div>,32,,,,,,,,,,,
,do_welcome,109,380756,0.0-60.0-0.0,null,,,,,,null,,,,,,,,,
,do_trial,110,384552,0.0-61.0-0.0,1276.3000000044703,,,,,,49,1,0,0,0,city,0,0.6,0.3,0.1,1,learn
,html-keyboard-response,111,385557,0.0-61.0-1.0,null,,,<p></p>,null,,,,,,,,,,,
,do_trial,112,388604,0.0-62.0-0.0,540.5,,,,,,49,0,0,0,0,city,1,0.5292776261797714,0.22492767389348678,0.10520957560412271,0,learn
,html-keyboard-response,113,389607,0.0-62.0-1.0,null,,,<p></p>,null,,,,,,,,,,,
,do_trial,114,392782,0.0-63.0-0.0,668.6000000014901,,,,,,51,1,0,0,0,city,2,0.6542968246489158,0.15854391419428154,0.25925984973344846,0,learn
,html-keyboard-response,115,393798,0.0-63.0-1.0,null,,,<p></p>,null,,,,,,,,,,,
,do_trial,116,396783,0.0-64.0-0.0,476.8999999985099,,,,,,50,0,0,0,0,city,3,0.6529397216024445,0.1328038375555712,0.2263230662461156,0,learn
,html-keyboard-response,117,397793,0.0-64.0-1.0,null,,,<p></p>,null,,,,,,,,,,,
,do_trial,118,400638,0.0-65.0-0.0,322.6000000014901,,,,,,49,1,0,0,0,city,4,0.6489569978373241,0.2230389341314084,0.06579079793257138,1,learn
,html-keyboard-response,119,401641,0.0-65.0-1.0,null,,,<p></p>,null,,,,,,,,,,,
,do_trial,120,404805,0.0-66.0-0.0,650.7000000029802,,,,,,51,0,0,0,0,city,5,0.5501839673521581,0.18481372565680412,0.14499836996633414,0,learn
,html-keyboard-response,121,405816,0.0-66.0-1.0,null,,,<p></p>,null,,,,,,,,,,,
,do_trial,122,408692,0.0-67.0-0.0,360,,,,,,49,1,1,0,0,city,6,0.5636181491647798,0.2092667825284106,0.053000930509294206,1,learn
,html-keyboard-response,123,409703,0.0-67.0-1.0,null,,,<p></p>,null,,,,,,,,,,,
,do_trial,124,412848,0.0-68.0-0.0,627.0999999940395,,,,,,49,0,1,0,0,city,7,0.411923178143297,0.26841439560241087,0.0646857391455276,0,learn
,html-keyboard-response,125,413851,0.0-68.0-1.0,null,,,<p></p>,null,,,,,,,,,,,
,do_trial,126,416573,0.0-69.0-0.0,212.39999999850988,,,,,,50,0,0,0,0,city,8,0.47062425707490796,0.2649602205489476,0.056301935198171116,0,learn
,html-keyboard-response,127,417579,0.0-69.0-1.0,null,,,<p></p>,null,,,,,,,,,,,
,do_trial,128,420422,0.0-70.0-0.0,338.29999999701977,,,,,,51,1,0,0,0,city,9,0.5424922042271002,0.2340536427500744,0.1584507477023353,0,learn
,html-keyboard-response,129,421432,0.0-70.0-1.0,null,,,<p></p>,null,,,,,,,,,,,
,do_trial,130,424319,0.0-71.0-0.0,375.19999999552965,,,,,,49,1,0,1,0,city,10,0.6517333445191238,0.2888192321288477,0.14037224624202416,1,learn
,html-keyboard-response,131,425322,0.0-71.0-1.0,null,,,<p></p>,null,,,,,,,,,,,
,do_trial,132,428925,0.0-72.0-0.0,1081.8999999985099,,,,,,49,1,1,0,0,city,11,0.6901635459678782,0.22744993440806419,0.12599237648628375,1,learn
,html-keyboard-response,133,429936,0.0-72.0-1.0,null,,,<p></p>,null,,,,,,,,,,,
,do_trial,134,433646,0.0-73.0-0.0,1195.2000000029802,,,,,,49,0,0,1,0,city,12,0.6297025173479506,0.2676090489774802,0.1749188016240242,0,learn
,html-keyboard-response,135,434661,0.0-73.0-1.0,null,,,<p></p>,null,,,,,,,,,,,
,do_trial,136,437190,0.0-74.0-0.0,8.799999997019768,,,,,,50,1,0,1,0,city,13,0.685112841585852,0.20969244341424784,0.3181189477839422,0,learn
,html-keyboard-response,137,438199,0.0-74.0-1.0,null,,,<p></p>,null,,,,,,,,,,,
,do_trial,138,440735,0.0-75.0-0.0,23.299999997019768,,,,,,51,1,1,0,0,city,14,0.7608060892895289,0.19532226539766076,0.3137006023175964,0,learn
,html-keyboard-response,139,441742,0.0-75.0-1.0,null,,,<p></p>,null,,,,,,,,,,,
,do_trial,140,444851,0.0-76.0-0.0,599.1000000014901,,,,,,49,1,1,1,0,city,15,0.7720408834566627,0.18349082923068286,0.11935660342955157,1,learn
,html-keyboard-response,141,445854,0.0-76.0-1.0,null,,,<p></p>,null,,,,,,,,,,,
,do_trial,142,449089,0.0-77.0-0.0,717.1000000014901,,,,,,49,1,0,0,0,city,16,0.7086167567192351,0.20661948698564775,0.06246252924771665,1,learn
,html-keyboard-response,143,450102,0.0-77.0-1.0,null,,,<p></p>,null,,,,,,,,,,,
,do_trial,144,453121,0.0-78.0-0.0,498.5,,,,,,49,0,0,0,0,city,17,0.6143441164349506,0.17154315606744228,0.17381817360654886,0,learn
,html-keyboard-response,145,454138,0.0-78.0-1.0,null,,,<p></p>,null,,,,,,,,,,,
,do_trial,146,457098,0.0-79.0-0.0,447.09999999403954,,,,,,50,1,0,0,0,city,18,0.6170845762497231,0.2717691872100186,0.09656059950349741,0,learn
,html-keyboard-response,147,458113,0.0-79.0-1.0,null,,,<p></p>,null,,,,,,,,,,,
,do_trial,148,461432,0.0-80.0-0.0,810.6999999955297,,,,,,51,0,0,0,0,city,19,0.5296972599357812,0.3236262162136117,0.12009650745058957,0,learn
,html-keyboard-response,149,462446,0.0-80.0-1.0,null,,,<p></p>,null,,,,,,,,,,,
,do_trial,150,465253,0.0-81.0-0.0,298.69999999552965,,,,,,49,1,0,0,0,city,20,0.38854126194371275,0.31862473425219406,0.1993379721450688,1,learn
,html-keyboard-response,151,466267,0.0-81.0-1.0,null,,,<p></p>,null,,,,,,,,,,,
,do_trial,152,469246,0.0-82.0-0.0,468.5,,,,,,49,0,0,0,0,city,21,0.42172800187300286,0.26240847310509097,0.11557306372353382,0,learn
,html-keyboard-response,153,470255,0.0-82.0-1.0,null,,,<p></p>,null,,,,,,,,,,,
,do_trial,154,473181,0.0-83.0-0.0,415.1000000014901,,,,,,51,1,0,0,0,city,22,0.48433504096884383,0.22950080758956767,0.06347782952866673,0,learn
,html-keyboard-response,155,474190,0.0-83.0-1.0,null,,,<p></p>,null,,,,,,,,,,,
,do_trial,156,477937,0.0-84.0-0.0,1238.2999999970198,,,,,,51,1,0,0,0,city,23,0.5232764218732241,0.1844473028650616,0.07916144508119954,0,learn
,html-keyboard-response,157,478940,0.0-84.0-1.0,null,,,<p></p>,null,,,,,,,,,,,
,do_trial,158,481919,0.0-85.0-0.0,472.8999999985099,,,,,,49,1,1,0,0,city,24,0.6693151819151131,0.27602096762662376,0.07712059757573295,1,learn
,html-keyboard-response,159,482925,0.0-85.0-1.0,null,,,<p></p>,null,,,,,,,,,,,
,do_trial,160,488947,0.0-86.0-0.0,null,,,,,,null,1,0,0,0,city,25,0.7437986823640893,0.31222830907485033,0.1796249698044663,,learn
,html-keyboard-response,161,489955,0.0-86.0-1.0,null,,,<p></p>,null,,,,,,,,,,,
,do_trial,162,493575,0.0-87.0-0.0,1109.7000000029802,,,,,,49,1,0,0,0,city,26,0.7181109997926519,0.18627593961209749,0.07303759346809645,1,learn
,html-keyboard-response,163,494579,0.0-87.0-1.0,null,,,<p></p>,null,,,,,,,,,,,
,do_trial,164,497811,0.0-88.0-0.0,720.1000000014901,,,,,,49,1,0,0,0,city,27,0.643752822729028,0.18831625113601308,0.07562764268757709,1,learn
,html-keyboard-response,165,498814,0.0-88.0-1.0,null,,,<p></p>,null,,,,,,,,,,,
,do_trial,166,502117,0.0-89.0-0.0,796.5,,,,,,49,1,0,0,0,city,28,0.6405890146681082,0.2663999223942152,0.11228507704807754,1,learn
,html-keyboard-response,167,503118,0.0-89.0-1.0,null,,,<p></p>,null,,,,,,,,,,,
,do_trial,168,506505,0.0-90.0-0.0,881.2999999970198,,,,,,49,1,0,0,0,city,29,0.5964504448429435,0.3792123933785851,0.2524487473484696,1,learn
,html-keyboard-response,169,507508,0.0-90.0-1.0,null,,,<p></p>,null,,,,,,,,,,,
,do_bye,170,509024,0.0-91.0-0.0,null,,,,,,null,,,,,,,,,
,do_travel,171,518034,0.0-92.0-0.0,null,,,,,,null,,,,,,,,,
