success,trial_type,trial_index,time_elapsed,internal_node_id,rt,responses,subject_id,stimulus,key_press,prompt,response,choice_outcomes,context_n,context_img_id,trial_n,pR_red,pR_white,pR_black,outcome,phase,island_num,passed
true,fullscreen,0,4152,0.0-0.0,,,,,,,,,,,,,,,,,,
,survey-html-form,1,17310,0.0-1.0,13152.89999999106,{worker_id:Bryce},Bryce,,,,,,,,,,,,,,,
,instruc1,2,19313,0.0-2.0,null,,Bryce,<div class='center'><p>Welcome! This study will last ~30 minutes. After the instructions there will be a practice game and quiz to make sure you understand the task. Today you will be the head captain of a pirate ship traveling around the world to different islands. Here is an overview of what you will be doing:</p><br><p> 1. Try to find the most successful pirate on 6 different islands</p><p> 2. Recall which pirates did the best on each island</p><br><p>,null,<div class='center'><p>Welcome! This study will last ~30 minutes. After the instructions there will be a practice game and quiz to make sure you understand the task. Today you will be the head captain of a pirate ship traveling around the world to different islands. Here is an overview of what you will be doing:</p><br><p> 1. Try to find the most successful pirate on 6 different islands</p><p> 2. Recall which pirates did the best on each island</p><br><p>,,,,,,,,,,,,
,html-keyboard-response,3,20181,0.0-3.0,866.5,,,<div class='center'><p>Welcome! This study will last ~30 minutes. After the instructions there will be a practice game and quiz to make sure you understand the task. Today you will be the head captain of a pirate ship traveling around the world to different islands. Here is an overview of what you will be doing:</p><br><p> 1. Try to find the most successful pirate on 6 different islands</p><p> 2. Recall which pirates did the best on each island</p><br><p><p><b>[Press the space bar to continue]</b></p></div>,32,,,,,,,,,,,,,
,instruc2,4,22187,0.0-4.0,null,,,<div class='center'><p>You are going to visit these 6 islands on your journey. You'll be able to see these islands from your ship.</p><p><img src='../static/images/contexts/all_contexts.png' height='500'></p></div>,null,<div class='center'><p>You are going to visit these 6 islands on your journey. You'll be able to see these islands from your ship.</p><p><img src='../static/images/contexts/all_contexts.png' height='500'></p></div>,,,,,,,,,,,,
,html-keyboard-response,5,22875,0.0-5.0,685.5,,,<div class='center'><p>You are going to visit these 6 islands on your journey. You'll be able to see these islands from your ship.</p><p><img src='../static/images/contexts/all_contexts.png' height='500'></p><p><b>[Press the space bar to continue]</b></p></div>,32,,,,,,,,,,,,,
,instruc4,6,24881,0.0-6.0,null,,,<div class='center'><p>As the head captain, you do not have to rob any ships yourself. Another pirate will be doing the robbing for you. First, you will choose a pirate to rob the next ship.</p><p><img src='../static/images/tutorial/pirates_all_crop.png' height='200'></p><p>Then, you'll see if the pirate successfully robbed the ship of their gold. If they were successful, then you'll get a stack of gold coins like this:</p><p><img src='../static/images/tutorial/reward.png' height='150'></p><p> If they were <b>not</b> successful, then you'll get no gold coins, and you'll see a big red x like this: </p><p><img src='../static/images/tutorial/reward_no.png' height='150'></p><p> How much bonus money you make is based on how many gold coins you collect.</p><div>,null,<div class='center'><p>As the head captain, you do not have to rob any ships yourself. Another pirate will be doing the robbing for you. First, you will choose a pirate to rob the next ship.</p><p><img src='../static/images/tutorial/pirates_all_crop.png' height='200'></p><p>Then, you'll see if the pirate successfully robbed the ship of their gold. If they were successful, then you'll get a stack of gold coins like this:</p><p><img src='../static/images/tutorial/reward.png' height='150'></p><p> If they were <b>not</b> successful, then you'll get no gold coins, and you'll see a big red x like this: </p><p><img src='../static/images/tutorial/reward_no.png' height='150'></p><p> How much bonus money you make is based on how many gold coins you collect.</p><div>,,,,,,,,,,,,
,html-keyboard-response,7,25238,0.0-7.0,355.5,,,<div class='center'><p>As the head captain, you do not have to rob any ships yourself. Another pirate will be doing the robbing for you. First, you will choose a pirate to rob the next ship.</p><p><img src='../static/images/tutorial/pirates_all_crop.png' height='200'></p><p>Then, you'll see if the pirate successfully robbed the ship of their gold. If they were successful, then you'll get a stack of gold coins like this:</p><p><img src='../static/images/tutorial/reward.png' height='150'></p><p> If they were <b>not</b> successful, then you'll get no gold coins, and you'll see a big red x like this: </p><p><img src='../static/images/tutorial/reward_no.png' height='150'></p><p> How much bonus money you make is based on how many gold coins you collect.</p><div><p><b>[Press the space bar to continue]</b></p></div>,32,,,,,,,,,,,,,
,instruc5,8,26133,0.0-8.0,893.1000000089407,,,<div class='center'><p>Even the most skilled pirate can not rob EVERY ship.</p><p> Some ships will have very strong protections against pirate attacks.</p><p> Blue beard, here, is very, very good at robbing ships, but he won't be successful every time he tries to rob one.</p><p> You can press the <b>'1'</b> key on the keyboard to choose him.</p><p> Try choosing him 10 times to see how often he succeeds at robbing a ship. </p><p><img src='../static/images/tutorial/blue.png' height='500'></p></div>,49,<div class='center'><p>Even the most skilled pirate can not rob EVERY ship.</p><p> Some ships will have very strong protections against pirate attacks.</p><p> Blue beard, here, is very, very good at robbing ships, but he won't be successful every time he tries to rob one.</p><p> You can press the <b>'1'</b> key on the keyboard to choose him.</p><p> Try choosing him 10 times to see how often he succeeds at robbing a ship. </p><p><img src='../static/images/tutorial/blue.png' height='500'></p></div>,,,,,,,,,,,,
,html-keyboard-response,9,27648,0.0-9.0,null,,,<div class='center'><p><img src='../static/images/tutorial/blue_win.png' height='500'></p></div>,null,,,,,,,,,,,,,
,html-keyboard-response,10,28013,0.0-10.0,362.3999999910593,,,<div class='center'><img src='../static/images/tutorial/blue.png' height='500'></p></div>,49,,,,,,,,,,,,,
,html-keyboard-response,11,29520,0.0-11.0,null,,,<div class='center'><p><img src='../static/images/tutorial/blue_win.png' height='500'></p></div>,null,,,,,,,,,,,,,
,html-keyboard-response,12,29834,0.0-12.0,312.80000001192093,,,<div class='center'><img src='../static/images/tutorial/blue.png' height='500'></p></div>,49,,,,,,,,,,,,,
,html-keyboard-response,13,31343,0.0-13.0,null,,,<div class='center'><p><img src='../static/images/tutorial/blue_win.png' height='500'></p></div>,null,,,,,,,,,,,,,
,html-keyboard-response,14,31631,0.0-14.0,286.80000001192093,,,<div class='center'><img src='../static/images/tutorial/blue.png' height='500'></p></div>,49,,,,,,,,,,,,,
,html-keyboard-response,15,33134,0.0-15.0,null,,,<div class='center'><p><img src='../static/images/tutorial/blue_no_win.png' height='500'></p></div>,null,,,,,,,,,,,,,
,html-keyboard-response,16,33534,0.0-16.0,397.90000000596046,,,<div class='center'><img src='../static/images/tutorial/blue.png' height='500'></p></div>,49,,,,,,,,,,,,,
,html-keyboard-response,17,35049,0.0-17.0,null,,,<div class='center'><p><img src='../static/images/tutorial/blue_win.png' height='500'></p></div>,null,,,,,,,,,,,,,
,html-keyboard-response,18,35057,0.0-18.0,6.799999997019768,,,<div class='center'><img src='../static/images/tutorial/blue.png' height='500'></p></div>,49,,,,,,,,,,,,,
,html-keyboard-response,19,36566,0.0-19.0,null,,,<div class='center'><p><img src='../static/images/tutorial/blue_win.png' height='500'></p></div>,null,,,,,,,,,,,,,
,html-keyboard-response,20,36790,0.0-20.0,221.70000000298023,,,<div class='center'><img src='../static/images/tutorial/blue.png' height='500'></p></div>,49,,,,,,,,,,,,,
,html-keyboard-response,21,38302,0.0-21.0,null,,,<div class='center'><p><img src='../static/images/tutorial/blue_win.png' height='500'></p></div>,null,,,,,,,,,,,,,
,html-keyboard-response,22,39123,0.0-22.0,820.9000000059605,,,<div class='center'><img src='../static/images/tutorial/blue.png' height='500'></p></div>,49,,,,,,,,,,,,,
,html-keyboard-response,23,40626,0.0-23.0,null,,,<div class='center'><p><img src='../static/images/tutorial/blue_no_win.png' height='500'></p></div>,null,,,,,,,,,,,,,
,html-keyboard-response,24,41466,0.0-24.0,838.7999999970198,,,<div class='center'><img src='../static/images/tutorial/blue.png' height='500'></p></div>,49,,,,,,,,,,,,,
,html-keyboard-response,25,42970,0.0-25.0,null,,,<div class='center'><p><img src='../static/images/tutorial/blue_win.png' height='500'></p></div>,null,,,,,,,,,,,,,
,html-keyboard-response,26,43495,0.0-26.0,524.5,,,<div class='center'><img src='../static/images/tutorial/blue.png' height='500'></p></div>,49,,,,,,,,,,,,,
,html-keyboard-response,27,45003,0.0-27.0,null,,,<div class='center'><p><img src='../static/images/tutorial/blue_win.png' height='500'></p></div>,null,,,,,,,,,,,,,
,instruc6,28,47009,0.0-28.0,null,,,<div class='center'><p> See, he succeeded in robbing the ships most of the time but not every time. </p></div>,null,<div class='center'><p> See, he succeeded in robbing the ships most of the time but not every time. </p></div>,,,,,,,,,,,,
,html-keyboard-response,29,47326,0.0-29.0,316.40000000596046,,,<div class='center'><p> See, he succeeded in robbing the ships most of the time but not every time. </p><p><b>[Press the space bar to continue]</b></p></div>,32,,,,,,,,,,,,,
,html-keyboard-response,30,48222,0.0-30.0,894,,,<div class='center'><p>From these three pirates, you will get to choose which one you want to rob the next ship. <p>Press the <b>'1'</b> key on your keyboard to pick the pirate with the red beard.</p><p> Press <b>'2'</b> to pick the pirate with the white beard.</p><p> Press <b>'3'</b> to pick the pirate with the black beard.</p><p>Try picking a pirate now!</p><p><img src='../static/images/tutorial/all_pirates.png' height='500'></p></div>,49,,,,,,,,,,,,,
,html-keyboard-response,31,48415,0.0-31.0-0.0,192,,,<div class='center'><p>Yay! This pirate succeeded in robbing the ship!</p><p><img src='../static/images/tutorial/red_win.png' height='500'></p><p><b>[Press the space bar to continue]</b></p></div>,32,,,,,,,,,,,,,
,html-keyboard-response,32,48649,0.0-31.0-1.0,232.3999999910593,,,<div class='center'><p>Now try choosing another.</p><p><img src='../static/images/tutorial/all_pirates.png' height='500'></p></div>,50,,,,,,,,,,,,,
,html-keyboard-response,33,49060,0.0-32.0-0.0,409.79999999701977,,,<div class='center'><p>Oh no! This pirate did not succeed in robbing the ship.</p><p><img src='../static/images/tutorial/white_no_win.png' height='500'></p><p><b>[Press the space bar to continue]</b></p></div>,32,,,,,,,,,,,,,
,instruc9,34,51064,0.0-33.0-0.0,null,,,<div class='center'><p>If you don't make your choice fast enough, you'll have to wait a few seconds before you can make another one. </p><p><img src='../static/images/miscellaneous/hurry_up.png' height='500'></p></div>,null,<div class='center'><p>If you don't make your choice fast enough, you'll have to wait a few seconds before you can make another one. </p><p><img src='../static/images/miscellaneous/hurry_up.png' height='500'></p></div>,,,,,,,,,,,,
,html-keyboard-response,35,53883,0.0-33.0-1.0,2817.4000000059605,,,<div class='center'><p>If you don't make your choice fast enough, you'll have to wait a few seconds before you can make another one. </p><p><img src='../static/images/miscellaneous/hurry_up.png' height='500'></p><p><b>[Press the space bar to continue]</b></p></div>,32,,,,,,,,,,,,,
,instruc11,36,55887,0.0-33.0-2.0,null,,,<div class='center'><p>How successful a pirate is at robbing ships will depend on the island you're on.</p><p> A pirate may have visited this island many times before and gained a lot of practice robbing ships there.</p><p>So, they're more likely to be successful than a pirate who has never visited the island before.</p></div>,null,<div class='center'><p>How successful a pirate is at robbing ships will depend on the island you're on.</p><p> A pirate may have visited this island many times before and gained a lot of practice robbing ships there.</p><p>So, they're more likely to be successful than a pirate who has never visited the island before.</p></div>,,,,,,,,,,,,
,html-keyboard-response,37,56382,0.0-33.0-3.0,494,,,<div class='center'><p>How successful a pirate is at robbing ships will depend on the island you're on.</p><p> A pirate may have visited this island many times before and gained a lot of practice robbing ships there.</p><p>So, they're more likely to be successful than a pirate who has never visited the island before.</p><p><b>[Press the space bar to continue]</b></p></div>,32,,,,,,,,,,,,,
,instruc12,38,58387,0.0-33.0-4.0,null,,,<div class='center'><p>How successful a pirate is at robbing ships can also change over the time spent on the island. </p><p> Ships may hear from islanders about the pirates coming and will improve their protections against the attack. This may make it harder to rob them.</p><p> Ships may also become lazy and weaken the strength of their protections. This may make it easier to rob them.</p><br><p>Things are always changing on the high seas! So, try your best to pay attention!</p><p><img src='../static/images/tutorial/contingency.png' height='500'></p></div>,null,<div class='center'><p>How successful a pirate is at robbing ships can also change over the time spent on the island. </p><p> Ships may hear from islanders about the pirates coming and will improve their protections against the attack. This may make it harder to rob them.</p><p> Ships may also become lazy and weaken the strength of their protections. This may make it easier to rob them.</p><br><p>Things are always changing on the high seas! So, try your best to pay attention!</p><p><img src='../static/images/tutorial/contingency.png' height='500'></p></div>,,,,,,,,,,,,
,html-keyboard-response,39,58785,0.0-33.0-5.0,397,,,<div class='center'><p>How successful a pirate is at robbing ships can also change over the time spent on the island. </p><p> Ships may hear from islanders about the pirates coming and will improve their protections against the attack. This may make it harder to rob them.</p><p> Ships may also become lazy and weaken the strength of their protections. This may make it easier to rob them.</p><br><p>Things are always changing on the high seas! So, try your best to pay attention!</p><p><img src='../static/images/tutorial/contingency.png' height='500'></p><p><b>[Press the space bar to continue]</b></p></div>,32,,,,,,,,,,,,,
,instruc13,40,60787,0.0-33.0-6.0,null,,,<div class='center'><p>Let's go over the instructions quickly again. You have one thing to do: </p><p><b>Pick the pirate who is the best at robbing ships on the current island.</b></p><p>The amount of bonus money you win depends on it.</p><br><p>Let's try a practice game. The game will start by showing you an island. Pick a pirate using the <b>1, 2, 3</b> keys on your keyboard to get it to try and rob one of the ships leaving the island.</p><p>This is just a practice game, so you're not playing for money.</p><p>Good luck! This game will be very difficult but try your best!</p></div>,null,<div class='center'><p>Let's go over the instructions quickly again. You have one thing to do: </p><p><b>Pick the pirate who is the best at robbing ships on the current island.</b></p><p>The amount of bonus money you win depends on it.</p><br><p>Let's try a practice game. The game will start by showing you an island. Pick a pirate using the <b>1, 2, 3</b> keys on your keyboard to get it to try and rob one of the ships leaving the island.</p><p>This is just a practice game, so you're not playing for money.</p><p>Good luck! This game will be very difficult but try your best!</p></div>,,,,,,,,,,,,
,html-keyboard-response,41,61263,0.0-33.0-7.0,475.3999999910593,,,<div class='center'><p>Let's go over the instructions quickly again. You have one thing to do: </p><p><b>Pick the pirate who is the best at robbing ships on the current island.</b></p><p>The amount of bonus money you win depends on it.</p><br><p>Let's try a practice game. The game will start by showing you an island. Pick a pirate using the <b>1, 2, 3</b> keys on your keyboard to get it to try and rob one of the ships leaving the island.</p><p>This is just a practice game, so you're not playing for money.</p><p>Good luck! This game will be very difficult but try your best!</p><p><b>[Press the space bar to continue]</b></p></div>,32,,,,,,,,,,,,,
,do_welcome,42,65275,0.0-33.0-8.0,null,,,,,,null,,,,,,,,,,,
,do_trial,43,68445,0.0-33.0-9.0,664,,,,,,49,1,0,0,,,,,,,,,,
,html-keyboard-response,44,69463,0.0-34.0-0.0,null,,,<p></p>,null,,,,,,,,,,,,,
,do_trial,45,72308,0.0-34.0-1.0,334.70000000298023,,,,,,49,1,1,0,,,,,,,,,,
,html-keyboard-response,46,73310,0.0-35.0-0.0,null,,,<p></p>,null,,,,,,,,,,,,,
,do_trial,47,77083,0.0-35.0-1.0,1262.5,,,,,,49,1,0,1,,,,,,,,,,
,html-keyboard-response,48,78102,0.0-36.0-0.0,null,,,<p></p>,null,,,,,,,,,,,,,
,do_trial,49,82490,0.0-36.0-1.0,1883.199999988079,,,,,,49,0,1,0,,,,,,,,,,
,html-keyboard-response,50,83495,0.0-37.0-0.0,null,,,<p></p>,null,,,,,,,,,,,,,
,do_trial,51,86339,0.0-37.0-1.0,336.59999999403954,,,,,,49,1,0,0,,,,,,,,,,
,do_bye,52,87851,0.0-38.0-0.0,null,,,,,,null,,,,,,,,,,,
,do_travel,53,96860,0.0-38.0-1.0,null,,,,,,null,,,,,,,,,,,
,do_welcome,54,100869,0.0-38.0-2.0,null,,,,,,null,,,,,,,,,,,
,do_trial,55,103882,0.0-38.0-3.0,505.90000000596046,,,,,,49,1,0,0,,,,,,,,,,
,html-keyboard-response,56,104885,0.0-39.0-0.0,null,,,<p></p>,null,,,,,,,,,,,,,
,do_trial,57,108238,0.0-39.0-1.0,847.7999999970198,,,,,,49,1,0,1,,,,,,,,,,
,html-keyboard-response,58,109242,0.0-40.0-0.0,null,,,<p></p>,null,,,,,,,,,,,,,
,do_trial,59,112194,0.0-40.0-1.0,441.79999999701977,,,,,,50,1,1,0,,,,,,,,,,
,html-keyboard-response,60,113212,0.0-41.0-0.0,null,,,<p></p>,null,,,,,,,,,,,,,
,do_trial,61,115950,0.0-41.0-1.0,229.09999999403954,,,,,,50,0,0,1,,,,,,,,,,
,html-keyboard-response,62,116953,0.0-42.0-0.0,null,,,<p></p>,null,,,,,,,,,,,,,
,do_trial,63,119699,0.0-42.0-1.0,236.69999998807907,,,,,,50,1,0,1,,,,,,,,,,
,html-keyboard-response,64,120702,0.0-43.0-0.0,1001.0999999940395,,,<div class='center'><p><img src='../static/images/tutorial/prac_best_pirate.png' height='500'></p></div>,49,,,,,,,,,,,,,
,html-keyboard-response,65,121412,0.0-44.0-0.0,709.2999999970198,,,<div class='center'><p>That's correct! Red beard was the best.</p><p><b>[Press the space bar to continue]</b></p></div>,32,,,,,,,,,,,,,
,quiz_beginning,66,123426,0.0-44.0-1.0,null,,,<div class='center'><p>Good job on the practice game! Now, you will be asked some true or false questions to make sure you really understand the rules of the game.</p><p> Press <b>'1'</b> on the keyboard for true and press <b>'2'</b> for false.</p></div>,null,<div class='center'><p>Good job on the practice game! Now, you will be asked some true or false questions to make sure you really understand the rules of the game.</p><p> Press <b>'1'</b> on the keyboard for true and press <b>'2'</b> for false.</p></div>,,,,,,,,,,,,
,html-keyboard-response,67,124746,0.0-44.0-2.0,1319.2999999970198,,,<div class='center'><p>You win bonus money by collecting gold coins.</p><p>Press 1 for true and press  2 for false.</p></div>,49,,,,,,,,,,,,,
,correct,68,126759,0.0-45.0-0.0,null,,,<div class='center'><p>That's correct!</p></div>,null,<div class='center'><p>That's correct!</p></div>,,,,,,,,,,,,
,html-keyboard-response,69,127019,0.0-45.0-1.0,258.70000000298023,,,<div class='center'><p>That's correct!</p><p><b>[Press the space bar to continue]</b></p></div>,32,,,,,,,,,,,,,
,html-keyboard-response,70,129174,0.0-45.0-2.0,2153.8999999910593,,,<div class='center'><p>The pirate who is the best at robbing ships when you first arrive on the island will definitely still be the best when you leave the island. </p><p>Press 1 for true and press  2 for false.</p></div>,50,,,,,,,,,,,,,
,correct,71,131191,0.0-46.0-0.0,null,,,<div class='center'><p>That's correct!</p></div>,null,<div class='center'><p>That's correct!</p></div>,,,,,,,,,,,,
,html-keyboard-response,72,131433,0.0-46.0-1.0,241,,,<div class='center'><p>That's correct!</p><p><b>[Press the space bar to continue]</b></p></div>,32,,,,,,,,,,,,,
,html-keyboard-response,73,132185,0.0-46.0-2.0,751.0999999940395,,,<div class='center'><p>The pirate who is the best at robbing ships on the first island will be the best on every other island.</p><p>Press 1 for true and press  2 for false.</p></div>,50,,,,,,,,,,,,,
,correct,74,134192,0.0-47.0-0.0,null,,,<div class='center'><p>That's correct!</p></div>,null,<div class='center'><p>That's correct!</p></div>,,,,,,,,,,,,
,html-keyboard-response,75,134398,0.0-47.0-1.0,205,,,<div class='center'><p>That's correct!</p><p><b>[Press the space bar to continue]</b></p></div>,32,,,,,,,,,,,,,
,html-keyboard-response,76,135369,0.0-47.0-2.0,970.4000000059605,,,<div class='center'><p>You should remember the island where a pirate robbed a ship.</p><p>Press 1 for true and press  2 for false.</p></div>,49,,,,,,,,,,,,,
,correct,77,137391,0.0-48.0-0.0,null,,,<div class='center'><p>That's correct!</p></div>,null,<div class='center'><p>That's correct!</p></div>,,,,,,,,,,,,
,html-keyboard-response,78,137725,0.0-48.0-1.0,332.90000000596046,,,<div class='center'><p>That's correct!</p><p><b>[Press the space bar to continue]</b></p></div>,32,,,,,,,,,,,,,
,q_all_corr,79,139732,0.0-49.0-0.0,null,,,<div class='center'><p>Good job! You’re now ready to move on to the real game! Remember this game will be difficult but don't get discouraged and try your best!</p></div>,null,<div class='center'><p>Good job! You’re now ready to move on to the real game! Remember this game will be difficult but don't get discouraged and try your best!</p></div>,,,,,,,,,,,,
,html-keyboard-response,80,140028,0.0-49.0-1.0,294.09999999403954,,,<div class='center'><p>Good job! You’re now ready to move on to the real game! Remember this game will be difficult but don't get discouraged and try your best!</p><p><b>[Press the space bar to continue]</b></p></div>,32,,,,,,,,,,,,,
,do_welcome,81,144054,0.0-50.0-0.0,null,,,,,,null,,,,,,,,,,,
,do_trial,82,146966,0.0-51.0-0.0,399.59999999403954,,,,,,49,1,0,1,0,coast,0,0.6,0.3,0.1,1,learn,,
,html-keyboard-response,83,147974,0.0-51.0-1.0,null,,,<p></p>,null,,,,,,,,,,,,,
,do_trial,84,152967,0.0-52.0-0.0,2487.3999999910593,,,,,,49,0,1,1,0,coast,1,0.6505087530249786,0.3429379611945963,0.2483100333777408,0,learn,,
,html-keyboard-response,85,153974,0.0-52.0-1.0,null,,,<p></p>,null,,,,,,,,,,,,,
,do_trial,86,158072,0.0-53.0-0.0,1592.800000011921,,,,,,49,1,0,0,0,coast,2,0.7385232959567111,0.31592695309429764,0.29176724145548333,1,learn,,
,html-keyboard-response,87,159081,0.0-53.0-1.0,null,,,<p></p>,null,,,,,,,,,,,,,
,do_trial,88,162264,0.0-54.0-0.0,676.5999999940395,,,,,,49,1,1,0,0,coast,3,0.6840700041875176,0.32521766713618083,0.20093592278207795,1,learn,,
,html-keyboard-response,89,163266,0.0-54.0-1.0,null,,,<p></p>,null,,,,,,,,,,,,,
,do_trial,90,167712,0.0-55.0-0.0,1942,,,,,,49,1,0,0,0,coast,4,0.7444108287783641,0.40963187752880714,0.16953931018624374,1,learn,,
,html-keyboard-response,91,168725,0.0-55.0-1.0,null,,,<p></p>,null,,,,,,,,,,,,,
,do_trial,92,171564,0.0-56.0-0.0,321.59999999403954,,,,,,49,1,0,1,0,coast,5,0.7776989121549859,0.29393743923461174,0.1558375443665924,1,learn,,
,html-keyboard-response,93,172575,0.0-56.0-1.0,null,,,<p></p>,null,,,,,,,,,,,,,
,do_trial,94,175330,0.0-57.0-0.0,249.09999999403954,,,,,,49,1,1,0,0,coast,6,0.7854250095940312,0.25201660467705284,0.23940373865993153,1,learn,,
,html-keyboard-response,95,176334,0.0-57.0-1.0,null,,,<p></p>,null,,,,,,,,,,,,,
,do_trial,96,179123,0.0-58.0-0.0,276.19999998807907,,,,,,49,1,1,0,0,coast,7,0.7231665955557672,0.1969967484475919,0.14552192013913223,1,learn,,
,html-keyboard-response,97,180126,0.0-58.0-1.0,null,,,<p></p>,null,,,,,,,,,,,,,
,do_trial,98,182861,0.0-59.0-0.0,228,,,,,,49,1,0,0,0,coast,8,0.701737533013664,0.24796731128477928,0.06379999116852979,1,learn,,
,html-keyboard-response,99,183864,0.0-59.0-1.0,null,,,<p></p>,null,,,,,,,,,,,,,
,do_trial,100,186979,0.0-60.0-0.0,606.2000000029802,,,,,,49,1,0,0,0,coast,9,0.8003132884532093,0.2207320235384358,0.16017609214798087,1,learn,,
,html-keyboard-response,101,187983,0.0-60.0-1.0,null,,,<p></p>,null,,,,,,,,,,,,,
,do_trial,102,191022,0.0-61.0-0.0,520.7000000029802,,,,,,49,1,0,0,0,coast,10,0.6780074944899224,0.2885071239368085,0.20240538894213703,1,learn,,
,html-keyboard-response,103,192033,0.0-61.0-1.0,null,,,<p></p>,null,,,,,,,,,,,,,
,do_trial,104,195140,0.0-62.0-0.0,599.8999999910593,,,,,,49,1,1,0,0,coast,11,0.6134010351661481,0.3344224832057735,0.05509905817423407,1,learn,,
,html-keyboard-response,105,196155,0.0-62.0-1.0,null,,,<p></p>,null,,,,,,,,,,,,,
,do_trial,106,198950,0.0-63.0-0.0,283.20000000298023,,,,,,49,1,0,0,0,coast,12,0.6617504806562268,0.2485090337548897,0.06579394781799142,1,learn,,
,html-keyboard-response,107,199957,0.0-63.0-1.0,null,,,<p></p>,null,,,,,,,,,,,,,
,do_trial,108,203488,0.0-64.0-0.0,1021.1000000089407,,,,,,49,0,1,0,0,coast,13,0.49734558060987083,0.3318938091921749,0.0921831666975924,0,learn,,
,html-keyboard-response,109,204502,0.0-64.0-1.0,null,,,<p></p>,null,,,,,,,,,,,,,
,do_trial,110,207489,0.0-65.0-0.0,476.59999999403954,,,,,,49,1,1,1,0,coast,14,0.4560751229761694,0.33622464845616307,0.1565442802393199,1,learn,,
,html-keyboard-response,111,208503,0.0-65.0-1.0,null,,,<p></p>,null,,,,,,,,,,,,,
,do_trial,112,211242,0.0-66.0-0.0,226.59999999403954,,,,,,49,1,0,0,0,coast,15,0.4191334485580818,0.33391766872684947,0.19900623263486755,1,learn,,
,html-keyboard-response,113,212248,0.0-66.0-1.0,null,,,<p></p>,null,,,,,,,,,,,,,
,do_trial,114,215569,0.0-67.0-0.0,812.5,,,,,,49,0,1,1,0,coast,16,0.5326508021292705,0.26568494071411425,0.17925629776662,0,learn,,
,html-keyboard-response,115,216572,0.0-67.0-1.0,null,,,<p></p>,null,,,,,,,,,,,,,
,do_trial,116,219498,0.0-68.0-0.0,416.5,,,,,,49,1,0,0,0,coast,17,0.7303338339052521,0.30417366481304453,0.13024474427507152,1,learn,,
,html-keyboard-response,117,220505,0.0-68.0-1.0,null,,,<p></p>,null,,,,,,,,,,,,,
,do_trial,118,224046,0.0-69.0-0.0,1026.2999999970198,,,,,,49,1,0,0,0,coast,18,0.7665053008180612,0.3692625533097447,0.1583432249256338,1,learn,,
,html-keyboard-response,119,225057,0.0-69.0-1.0,null,,,<p></p>,null,,,,,,,,,,,,,
,do_trial,120,228180,0.0-70.0-0.0,613.7000000029802,,,,,,49,0,0,0,0,coast,19,0.6219375488031965,0.3157738916323116,0.06571741368650887,0,learn,,
,html-keyboard-response,121,229190,0.0-70.0-1.0,null,,,<p></p>,null,,,,,,,,,,,,,
,do_trial,122,233817,0.0-71.0-0.0,2112.4000000059605,,,,,,49,1,0,0,0,coast,20,0.6081080794944189,0.1556918950639224,0.06801792800144123,1,learn,,
,html-keyboard-response,123,234826,0.0-71.0-1.0,null,,,<p></p>,null,,,,,,,,,,,,,
,do_trial,124,237749,0.0-72.0-0.0,418.29999999701977,,,,,,49,0,0,0,0,coast,21,0.6342893290874878,0.2837545094766336,0.08457235628216832,0,learn,,
,html-keyboard-response,125,238756,0.0-72.0-1.0,null,,,<p></p>,null,,,,,,,,,,,,,
,do_trial,126,241878,0.0-73.0-0.0,608.3999999910593,,,,,,49,1,0,0,0,coast,22,0.6123646345616911,0.2492482113360396,0.05910181738009185,1,learn,,
,html-keyboard-response,127,242886,0.0-73.0-1.0,null,,,<p></p>,null,,,,,,,,,,,,,
,do_trial,128,245702,0.0-74.0-0.0,309,,,,,,49,1,0,0,0,coast,23,0.7204347961751967,0.30019869466333937,0.10432330639706086,1,learn,,
,html-keyboard-response,129,246710,0.0-74.0-1.0,null,,,<p></p>,null,,,,,,,,,,,,,
,do_trial,130,250121,0.0-75.0-0.0,906.2000000029802,,,,,,49,0,0,0,0,coast,24,0.8016658861758714,0.2351574937471904,0.06975812296108097,0,learn,,
,html-keyboard-response,131,251127,0.0-75.0-1.0,null,,,<p></p>,null,,,,,,,,,,,,,
,do_trial,132,254269,0.0-76.0-0.0,629.9000000059605,,,,,,49,1,0,0,0,coast,25,0.7499363110919482,0.30896109943481365,0.09534276064447988,1,learn,,
,html-keyboard-response,133,255282,0.0-76.0-1.0,null,,,<p></p>,null,,,,,,,,,,,,,
,do_trial,134,258901,0.0-77.0-0.0,1108.2999999970198,,,,,,49,0,0,0,0,coast,26,0.585082881512098,0.33901372983564076,0.05874816523881222,0,learn,,
,html-keyboard-response,135,259917,0.0-77.0-1.0,null,,,<p></p>,null,,,,,,,,,,,,,
,do_trial,136,265937,0.0-78.0-0.0,null,,,,,,null,1,1,0,0,coast,27,0.6536729955241022,0.2904844327761951,0.19017987769148925,,learn,,
,html-keyboard-response,137,266941,0.0-78.0-1.0,null,,,<p></p>,null,,,,,,,,,,,,,
,do_trial,138,270200,0.0-79.0-0.0,746.2000000029802,,,,,,49,0,1,1,0,coast,28,0.6121858250392779,0.11518381422549294,0.13828000890480116,0,learn,,
,html-keyboard-response,139,271205,0.0-79.0-1.0,null,,,<p></p>,null,,,,,,,,,,,,,
,do_trial,140,274128,0.0-80.0-0.0,407.5,,,,,,49,1,1,0,0,coast,29,0.8129010610462913,0.18909748956104053,0.27584439709373804,1,learn,,
,html-keyboard-response,141,275135,0.0-80.0-1.0,null,,,<p></p>,null,,,,,,,,,,,,,
,do_bye,142,276644,0.0-81.0-0.0,null,,,,,,null,,,,,,,,,,,
,do_travel,143,285653,0.0-82.0-0.0,null,,,,,,null,,,,,,,,,,,
,do_welcome,144,289667,0.0-82.0-1.0,null,,,,,,null,,,,,,,,,,,
,do_trial,145,292827,0.0-83.0-0.0,649.2000000029802,,,,,,49,1,0,0,1,highway,30,1,0.32545344237287943,0.14488760441535664,1,learn,,
,html-keyboard-response,146,293834,0.0-83.0-1.0,null,,,<p></p>,null,,,,,,,,,,,,,
,do_trial,147,296879,0.0-84.0-0.0,533.2000000029802,,,,,,49,1,0,0,1,highway,31,1,0.32348651581312476,0.14254775354514512,1,learn,,
,html-keyboard-response,148,297881,0.0-84.0-1.0,null,,,<p></p>,null,,,,,,,,,,,,,
,do_trial,149,301201,0.0-85.0-0.0,813.2999999970198,,,,,,49,1,0,0,1,highway,32,1,0.2763443834008261,0.1814100591236266,1,learn,,
,html-keyboard-response,150,302211,0.0-85.0-1.0,null,,,<p></p>,null,,,,,,,,,,,,,
,do_trial,151,305889,0.0-86.0-0.0,1172.7000000029802,,,,,,49,1,1,1,1,highway,33,0.8949346372495789,0.13779808271977528,0.1233043475913444,1,learn,,
,html-keyboard-response,152,306893,0.0-86.0-1.0,null,,,<p></p>,null,,,,,,,,,,,,,
,do_trial,153,310742,0.0-87.0-0.0,1329.1000000089407,,,,,,49,0,0,0,1,highway,34,0.702709909616297,0.23572740754883115,0.11719310822788793,0,learn,,
,html-keyboard-response,154,311756,0.0-87.0-1.0,null,,,<p></p>,null,,,,,,,,,,,,,
,do_trial,155,315232,0.0-88.0-0.0,968.5999999940395,,,,,,49,1,0,0,1,highway,35,0.7732054923426972,0.311896709136032,0.0521935931236379,1,learn,,
,html-keyboard-response,156,316249,0.0-88.0-1.0,null,,,<p></p>,null,,,,,,,,,,,,,
,do_trial,157,319788,0.0-89.0-0.0,1026.5,,,,,,49,1,0,1,1,highway,36,0.5989766911970613,0.2105253414765393,0.20316514934824567,1,learn,,
,html-keyboard-response,158,320800,0.0-89.0-1.0,null,,,<p></p>,null,,,,,,,,,,,,,
,do_trial,159,326817,0.0-90.0-0.0,null,,,,,,null,0,0,0,1,highway,37,0.6936799579275944,0.3118037075988668,0.2258416251590739,,learn,,
,html-keyboard-response,160,327826,0.0-90.0-1.0,null,,,<p></p>,null,,,,,,,,,,,,,
,do_trial,161,330594,0.0-91.0-0.0,261.5,,,,,,49,1,1,0,1,highway,38,0.6710297408254137,0.360817764376208,0.12038840951602266,1,learn,,
,html-keyboard-response,162,331599,0.0-91.0-1.0,null,,,<p></p>,null,,,,,,,,,,,,,
,do_trial,163,334543,0.0-92.0-0.0,432.59999999403954,,,,,,49,1,0,0,1,highway,39,0.6699815981427135,0.4159960698902956,0.12458200415894326,1,learn,,
,html-keyboard-response,164,335556,0.0-92.0-1.0,null,,,<p></p>,null,,,,,,,,,,,,,
,do_trial,165,338821,0.0-93.0-0.0,757.1999999880791,,,,,,49,0,1,0,1,highway,40,0.6071786721714171,0.41683098226092336,0.15347658953976182,0,learn,,
,html-keyboard-response,166,339831,0.0-93.0-1.0,null,,,<p></p>,null,,,,,,,,,,,,,
,do_trial,167,343000,0.0-94.0-0.0,663.3999999910593,,,,,,49,1,0,0,1,highway,41,0.6992088916219011,0.45165048962826193,0.13183996116977442,1,learn,,
,html-keyboard-response,168,344008,0.0-94.0-1.0,null,,,<p></p>,null,,,,,,,,,,,,,
,do_trial,169,348240,0.0-95.0-0.0,1727.5999999940395,,,,,,49,0,1,0,1,highway,42,0.42163687571170094,0.2737567413088086,0.2771025571471126,0,learn,,
,html-keyboard-response,170,349258,0.0-95.0-1.0,null,,,<p></p>,null,,,,,,,,,,,,,
,do_trial,171,352116,0.0-96.0-0.0,343.09999999403954,,,,,,49,1,0,1,1,highway,43,0.20189657399569086,0.21405395942190575,0.385599103805119,1,learn,,
,html-keyboard-response,172,353124,0.0-96.0-1.0,null,,,<p></p>,null,,,,,,,,,,,,,
,do_trial,173,355866,0.0-97.0-0.0,232.6000000089407,,,,,,49,0,0,1,1,highway,44,0.3161785444274757,0.2269073209509671,0.43019065779811544,0,learn,,
,html-keyboard-response,174,356874,0.0-97.0-1.0,null,,,<p></p>,null,,,,,,,,,,,,,
,do_trial,175,360083,0.0-98.0-0.0,697.7999999970198,,,,,,49,0,0,1,1,highway,45,0.3234204981755168,0.10755995265614711,0.523125540101271,0,learn,,
,html-keyboard-response,176,361085,0.0-98.0-1.0,null,,,<p></p>,null,,,,,,,,,,,,,
,do_trial,177,364620,0.0-99.0-0.0,1027.9000000059605,,,,,,49,0,1,0,1,highway,46,0.2599695617621747,0.09088181664924726,0.5305673082291286,0,learn,,
,html-keyboard-response,178,365635,0.0-99.0-1.0,null,,,<p></p>,null,,,,,,,,,,,,,
,do_trial,179,368797,0.0-100.0-0.0,651.2000000029802,,,,,,49,0,0,0,1,highway,47,0.28858812981146087,0.11255318952155674,0.4620295146941373,0,learn,,
,html-keyboard-response,180,369801,0.0-100.0-1.0,null,,,<p></p>,null,,,,,,,,,,,,,
,do_trial,181,373132,0.0-101.0-0.0,818.9000000059605,,,,,,49,1,0,0,1,highway,48,0.27011154374304547,0.07601512767365928,0.4653116076336044,1,learn,,
,html-keyboard-response,182,374141,0.0-101.0-1.0,null,,,<p></p>,null,,,,,,,,,,,,,
,do_trial,183,377477,0.0-102.0-0.0,829,,,,,,49,0,0,0,1,highway,49,0.19599899069247087,0.0703974333107757,0.602110158077344,0,learn,,
,html-keyboard-response,184,378490,0.0-102.0-1.0,null,,,<p></p>,null,,,,,,,,,,,,,
,do_trial,185,384506,0.0-103.0-0.0,null,,,,,,null,0,0,1,1,highway,50,0.2350430209630246,0.15173252251441802,0.5442408972804859,,learn,,
,html-keyboard-response,186,385518,0.0-103.0-1.0,null,,,<p></p>,null,,,,,,,,,,,,,
,do_trial,187,388252,0.0-104.0-0.0,226,,,,,,49,0,0,1,1,highway,51,0.19147262079992075,0.15161682571658003,0.5903799565105503,0,learn,,
,html-keyboard-response,188,389262,0.0-104.0-1.0,null,,,<p></p>,null,,,,,,,,,,,,,
,do_trial,189,392260,0.0-105.0-0.0,492.20000000298023,,,,,,49,0,0,0,1,highway,52,0.08914079734188028,0.10256128397490546,0.42989042036755043,0,learn,,
,html-keyboard-response,190,393278,0.0-105.0-1.0,null,,,<p></p>,null,,,,,,,,,,,,,
,do_trial,191,396332,0.0-106.0-0.0,545.7999999970198,,,,,,49,0,0,0,1,highway,53,0.3628930265086798,0.13937588045088478,0.5156743186827619,0,learn,,
,html-keyboard-response,192,397338,0.0-106.0-1.0,null,,,<p></p>,null,,,,,,,,,,,,,
,do_trial,193,401731,0.0-107.0-0.0,1883.7999999970198,,,,,,49,1,0,0,1,highway,54,0.31649230902466524,0.21467473650111524,0.48870708653142675,1,learn,,
,html-keyboard-response,194,402749,0.0-107.0-1.0,null,,,<p></p>,null,,,,,,,,,,,,,
,do_trial,195,406004,0.0-108.0-0.0,738.2000000029802,,,,,,49,0,0,1,1,highway,55,0.2591808837139591,0.07883593868708832,0.5555863039234428,0,learn,,
,html-keyboard-response,196,407010,0.0-108.0-1.0,null,,,<p></p>,null,,,,,,,,,,,,,
,do_trial,197,413021,0.0-109.0-0.0,null,,,,,,null,0,0,1,1,highway,56,0.38452985955880087,0.09031761671235701,0.5594069023347299,,learn,,
,html-keyboard-response,198,414026,0.0-109.0-1.0,null,,,<p></p>,null,,,,,,,,,,,,,
,do_trial,199,416597,0.0-110.0-0.0,52.5,,,,,,49,1,0,0,1,highway,57,0.4040700134369314,0.16887786496140975,0.6603169914481671,1,learn,,
,html-keyboard-response,200,417608,0.0-110.0-1.0,null,,,<p></p>,null,,,,,,,,,,,,,
,do_trial,201,422196,0.0-111.0-0.0,2081.5999999940395,,,,,,49,0,1,0,1,highway,58,0.2602828934003662,0.21227023665531042,0.6752872833387834,0,learn,,
,html-keyboard-response,202,423204,0.0-111.0-1.0,null,,,<p></p>,null,,,,,,,,,,,,,
,do_trial,203,427187,0.0-112.0-0.0,1473.9000000059605,,,,,,49,1,0,1,1,highway,59,0.2532090737916059,0.29524397050191986,0.8191156963499807,1,learn,,
,html-keyboard-response,204,428203,0.0-112.0-1.0,null,,,<p></p>,null,,,,,,,,,,,,,
,do_trial,205,434229,0.0-113.0-0.0,null,,,,,,null,1,1,1,1,highway,60,0.31295217326000335,0.23484930129590934,0.6944711172971512,,learn,,
,html-keyboard-response,206,435246,0.0-113.0-1.0,null,,,<p></p>,null,,,,,,,,,,,,,
,do_trial,207,438970,0.0-114.0-0.0,1207,,,,,,49,0,0,1,1,highway,61,0.25562815677794465,0.11459339430611103,0.6596655715897478,0,learn,,
,html-keyboard-response,208,439982,0.0-114.0-1.0,null,,,<p></p>,null,,,,,,,,,,,,,
,do_trial,209,442947,0.0-115.0-0.0,451.70000000298023,,,,,,49,0,0,0,1,highway,62,0.2362226707831651,0.14305220764485313,0.5106047951518028,0,learn,,
,html-keyboard-response,210,443954,0.0-115.0-1.0,null,,,<p></p>,null,,,,,,,,,,,,,
,do_trial,211,447851,0.0-116.0-0.0,1376.0999999940395,,,,,,49,1,1,1,1,highway,63,0.26931099145357,0.10404291017145939,0.5585446345597846,1,learn,,
,html-keyboard-response,212,448863,0.0-116.0-1.0,null,,,<p></p>,null,,,,,,,,,,,,,
,do_trial,213,452153,0.0-117.0-0.0,781.2999999970198,,,,,,49,0,0,1,1,highway,64,0.3654531716205604,0.16385796297560123,0.7092435295056758,0,learn,,
,html-keyboard-response,214,453165,0.0-117.0-1.0,null,,,<p></p>,null,,,,,,,,,,,,,
,do_trial,215,457571,0.0-118.0-0.0,1901.5,,,,,,49,0,1,1,1,highway,65,0.27120490918620904,0.1515202291676099,0.5631907039703559,0,learn,,
,html-keyboard-response,216,458577,0.0-118.0-1.0,null,,,<p></p>,null,,,,,,,,,,,,,
,do_trial,217,462568,0.0-119.0-0.0,1485.7999999970198,,,,,,49,1,0,0,1,highway,66,0.2871815375955644,0.25615464188833964,0.5595118657698519,1,learn,,
,html-keyboard-response,218,463570,0.0-119.0-1.0,null,,,<p></p>,null,,,,,,,,,,,,,
,do_trial,219,466414,0.0-120.0-0.0,331.8999999910593,,,,,,49,0,0,1,1,highway,67,0.293191444532302,0.12468209017422816,0.6590873021321886,0,learn,,
,html-keyboard-response,220,467417,0.0-120.0-1.0,null,,,<p></p>,null,,,,,,,,,,,,,
,do_trial,221,471905,0.0-121.0-0.0,1975.7000000029802,,,,,,49,1,0,1,1,highway,68,0.3448329652267455,0.07892990331850724,0.5526904616099197,1,learn,,
,html-keyboard-response,222,472917,0.0-121.0-1.0,null,,,<p></p>,null,,,,,,,,,,,,,
,do_trial,223,476789,0.0-122.0-0.0,1359,,,,,,49,1,0,1,1,highway,69,0.2554551828096451,0.23923592477276842,0.5654816734643332,1,learn,,
,html-keyboard-response,224,477800,0.0-122.0-1.0,null,,,<p></p>,null,,,,,,,,,,,,,
,do_bye,225,479306,0.0-123.0-0.0,null,,,,,,null,,,,,,,,,,,
,do_travel,226,488314,0.0-124.0-0.0,null,,,,,,null,,,,,,,,,,,
,do_welcome,227,492334,0.0-124.0-1.0,null,,,,,,null,,,,,,,,,,,
,do_trial,228,495265,0.0-125.0-0.0,423,,,,,,50,1,0,1,2,countryside,70,0.3263555809521347,0.1404622650328386,1,0,learn,,
,html-keyboard-response,229,496274,0.0-125.0-1.0,null,,,<p></p>,null,,,,,,,,,,,,,
,do_trial,230,499174,0.0-126.0-0.0,389,,,,,,50,1,0,1,2,countryside,71,0.32585910740374,0.1383277685894655,1,0,learn,,
,html-keyboard-response,231,500188,0.0-126.0-1.0,null,,,<p></p>,null,,,,,,,,,,,,,
,do_trial,232,505117,0.0-127.0-0.0,2415.4000000059605,,,,,,49,0,0,1,2,countryside,72,0.21888992560180554,0.1482341788382811,0.590155202528615,0,learn,,
,html-keyboard-response,233,506126,0.0-127.0-1.0,null,,,<p></p>,null,,,,,,,,,,,,,
,do_trial,234,509883,0.0-128.0-0.0,1245.4000000059605,,,,,,49,1,0,1,2,countryside,73,0.23313643506796086,0.19996796989718782,0.5420628651866775,1,learn,,
,html-keyboard-response,235,510893,0.0-128.0-1.0,null,,,<p></p>,null,,,,,,,,,,,,,
,do_trial,236,513815,0.0-129.0-0.0,407.79999999701977,,,,,,49,0,0,0,2,countryside,74,0.31479609189244045,0.24907641220955198,0.48459946209815136,0,learn,,
,html-keyboard-response,237,514832,0.0-129.0-1.0,null,,,<p></p>,null,,,,,,,,,,,,,
,do_trial,238,517683,0.0-130.0-0.0,344.09999999403954,,,,,,49,1,0,0,2,countryside,75,0.2908214384396088,0.10529121981477353,0.48816528875007265,1,learn,,
,html-keyboard-response,239,518699,0.0-130.0-1.0,null,,,<p></p>,null,,,,,,,,,,,,,
,do_trial,240,521560,0.0-131.0-0.0,354.29999999701977,,,,,,49,0,0,0,2,countryside,76,0.47112915858500565,0.1455907311187115,0.595407863925872,0,learn,,
,html-keyboard-response,241,522563,0.0-131.0-1.0,null,,,<p></p>,null,,,,,,,,,,,,,
,do_trial,242,525572,0.0-132.0-0.0,499.79999999701977,,,,,,49,0,1,0,2,countryside,77,0.5146628078064965,0.1749745092755969,0.6828168799039908,0,learn,,
,html-keyboard-response,243,526581,0.0-132.0-1.0,null,,,<p></p>,null,,,,,,,,,,,,,
,do_trial,244,530064,0.0-133.0-0.0,977.6000000089407,,,,,,49,0,0,1,2,countryside,78,0.4377818673685943,0.22414952444277916,0.5655103928922661,0,learn,,
,html-keyboard-response,245,531069,0.0-133.0-1.0,null,,,<p></p>,null,,,,,,,,,,,,,
,do_trial,246,534680,0.0-134.0-0.0,1106.2999999970198,,,,,,49,1,0,0,2,countryside,79,0.4268004012605684,0.08772552496481321,0.4720284817146159,1,learn,,
,html-keyboard-response,247,535686,0.0-134.0-1.0,null,,,<p></p>,null,,,,,,,,,,,,,
,do_trial,248,539256,0.0-135.0-0.0,1057,,,,,,49,1,0,0,2,countryside,80,0.44963130410722996,0.2802768805329658,0.36121984787933537,1,learn,,
,html-keyboard-response,249,540265,0.0-135.0-1.0,null,,,<p></p>,null,,,,,,,,,,,,,
,do_trial,250,543757,0.0-136.0-0.0,979.8000000119209,,,,,,49,0,0,0,2,countryside,81,0.48607631647145666,0.2799846217481292,0.25096367409590925,0,learn,,
,html-keyboard-response,251,544760,0.0-136.0-1.0,null,,,<p></p>,null,,,,,,,,,,,,,
,do_trial,252,547492,0.0-137.0-0.0,223.90000000596046,,,,,,49,0,0,0,2,countryside,82,0.3335268202661807,0.4535165883710368,0.1557894239682016,0,learn,,
,html-keyboard-response,253,548498,0.0-137.0-1.0,null,,,<p></p>,null,,,,,,,,,,,,,
,do_trial,254,551484,0.0-138.0-0.0,472.8999999910593,,,,,,49,0,1,0,2,countryside,83,0.2205410757840783,0.46255084827513154,0.0634418989925428,0,learn,,
,html-keyboard-response,255,552490,0.0-138.0-1.0,null,,,<p></p>,null,,,,,,,,,,,,,
,do_trial,256,555797,0.0-139.0-0.0,792.2000000029802,,,,,,49,0,1,0,2,countryside,84,0.18901092095735583,0.4735758464990032,0.14332335541479255,0,learn,,
,html-keyboard-response,257,556801,0.0-139.0-1.0,null,,,<p></p>,null,,,,,,,,,,,,,
,do_trial,258,559664,0.0-140.0-0.0,353.19999998807907,,,,,,49,0,1,0,2,countryside,85,0.2943009458924047,0.49335535731867736,0.15268830781159015,0,learn,,
,html-keyboard-response,259,560675,0.0-140.0-1.0,null,,,<p></p>,null,,,,,,,,,,,,,
,do_trial,260,563802,0.0-141.0-0.0,622.5,,,,,,49,0,1,0,2,countryside,86,0.33274341230516413,0.5694858642614439,0.17656843156645735,0,learn,,
,html-keyboard-response,261,564806,0.0-141.0-1.0,null,,,<p></p>,null,,,,,,,,,,,,,
,do_trial,262,567889,0.0-142.0-0.0,570.5999999940395,,,,,,49,0,1,0,2,countryside,87,0.34676258208128585,0.5241322052520427,0.17789593835176493,0,learn,,
,html-keyboard-response,263,568898,0.0-142.0-1.0,null,,,<p></p>,null,,,,,,,,,,,,,
,do_trial,264,573362,0.0-143.0-0.0,1955.3999999910593,,,,,,49,0,1,0,2,countryside,88,0.3850278804898868,0.5982975538922056,0.07681252658515259,0,learn,,
,html-keyboard-response,265,574373,0.0-143.0-1.0,null,,,<p></p>,null,,,,,,,,,,,,,
,do_trial,266,577273,0.0-144.0-0.0,386.90000000596046,,,,,,49,0,0,1,2,countryside,89,0.40856172438579236,0.7425747530055793,0.09285543056109258,0,learn,,
,html-keyboard-response,267,578280,0.0-144.0-1.0,null,,,<p></p>,null,,,,,,,,,,,,,
,do_trial,268,582810,0.0-145.0-0.0,2023.2000000029802,,,,,,49,0,0,0,2,countryside,90,0.3435636205001715,0.6560840925982433,0.06810953452169424,0,learn,,
,html-keyboard-response,269,583812,0.0-145.0-1.0,null,,,<p></p>,null,,,,,,,,,,,,,
,do_trial,270,589842,0.0-146.0-0.0,null,,,,,,null,0,1,0,2,countryside,91,0.40267039728855525,0.5780272171204439,0.06495939201514753,,learn,,
,html-keyboard-response,271,590853,0.0-146.0-1.0,null,,,<p></p>,null,,,,,,,,,,,,,
,do_trial,272,593987,0.0-147.0-0.0,628.2000000029802,,,,,,49,0,1,0,2,countryside,92,0.45870355128353185,0.5448600416123471,0.1598706813148487,0,learn,,
,html-keyboard-response,273,594996,0.0-147.0-1.0,null,,,<p></p>,null,,,,,,,,,,,,,
,do_trial,274,597961,0.0-148.0-0.0,455.29999999701977,,,,,,49,0,1,0,2,countryside,93,0.3403202696722383,0.5721600177688017,0.07500320982752964,0,learn,,
,html-keyboard-response,275,598978,0.0-148.0-1.0,null,,,<p></p>,null,,,,,,,,,,,,,
,do_trial,276,602470,0.0-149.0-0.0,988.4000000059605,,,,,,49,0,0,0,2,countryside,94,0.30299767689321533,0.5594678930092436,0.11726372829196612,0,learn,,
,html-keyboard-response,277,603486,0.0-149.0-1.0,null,,,<p></p>,null,,,,,,,,,,,,,
,do_trial,278,606360,0.0-150.0-0.0,363.5,,,,,,49,0,1,0,2,countryside,95,0.3042161018349948,0.5359000770158281,0.32354444562168316,0,learn,,
,html-keyboard-response,279,607369,0.0-150.0-1.0,null,,,<p></p>,null,,,,,,,,,,,,,
,do_trial,280,610511,0.0-151.0-0.0,630,,,,,,49,0,1,1,2,countryside,96,0.4800004733310763,0.5942784823558153,0.18447718818178413,0,learn,,
,html-keyboard-response,281,611514,0.0-151.0-1.0,null,,,<p></p>,null,,,,,,,,,,,,,
,do_trial,282,616687,0.0-152.0-0.0,2664.5,,,,,,49,0,1,0,2,countryside,97,0.37810890258236635,0.5701887590104187,0.25118812667457674,0,learn,,
,html-keyboard-response,283,617695,0.0-152.0-1.0,null,,,<p></p>,null,,,,,,,,,,,,,
,do_trial,284,620260,0.0-153.0-0.0,54.1000000089407,,,,,,49,1,0,0,2,countryside,98,0.35484798194502193,0.6554103039697527,0.2565943668936119,1,learn,,
,html-keyboard-response,285,621262,0.0-153.0-1.0,null,,,<p></p>,null,,,,,,,,,,,,,
,do_trial,286,623845,0.0-154.0-0.0,74.09999999403954,,,,,,49,1,1,0,2,countryside,99,0.24108633977680427,0.6644911891000448,0.28351860012742175,1,learn,,
,html-keyboard-response,287,624854,0.0-154.0-1.0,null,,,<p></p>,null,,,,,,,,,,,,,
,do_trial,288,628282,0.0-155.0-0.0,912.7000000029802,,,,,,49,0,1,0,2,countryside,100,0.19480776044945594,0.9271427858894563,0.2972512036149965,0,learn,,
,html-keyboard-response,289,629286,0.0-155.0-1.0,null,,,<p></p>,null,,,,,,,,,,,,,
,do_trial,290,632053,0.0-156.0-0.0,254.79999999701977,,,,,,49,1,1,0,2,countryside,101,0.12804347790298864,0.6881360900679832,0.285241244034257,1,learn,,
,html-keyboard-response,291,633069,0.0-156.0-1.0,null,,,<p></p>,null,,,,,,,,,,,,,
,do_trial,292,635961,0.0-157.0-0.0,372.5,,,,,,49,0,0,0,2,countryside,102,0.10915700261097991,0.6690289706479977,0.11283558862191657,0,learn,,
,html-keyboard-response,293,636971,0.0-157.0-1.0,null,,,<p></p>,null,,,,,,,,,,,,,
,do_trial,294,639528,0.0-158.0-0.0,51.79999999701977,,,,,,49,0,0,0,2,countryside,103,0.1289823030727238,0.5792443181080562,0.10335816917437264,0,learn,,
,html-keyboard-response,295,640536,0.0-158.0-1.0,null,,,<p></p>,null,,,,,,,,,,,,,
,do_trial,296,643261,0.0-159.0-0.0,206.70000000298023,,,,,,49,1,0,1,2,countryside,104,0.10857270961588135,0.5611163339411486,0.09526578070146319,1,learn,,
,html-keyboard-response,297,644269,0.0-159.0-1.0,null,,,<p></p>,null,,,,,,,,,,,,,
,do_trial,298,646994,0.0-160.0-0.0,218.70000000298023,,,,,,49,0,0,0,2,countryside,105,0.2422781784644785,0.5869199853487879,0.29281052335161023,0,learn,,
,html-keyboard-response,299,648010,0.0-160.0-1.0,null,,,<p></p>,null,,,,,,,,,,,,,
,do_trial,300,650787,0.0-161.0-0.0,262.20000000298023,,,,,,49,0,1,1,2,countryside,106,0.29184086014500066,0.6370213270131485,0.22788994518609862,0,learn,,
,html-keyboard-response,301,651794,0.0-161.0-1.0,null,,,<p></p>,null,,,,,,,,,,,,,
,do_trial,302,654588,0.0-162.0-0.0,290.90000000596046,,,,,,49,0,0,0,2,countryside,107,0.412390142123671,0.519448452812168,0.14954472569192317,0,learn,,
,html-keyboard-response,303,655592,0.0-162.0-1.0,null,,,<p></p>,null,,,,,,,,,,,,,
,do_trial,304,659272,0.0-163.0-0.0,1160.1000000089407,,,,,,49,1,1,0,2,countryside,108,0.42814470682020683,0.5754421552966056,0.2654633654306056,1,learn,,
,html-keyboard-response,305,660277,0.0-163.0-1.0,null,,,<p></p>,null,,,,,,,,,,,,,
,do_trial,306,663125,0.0-164.0-0.0,333.79999999701977,,,,,,49,0,1,0,2,countryside,109,0.5144787830503309,0.6377173107896321,0.09308625499597298,0,learn,,
,html-keyboard-response,307,664141,0.0-164.0-1.0,null,,,<p></p>,null,,,,,,,,,,,,,
,do_bye,308,665649,0.0-165.0-0.0,null,,,,,,null,,,,,,,,,,,
,do_travel,309,674657,0.0-166.0-0.0,null,,,,,,null,,,,,,,,,,,
,do_welcome,310,678670,0.0-166.0-1.0,null,,,,,,null,,,,,,,,,,,
,do_trial,311,681714,0.0-167.0-0.0,537.2000000029802,,,,,,49,0,1,1,3,mountain,110,0.4873550224762929,1,0.23789100125186977,0,learn,,
,html-keyboard-response,312,682719,0.0-167.0-1.0,null,,,<p></p>,null,,,,,,,,,,,,,
,do_trial,313,685857,0.0-168.0-0.0,620,,,,,,49,1,1,0,3,mountain,111,0.3715034596048192,1,0.2759979025389507,1,learn,,
,html-keyboard-response,314,686867,0.0-168.0-1.0,null,,,<p></p>,null,,,,,,,,,,,,,
,do_trial,315,691829,0.0-169.0-0.0,2458.4000000059605,,,,,,49,0,0,0,3,mountain,112,0.35360025526966654,0.7619386569691787,0.17803880404597258,0,learn,,
,html-keyboard-response,316,692833,0.0-169.0-1.0,null,,,<p></p>,null,,,,,,,,,,,,,
,do_trial,317,695867,0.0-170.0-0.0,523.2999999970198,,,,,,49,1,1,0,3,mountain,113,0.2840476880483749,0.7555769338705766,0.06049851856298529,1,learn,,
,html-keyboard-response,318,696873,0.0-170.0-1.0,null,,,<p></p>,null,,,,,,,,,,,,,
,do_trial,319,699630,0.0-171.0-0.0,251.5,,,,,,49,1,1,0,3,mountain,114,0.37164489434404024,0.7159955272380744,0.11918268086254429,1,learn,,
,html-keyboard-response,320,700635,0.0-171.0-1.0,null,,,<p></p>,null,,,,,,,,,,,,,
,do_trial,321,703415,0.0-172.0-0.0,272.70000000298023,,,,,,49,0,1,0,3,mountain,115,0.37949109825305016,0.6649761608066471,0.08997999372026809,0,learn,,
,html-keyboard-response,322,704425,0.0-172.0-1.0,null,,,<p></p>,null,,,,,,,,,,,,,
,do_trial,323,707449,0.0-173.0-0.0,507,,,,,,49,0,1,0,3,mountain,116,0.4281549241731146,0.6062148312150045,0.25114567195551385,0,learn,,
,html-keyboard-response,324,708458,0.0-173.0-1.0,null,,,<p></p>,null,,,,,,,,,,,,,
,do_trial,325,711221,0.0-174.0-0.0,254.5,,,,,,49,0,1,1,3,mountain,117,0.24576681355555197,0.45000799842526,0.05156464056653546,0,learn,,
,html-keyboard-response,326,712224,0.0-174.0-1.0,null,,,<p></p>,null,,,,,,,,,,,,,
,do_trial,327,715181,0.0-175.0-0.0,444.70000000298023,,,,,,49,0,1,0,3,mountain,118,0.17063427315347388,0.47185702838891685,0.16429859950072867,0,learn,,
,html-keyboard-response,328,716189,0.0-175.0-1.0,null,,,<p></p>,null,,,,,,,,,,,,,
,do_trial,329,718966,0.0-176.0-0.0,262.5,,,,,,49,0,0,0,3,mountain,119,0.15948939182784905,0.5100691255763009,0.11731404966700276,0,learn,,
,html-keyboard-response,330,719968,0.0-176.0-1.0,null,,,<p></p>,null,,,,,,,,,,,,,
,do_trial,331,722616,0.0-177.0-0.0,135.90000000596046,,,,,,49,1,0,0,3,mountain,120,0.19582199236652917,0.5344198365729437,0.15675337047998775,1,learn,,
,html-keyboard-response,332,723623,0.0-177.0-1.0,null,,,<p></p>,null,,,,,,,,,,,,,
,do_trial,333,726966,0.0-178.0-0.0,833.7000000029802,,,,,,51,1,0,0,3,mountain,121,0.27801760480097476,0.6380161071595418,0.07165870729579625,0,learn,,
,html-keyboard-response,334,727982,0.0-178.0-1.0,null,,,<p></p>,null,,,,,,,,,,,,,
,do_trial,335,730948,0.0-179.0-0.0,448.90000000596046,,,,,,49,0,0,0,3,mountain,122,0.12114895819915263,0.4391065868707748,0.3365895288235189,0,learn,,
,html-keyboard-response,336,731964,0.0-179.0-1.0,null,,,<p></p>,null,,,,,,,,,,,,,
,do_trial,337,735139,0.0-180.0-0.0,668.8999999910593,,,,,,49,0,0,0,3,mountain,123,0.2432144304378064,0.33872047902132785,0.4395203854358456,0,learn,,
,html-keyboard-response,338,736148,0.0-180.0-1.0,null,,,<p></p>,null,,,,,,,,,,,,,
,do_trial,339,739036,0.0-181.0-0.0,370.30000001192093,,,,,,50,1,1,0,3,mountain,124,0.3117418119535774,0.31547334643539693,0.400389257235132,1,learn,,
,html-keyboard-response,340,740039,0.0-181.0-1.0,null,,,<p></p>,null,,,,,,,,,,,,,
,do_trial,341,742752,0.0-182.0-0.0,199.40000000596046,,,,,,50,1,0,0,3,mountain,125,0.266998848810674,0.1755809543580249,0.4422618270939572,0,learn,,
,html-keyboard-response,342,743762,0.0-182.0-1.0,null,,,<p></p>,null,,,,,,,,,,,,,
,do_trial,343,746779,0.0-183.0-0.0,509.1000000089407,,,,,,50,0,1,0,3,mountain,126,0.15799338112962416,0.23639317818729239,0.4944763441968963,1,learn,,
,html-keyboard-response,344,747782,0.0-183.0-1.0,null,,,<p></p>,null,,,,,,,,,,,,,
,do_trial,345,750504,0.0-184.0-0.0,211.5,,,,,,50,1,0,1,3,mountain,127,0.3791004788895985,0.28253479081707467,0.4140499137180839,0,learn,,
,html-keyboard-response,346,751513,0.0-184.0-1.0,null,,,<p></p>,null,,,,,,,,,,,,,
,do_trial,347,754443,0.0-185.0-0.0,424,,,,,,50,1,1,1,3,mountain,128,0.3009619543484246,0.2191484720635102,0.5329062560605266,1,learn,,
,html-keyboard-response,348,755454,0.0-185.0-1.0,null,,,<p></p>,null,,,,,,,,,,,,,
,do_trial,349,758237,0.0-186.0-0.0,267.40000000596046,,,,,,50,0,0,1,3,mountain,129,0.286385507415577,0.1763417312135067,0.5792989254665216,0,learn,,
,html-keyboard-response,350,759239,0.0-186.0-1.0,null,,,<p></p>,null,,,,,,,,,,,,,
,do_trial,351,762020,0.0-187.0-0.0,268.6000000089407,,,,,,49,0,0,1,3,mountain,130,0.2946282910282209,0.08917534853058377,0.5124734713810031,0,learn,,
,html-keyboard-response,352,763024,0.0-187.0-1.0,null,,,<p></p>,null,,,,,,,,,,,,,
,do_trial,353,765962,0.0-188.0-0.0,421.6000000089407,,,,,,49,0,0,1,3,mountain,131,0.2901297803539908,0.11337027197542156,0.6171708838506453,0,learn,,
,html-keyboard-response,354,766966,0.0-188.0-1.0,null,,,<p></p>,null,,,,,,,,,,,,,
,do_trial,355,769640,0.0-189.0-0.0,164,,,,,,49,0,0,1,3,mountain,132,0.4394606605729892,0.10034756848104717,0.6590048406275775,0,learn,,
,html-keyboard-response,356,770657,0.0-189.0-1.0,null,,,<p></p>,null,,,,,,,,,,,,,
,do_trial,357,773299,0.0-190.0-0.0,123.70000000298023,,,,,,49,1,1,0,3,mountain,133,0.46172743488630796,0.19240712081702846,0.6053622289716838,1,learn,,
,html-keyboard-response,358,774302,0.0-190.0-1.0,null,,,<p></p>,null,,,,,,,,,,,,,
,do_trial,359,776922,0.0-191.0-0.0,102.40000000596046,,,,,,49,0,0,1,3,mountain,134,0.4154448938684422,0.1491695109093335,0.4673971857109507,0,learn,,
,html-keyboard-response,360,777938,0.0-191.0-1.0,null,,,<p></p>,null,,,,,,,,,,,,,
,do_trial,361,781152,0.0-192.0-0.0,708.4000000059605,,,,,,49,0,0,1,3,mountain,135,0.2607250260507065,0.053742131490650956,0.45454577263994983,0,learn,,
,html-keyboard-response,362,782167,0.0-192.0-1.0,null,,,<p></p>,null,,,,,,,,,,,,,
,do_trial,363,786580,0.0-193.0-0.0,1904.0999999940395,,,,,,49,0,0,0,3,mountain,136,0.26615814081830974,0.09408292688260735,0.607425180111674,0,learn,,
,html-keyboard-response,364,787597,0.0-193.0-1.0,null,,,<p></p>,null,,,,,,,,,,,,,
,do_trial,365,790629,0.0-194.0-0.0,521.9000000059605,,,,,,49,0,0,1,3,mountain,137,0.31749003167103185,0.05093989404435952,0.4926063312360715,0,learn,,
,html-keyboard-response,366,791638,0.0-194.0-1.0,null,,,<p></p>,null,,,,,,,,,,,,,
,do_trial,367,794387,0.0-195.0-0.0,242.09999999403954,,,,,,49,1,0,0,3,mountain,138,0.3527689172151347,0.05559940868712003,0.5278166120612677,1,learn,,
,html-keyboard-response,368,795404,0.0-195.0-1.0,null,,,<p></p>,null,,,,,,,,,,,,,
,do_trial,369,798195,0.0-196.0-0.0,283.29999999701977,,,,,,49,1,0,1,3,mountain,139,0.3572489883773415,0.12960679685695353,0.46800394924698624,1,learn,,
,html-keyboard-response,370,799203,0.0-196.0-1.0,null,,,<p></p>,null,,,,,,,,,,,,,
,do_trial,371,801908,0.0-197.0-0.0,190,,,,,,49,0,0,0,3,mountain,140,0.43554949268875975,0.09591856368546829,0.49878015727385416,0,learn,,
,html-keyboard-response,372,802913,0.0-197.0-1.0,null,,,<p></p>,null,,,,,,,,,,,,,
,do_trial,373,805745,0.0-198.0-0.0,322.70000000298023,,,,,,49,0,0,0,3,mountain,141,0.21927218107242183,0.07963785418321606,0.44663031468709996,0,learn,,
,html-keyboard-response,374,806762,0.0-198.0-1.0,null,,,<p></p>,null,,,,,,,,,,,,,
,do_trial,375,809963,0.0-199.0-0.0,694.2000000029802,,,,,,49,0,0,0,3,mountain,142,0.26654657438782375,0.137809118562778,0.5422233225272673,0,learn,,
,html-keyboard-response,376,810969,0.0-199.0-1.0,null,,,<p></p>,null,,,,,,,,,,,,,
,do_trial,377,814311,0.0-200.0-0.0,832.1000000089407,,,,,,49,0,0,1,3,mountain,143,0.4427278928821076,0.11432266004918491,0.7595472849431812,0,learn,,
,html-keyboard-response,378,815315,0.0-200.0-1.0,null,,,<p></p>,null,,,,,,,,,,,,,
,do_trial,379,818035,0.0-201.0-0.0,206.20000000298023,,,,,,49,0,1,0,3,mountain,144,0.3868317492862767,0.19239108276037314,0.8037565564028468,0,learn,,
,html-keyboard-response,380,819045,0.0-201.0-1.0,null,,,<p></p>,null,,,,,,,,,,,,,
,do_trial,381,821577,0.0-202.0-0.0,25.400000005960464,,,,,,49,1,0,1,3,mountain,145,0.4667829073831921,0.0681436475873632,0.6216687574238327,1,learn,,
,html-keyboard-response,382,822584,0.0-202.0-1.0,null,,,<p></p>,null,,,,,,,,,,,,,
,do_trial,383,825569,0.0-203.0-0.0,475.40000000596046,,,,,,49,0,0,0,3,mountain,146,0.40526090257735387,0.1288671994908545,0.5320965439279454,0,learn,,
,html-keyboard-response,384,826578,0.0-203.0-1.0,null,,,<p></p>,null,,,,,,,,,,,,,
,do_trial,385,829644,0.0-204.0-0.0,549,,,,,,49,1,0,1,3,mountain,147,0.399865053196984,0.11366466763906133,0.4834612789572985,1,learn,,
,html-keyboard-response,386,830648,0.0-204.0-1.0,null,,,<p></p>,null,,,,,,,,,,,,,
,do_trial,387,833217,0.0-205.0-0.0,54.70000000298023,,,,,,49,1,0,0,3,mountain,148,0.40742830306804645,0.1569560841624672,0.4606308501231857,1,learn,,
,html-keyboard-response,388,834225,0.0-205.0-1.0,null,,,<p></p>,null,,,,,,,,,,,,,
,do_trial,389,837336,0.0-206.0-0.0,595,,,,,,49,1,0,0,3,mountain,149,0.30761833484854,0.08723755767435204,0.4347157446088687,1,learn,,
,html-keyboard-response,390,838343,0.0-206.0-1.0,null,,,<p></p>,null,,,,,,,,,,,,,
,do_bye,391,839848,0.0-207.0-0.0,null,,,,,,null,,,,,,,,,,,
,do_travel,392,848867,0.0-208.0-0.0,null,,,,,,null,,,,,,,,,,,
,do_welcome,393,852890,0.0-208.0-1.0,null,,,,,,null,,,,,,,,,,,
,do_trial,394,855975,0.0-209.0-0.0,572.7000000029802,,,,,,49,1,0,1,4,city,150,0.29139793237303746,0.08418717893178158,1,1,learn,,
,html-keyboard-response,395,856993,0.0-209.0-1.0,null,,,<p></p>,null,,,,,,,,,,,,,
,do_trial,396,859859,0.0-210.0-0.0,353.29999999701977,,,,,,49,0,0,1,4,city,151,0.2549108446466488,0.07759815554540855,1,0,learn,,
,html-keyboard-response,397,860872,0.0-210.0-1.0,null,,,<p></p>,null,,,,,,,,,,,,,
,do_trial,398,863817,0.0-211.0-0.0,433.79999999701977,,,,,,49,0,0,1,4,city,152,0.32303941598030766,0.3171141992838854,0.8122172466387203,0,learn,,
,html-keyboard-response,399,864822,0.0-211.0-1.0,null,,,<p></p>,null,,,,,,,,,,,,,
,do_trial,400,867689,0.0-212.0-0.0,359.79999999701977,,,,,,49,0,0,0,4,city,153,0.39389877977361765,0.12104404772917556,0.7293539509459264,0,learn,,
,html-keyboard-response,401,868698,0.0-212.0-1.0,null,,,<p></p>,null,,,,,,,,,,,,,
,do_trial,402,871624,0.0-213.0-0.0,417.09999999403954,,,,,,49,0,0,1,4,city,154,0.42799241816822176,0.07271923426179872,0.6615239624598163,0,learn,,
,html-keyboard-response,403,872634,0.0-213.0-1.0,null,,,<p></p>,null,,,,,,,,,,,,,
,do_trial,404,875558,0.0-214.0-0.0,415.20000000298023,,,,,,49,0,0,0,4,city,155,0.35509404605320255,0.06024705648637481,0.6652796144135396,0,learn,,
,html-keyboard-response,405,876567,0.0-214.0-1.0,null,,,<p></p>,null,,,,,,,,,,,,,
,do_trial,406,880109,0.0-215.0-0.0,1029.199999988079,,,,,,49,1,0,0,4,city,156,0.3553681672894014,0.14000795249611375,0.6068261778775008,1,learn,,
,html-keyboard-response,407,881117,0.0-215.0-1.0,null,,,<p></p>,null,,,,,,,,,,,,,
,do_trial,408,883892,0.0-216.0-0.0,261.5,,,,,,49,0,0,0,4,city,157,0.38621682433143256,0.08602864874312853,0.5907077349698195,0,learn,,
,html-keyboard-response,409,884900,0.0-216.0-1.0,null,,,<p></p>,null,,,,,,,,,,,,,
,do_trial,410,888041,0.0-217.0-0.0,631.1000000089407,,,,,,49,0,0,0,4,city,158,0.23763967857107382,0.1358946769250032,0.5401856701860958,0,learn,,
,html-keyboard-response,411,889043,0.0-217.0-1.0,null,,,<p></p>,null,,,,,,,,,,,,,
,do_trial,412,895061,0.0-218.0-0.0,null,,,,,,null,0,0,1,4,city,159,0.21698249473539777,0.11808329821670262,0.47970080777195956,,learn,,
,html-keyboard-response,413,896068,0.0-218.0-1.0,null,,,<p></p>,null,,,,,,,,,,,,,
,do_trial,414,899059,0.0-219.0-0.0,479,,,,,,49,0,1,1,4,city,160,0.3006260063979377,0.2698421361463714,0.4236386470635274,0,learn,,
,html-keyboard-response,415,900064,0.0-219.0-1.0,null,,,<p></p>,null,,,,,,,,,,,,,
,do_trial,416,903091,0.0-220.0-0.0,508.80000001192093,,,,,,49,1,0,0,4,city,161,0.3945529960018565,0.33672530913939225,0.3795515663418697,1,learn,,
,html-keyboard-response,417,904095,0.0-220.0-1.0,null,,,<p></p>,null,,,,,,,,,,,,,
,do_trial,418,907036,0.0-221.0-0.0,424.79999999701977,,,,,,49,1,1,0,4,city,162,0.3474010021643404,0.48781544284938605,0.1624499189389031,1,learn,,
,html-keyboard-response,419,908039,0.0-221.0-1.0,null,,,<p></p>,null,,,,,,,,,,,,,
,do_trial,420,911005,0.0-222.0-0.0,457.5,,,,,,49,0,1,0,4,city,163,0.29482798733948384,0.5380105006845171,0.053665912306625325,0,learn,,
,html-keyboard-response,421,912023,0.0-222.0-1.0,null,,,<p></p>,null,,,,,,,,,,,,,
,do_trial,422,914748,0.0-223.0-0.0,217.20000000298023,,,,,,49,1,1,0,4,city,164,0.3392333142862847,0.5113821514878426,0.19880344591580223,1,learn,,
,html-keyboard-response,423,915756,0.0-223.0-1.0,null,,,<p></p>,null,,,,,,,,,,,,,
,do_trial,424,918598,0.0-224.0-0.0,331.79999999701977,,,,,,49,1,0,0,4,city,165,0.36923493795098417,0.5964633612504319,0.2094510740929918,1,learn,,
,html-keyboard-response,425,919613,0.0-224.0-1.0,null,,,<p></p>,null,,,,,,,,,,,,,
,do_trial,426,922386,0.0-225.0-0.0,266.8999999910593,,,,,,49,1,0,0,4,city,166,0.33380407149832286,0.6005772486397158,0.2493817479763225,1,learn,,
,html-keyboard-response,427,923398,0.0-225.0-1.0,null,,,<p></p>,null,,,,,,,,,,,,,
,do_trial,428,926062,0.0-226.0-0.0,158.29999999701977,,,,,,49,0,1,0,4,city,167,0.4081972644910526,0.6363677735297933,0.21279822960260092,0,learn,,
,html-keyboard-response,429,927069,0.0-226.0-1.0,null,,,<p></p>,null,,,,,,,,,,,,,
,do_trial,430,930144,0.0-227.0-0.0,566.2999999970198,,,,,,49,0,1,1,4,city,168,0.2916885561305281,0.6145680872362529,0.09183067533538049,0,learn,,
,html-keyboard-response,431,931161,0.0-227.0-1.0,null,,,<p></p>,null,,,,,,,,,,,,,
,do_trial,432,934112,0.0-228.0-0.0,444.3999999910593,,,,,,49,0,0,0,4,city,169,0.19424359546727815,0.5779512286733686,0.08107275996463516,0,learn,,
,html-keyboard-response,433,935115,0.0-228.0-1.0,null,,,<p></p>,null,,,,,,,,,,,,,
,do_trial,434,937892,0.0-229.0-0.0,267.20000000298023,,,,,,49,0,0,0,4,city,170,0.11256388053068929,0.6294654191753328,0.1985947940059268,0,learn,,
,html-keyboard-response,435,938906,0.0-229.0-1.0,null,,,<p></p>,null,,,,,,,,,,,,,
,do_trial,436,941839,0.0-230.0-0.0,425.5,,,,,,49,0,0,0,4,city,171,0.17042683266200967,0.6910778567805104,0.16129735225113323,0,learn,,
,html-keyboard-response,437,942856,0.0-230.0-1.0,null,,,<p></p>,null,,,,,,,,,,,,,
,do_trial,438,945723,0.0-231.0-0.0,348,,,,,,49,0,1,0,4,city,172,0.21772155354034067,0.7467778365978017,0.1497857956928454,0,learn,,
,html-keyboard-response,439,946734,0.0-231.0-1.0,null,,,<p></p>,null,,,,,,,,,,,,,
,do_trial,440,949523,0.0-232.0-0.0,277.1000000089407,,,,,,49,0,1,0,4,city,173,0.20811934361251433,0.752011815389256,0.18927316110400916,0,learn,,
,html-keyboard-response,441,950530,0.0-232.0-1.0,null,,,<p></p>,null,,,,,,,,,,,,,
,do_trial,442,953285,0.0-233.0-0.0,242.90000000596046,,,,,,49,0,1,0,4,city,174,0.21926045171270606,0.7072826310152405,0.06656032367114088,0,learn,,
,html-keyboard-response,443,954297,0.0-233.0-1.0,null,,,<p></p>,null,,,,,,,,,,,,,
,do_trial,444,957062,0.0-234.0-0.0,255.1000000089407,,,,,,49,0,1,0,4,city,175,0.190699919427774,0.6192055440509735,0.09794118999792488,0,learn,,
,html-keyboard-response,445,958070,0.0-234.0-1.0,null,,,<p></p>,null,,,,,,,,,,,,,
,do_trial,446,960961,0.0-235.0-0.0,378.29999999701977,,,,,,49,0,0,0,4,city,176,0.1391858009142134,0.6028921777652871,0.07576112605159756,0,learn,,
,html-keyboard-response,447,961971,0.0-235.0-1.0,null,,,<p></p>,null,,,,,,,,,,,,,
,do_trial,448,966409,0.0-236.0-0.0,1924.4000000059605,,,,,,49,1,0,0,4,city,177,0.2406357719985922,0.5071865208790217,0.13871486404180267,1,learn,,
,html-keyboard-response,449,967419,0.0-236.0-1.0,null,,,<p></p>,null,,,,,,,,,,,,,
,do_trial,450,970297,0.0-237.0-0.0,366.8999999910593,,,,,,49,0,0,0,4,city,178,0.27385255412921794,0.5868629439624146,0.1484284323734523,0,learn,,
,html-keyboard-response,451,971309,0.0-237.0-1.0,null,,,<p></p>,null,,,,,,,,,,,,,
,do_trial,452,974166,0.0-238.0-0.0,348.6000000089407,,,,,,49,0,1,0,4,city,179,0.2130933674997008,0.6083120015006335,0.05219246725458545,0,learn,,
,html-keyboard-response,453,975176,0.0-238.0-1.0,null,,,<p></p>,null,,,,,,,,,,,,,
,do_trial,454,977970,0.0-239.0-0.0,286.5,,,,,,49,0,1,0,4,city,180,0.20965348338336603,0.6793553744745934,0.07649972565743288,0,learn,,
,html-keyboard-response,455,978987,0.0-239.0-1.0,null,,,<p></p>,null,,,,,,,,,,,,,
,do_trial,456,981778,0.0-240.0-0.0,285.79999999701977,,,,,,49,0,1,0,4,city,181,0.2566900545354208,0.7164007847366444,0.06209733377418584,0,learn,,
,html-keyboard-response,457,982789,0.0-240.0-1.0,null,,,<p></p>,null,,,,,,,,,,,,,
,do_trial,458,985361,0.0-241.0-0.0,54.70000000298023,,,,,,49,0,1,0,4,city,182,0.2738573365621236,0.6526894120314922,0.13284314996728713,0,learn,,
,html-keyboard-response,459,986370,0.0-241.0-1.0,null,,,<p></p>,null,,,,,,,,,,,,,
,do_trial,460,989192,0.0-242.0-0.0,308.40000000596046,,,,,,49,1,1,1,4,city,183,0.45029327770215516,0.5849403624477472,0.18460014725764448,1,learn,,
,html-keyboard-response,461,990203,0.0-242.0-1.0,null,,,<p></p>,null,,,,,,,,,,,,,
,do_trial,462,993027,0.0-243.0-0.0,317,,,,,,49,1,1,1,4,city,184,0.3283317183072164,0.6629992335098825,0.10202826339461311,1,learn,,
,html-keyboard-response,463,994034,0.0-243.0-1.0,null,,,<p></p>,null,,,,,,,,,,,,,
,do_trial,464,996770,0.0-244.0-0.0,231.5,,,,,,49,1,1,0,4,city,185,0.3690302078041387,0.7116410769518007,0.3208675252427159,1,learn,,
,html-keyboard-response,465,997786,0.0-244.0-1.0,null,,,<p></p>,null,,,,,,,,,,,,,
,do_trial,466,1000976,0.0-245.0-0.0,679.3999999910593,,,,,,49,1,1,0,4,city,186,0.2562566959813843,0.7146004488646966,0.17408686318505365,1,learn,,
,html-keyboard-response,467,1001987,0.0-245.0-1.0,null,,,<p></p>,null,,,,,,,,,,,,,
,do_trial,468,1004818,0.0-246.0-0.0,317.1000000089407,,,,,,49,0,1,0,4,city,187,0.19431436924321976,0.6800652480393719,0.08467752524611748,0,learn,,
,html-keyboard-response,469,1005828,0.0-246.0-1.0,null,,,<p></p>,null,,,,,,,,,,,,,
,do_trial,470,1009228,0.0-247.0-0.0,890,,,,,,49,1,1,0,4,city,188,0.1982572257780473,0.7243004210636335,0.15875630916831127,1,learn,,
,html-keyboard-response,471,1010236,0.0-247.0-1.0,null,,,<p></p>,null,,,,,,,,,,,,,
,do_trial,472,1013218,0.0-248.0-0.0,469.79999999701977,,,,,,49,0,1,0,4,city,189,0.2884407498365292,0.6444799474387531,0.2707970983472313,0,learn,,
,html-keyboard-response,473,1014235,0.0-248.0-1.0,null,,,<p></p>,null,,,,,,,,,,,,,
,do_bye,474,1015743,0.0-249.0-0.0,null,,,,,,null,,,,,,,,,,,
,do_travel,475,1024749,0.0-250.0-0.0,null,,,,,,null,,,,,,,,,,,
,do_welcome,476,1028775,0.0-250.0-1.0,null,,,,,,null,,,,,,,,,,,
,do_trial,477,1031642,0.0-251.0-0.0,353.40000000596046,,,,,,49,1,1,0,5,forest,190,0.3454023610942559,1,0.32498995560616506,1,learn,,
,html-keyboard-response,478,1032648,0.0-251.0-1.0,null,,,<p></p>,null,,,,,,,,,,,,,
,do_trial,479,1035817,0.0-252.0-0.0,657.9000000059605,,,,,,49,1,1,0,5,forest,191,0.272948239696987,1,0.14068012054940376,1,learn,,
,html-keyboard-response,480,1036834,0.0-252.0-1.0,null,,,<p></p>,null,,,,,,,,,,,,,
,do_trial,481,1039949,0.0-253.0-0.0,598.1000000089407,,,,,,49,0,1,0,5,forest,192,0.1548368361395505,0.9217146503407119,0.15722512781865447,0,learn,,
,html-keyboard-response,482,1040951,0.0-253.0-1.0,null,,,<p></p>,null,,,,,,,,,,,,,
,do_trial,483,1043945,0.0-254.0-0.0,480.3999999910593,,,,,,49,0,1,0,5,forest,193,0.31015494145296546,0.7118128834762709,0.10989886018656042,0,learn,,
,html-keyboard-response,484,1044956,0.0-254.0-1.0,null,,,<p></p>,null,,,,,,,,,,,,,
,do_trial,485,1047958,0.0-255.0-0.0,495.59999999403954,,,,,,49,0,1,1,5,forest,194,0.26586323774031667,0.5532773586227028,0.13471785174757117,0,learn,,
,html-keyboard-response,486,1048975,0.0-255.0-1.0,null,,,<p></p>,null,,,,,,,,,,,,,
,do_trial,487,1051773,0.0-256.0-0.0,286.1000000089407,,,,,,49,0,1,0,5,forest,195,0.27838036989294385,0.5952747009375728,0.15345550242045955,0,learn,,
,html-keyboard-response,488,1052783,0.0-256.0-1.0,null,,,<p></p>,null,,,,,,,,,,,,,
,do_trial,489,1055657,0.0-257.0-0.0,363.29999999701977,,,,,,49,0,0,0,5,forest,196,0.31056071827377796,0.7522434590440388,0.13154697772120114,0,learn,,
,html-keyboard-response,490,1056662,0.0-257.0-1.0,null,,,<p></p>,null,,,,,,,,,,,,,
,do_trial,491,1059516,0.0-258.0-0.0,348.29999999701977,,,,,,49,0,0,0,5,forest,197,0.30156077741687,0.7964306702937104,0.06169025653204547,0,learn,,
,html-keyboard-response,492,1060531,0.0-258.0-1.0,null,,,<p></p>,null,,,,,,,,,,,,,
,do_trial,493,1063317,0.0-259.0-0.0,270.1000000089407,,,,,,49,1,1,0,5,forest,198,0.3364829606909182,0.7615956203957529,0.137776102863989,1,learn,,
,html-keyboard-response,494,1064324,0.0-259.0-1.0,null,,,<p></p>,null,,,,,,,,,,,,,
,do_trial,495,1067201,0.0-260.0-0.0,369.6000000089407,,,,,,49,1,1,0,5,forest,199,0.4328494800674924,0.6212064154891789,0.13713538276748982,1,learn,,
,html-keyboard-response,496,1068217,0.0-260.0-1.0,null,,,<p></p>,null,,,,,,,,,,,,,
,do_trial,497,1070939,0.0-261.0-0.0,210.3999999910593,,,,,,49,1,0,0,5,forest,200,0.5156089942309646,0.5063443024228091,0.17141764332175527,1,learn,,
,html-keyboard-response,498,1071950,0.0-261.0-1.0,null,,,<p></p>,null,,,,,,,,,,,,,
,do_trial,499,1074925,0.0-262.0-0.0,463.90000000596046,,,,,,49,0,0,0,5,forest,201,0.4900731573007161,0.3224987754501447,0.11871602093261674,0,learn,,
,html-keyboard-response,500,1075930,0.0-262.0-1.0,null,,,<p></p>,null,,,,,,,,,,,,,
,do_trial,501,1079037,0.0-263.0-0.0,596.5999999940395,,,,,,49,1,0,0,5,forest,202,0.47613868816072036,0.17397096677761084,0.22507840489819525,1,learn,,
,html-keyboard-response,502,1080052,0.0-263.0-1.0,null,,,<p></p>,null,,,,,,,,,,,,,
,do_trial,503,1082865,0.0-264.0-0.0,304.29999999701977,,,,,,49,0,0,0,5,forest,203,0.37081333957481866,0.06260884557683151,0.21274241792510906,0,learn,,
,html-keyboard-response,504,1083875,0.0-264.0-1.0,null,,,<p></p>,null,,,,,,,,,,,,,
,do_trial,505,1086798,0.0-265.0-0.0,409.59999999403954,,,,,,49,1,0,1,5,forest,204,0.3349521105481638,0.13095705152822323,0.3545140375610767,1,learn,,
,html-keyboard-response,506,1087816,0.0-265.0-1.0,null,,,<p></p>,null,,,,,,,,,,,,,
,do_trial,507,1090757,0.0-266.0-0.0,428.6000000089407,,,,,,49,1,0,0,5,forest,205,0.3734693810294897,0.19655151618024674,0.2980676546506832,1,learn,,
,html-keyboard-response,508,1091768,0.0-266.0-1.0,null,,,<p></p>,null,,,,,,,,,,,,,
,do_trial,509,1094580,0.0-267.0-0.0,297.29999999701977,,,,,,49,0,0,0,5,forest,206,0.3778514534757529,0.06946622685780618,0.4190463073668842,0,learn,,
,html-keyboard-response,510,1095582,0.0-267.0-1.0,null,,,<p></p>,null,,,,,,,,,,,,,
,do_trial,511,1098096,0.0-268.0-0.0,7.299999997019768,,,,,,49,0,0,1,5,forest,207,0.3002404368767167,0.10094981447404297,0.39610501044883983,0,learn,,
,html-keyboard-response,512,1099115,0.0-268.0-1.0,null,,,<p></p>,null,,,,,,,,,,,,,
,do_trial,513,1102191,0.0-269.0-0.0,561.7999999970198,,,,,,49,1,1,0,5,forest,208,0.4413003418467531,0.14698145689988232,0.31547794271110496,1,learn,,
,html-keyboard-response,514,1103199,0.0-269.0-1.0,null,,,<p></p>,null,,,,,,,,,,,,,
,do_trial,515,1106012,0.0-270.0-0.0,304.09999999403954,,,,,,49,1,0,1,5,forest,209,0.6520477112432695,0.22453623040422557,0.5317886779590252,1,learn,,
,html-keyboard-response,516,1107027,0.0-270.0-1.0,null,,,<p></p>,null,,,,,,,,,,,,,
,do_trial,517,1109870,0.0-271.0-0.0,326.79999999701977,,,,,,49,0,0,0,5,forest,210,0.6321823767859981,0.1644745057493903,0.35660661165249913,0,learn,,
,html-keyboard-response,518,1110887,0.0-271.0-1.0,null,,,<p></p>,null,,,,,,,,,,,,,
,do_trial,519,1113604,0.0-272.0-0.0,204.09999999403954,,,,,,49,1,0,1,5,forest,211,0.6045345702798656,0.20969428125040132,0.3617760675969073,1,learn,,
,html-keyboard-response,520,1114620,0.0-272.0-1.0,null,,,<p></p>,null,,,,,,,,,,,,,
,do_trial,521,1117390,0.0-273.0-0.0,261.09999999403954,,,,,,49,1,0,0,5,forest,212,0.4737701713771831,0.22153511298919473,0.3014287329163309,1,learn,,
,html-keyboard-response,522,1118404,0.0-273.0-1.0,null,,,<p></p>,null,,,,,,,,,,,,,
,do_trial,523,1121295,0.0-274.0-0.0,381.59999999403954,,,,,,49,1,1,0,5,forest,213,0.5273586105093336,0.13687119507020606,0.19498200626458814,1,learn,,
,html-keyboard-response,524,1122303,0.0-274.0-1.0,null,,,<p></p>,null,,,,,,,,,,,,,
,do_trial,525,1125370,0.0-275.0-0.0,548.0999999940395,,,,,,49,0,0,0,5,forest,214,0.4803510985036863,0.17267314183511887,0.271471251710568,0,learn,,
,html-keyboard-response,526,1126378,0.0-275.0-1.0,null,,,<p></p>,null,,,,,,,,,,,,,
,do_trial,527,1129036,0.0-276.0-0.0,144.1000000089407,,,,,,49,1,0,1,5,forest,215,0.43761566277463154,0.17188949157944375,0.3359177600959288,1,learn,,
,html-keyboard-response,528,1130046,0.0-276.0-1.0,null,,,<p></p>,null,,,,,,,,,,,,,
,do_trial,529,1133205,0.0-277.0-0.0,648.8000000119209,,,,,,49,0,0,1,5,forest,216,0.5712588381714695,0.14325823071317326,0.3645755843429147,0,learn,,
,html-keyboard-response,530,1134208,0.0-277.0-1.0,null,,,<p></p>,null,,,,,,,,,,,,,
,do_trial,531,1137032,0.0-278.0-0.0,310.30000001192093,,,,,,49,1,0,1,5,forest,217,0.6595913542419077,0.1307500576885621,0.4466344379733079,1,learn,,
,html-keyboard-response,532,1138038,0.0-278.0-1.0,null,,,<p></p>,null,,,,,,,,,,,,,
,do_trial,533,1141195,0.0-279.0-0.0,645.6000000089407,,,,,,49,1,0,1,5,forest,218,0.5642356354345069,0.08675996161009776,0.37253399695737216,1,learn,,
,html-keyboard-response,534,1142213,0.0-279.0-1.0,null,,,<p></p>,null,,,,,,,,,,,,,
,do_trial,535,1145516,0.0-280.0-0.0,791.2999999970198,,,,,,49,0,0,1,5,forest,219,0.545668046782941,0.0838704439191841,0.29910197492387525,0,learn,,
,html-keyboard-response,536,1146520,0.0-280.0-1.0,null,,,<p></p>,null,,,,,,,,,,,,,
,do_trial,537,1149458,0.0-281.0-0.0,417.40000000596046,,,,,,49,1,0,1,5,forest,220,0.6334250214706727,0.05019964232679821,0.19730237926644137,1,learn,,
,html-keyboard-response,538,1150469,0.0-281.0-1.0,null,,,<p></p>,null,,,,,,,,,,,,,
,do_trial,539,1153728,0.0-282.0-0.0,747.6000000089407,,,,,,49,0,1,1,5,forest,221,0.5049015518752655,0.08201163481424184,0.3497045508868219,0,learn,,
,html-keyboard-response,540,1154741,0.0-282.0-1.0,null,,,<p></p>,null,,,,,,,,,,,,,
,do_trial,541,1157962,0.0-283.0-0.0,704.2999999970198,,,,,,49,0,0,0,5,forest,222,0.6487193602878993,0.07911775498068849,0.1862487340236998,0,learn,,
,html-keyboard-response,542,1158970,0.0-283.0-1.0,null,,,<p></p>,null,,,,,,,,,,,,,
,do_trial,543,1161979,0.0-284.0-0.0,496.40000000596046,,,,,,49,0,1,0,5,forest,223,0.6002896473667888,0.21969535820697947,0.3394873741679972,0,learn,,
,html-keyboard-response,544,1162985,0.0-284.0-1.0,null,,,<p></p>,null,,,,,,,,,,,,,
,do_trial,545,1165742,0.0-285.0-0.0,244.5,,,,,,49,1,0,0,5,forest,224,0.5245998748394433,0.12009249873890525,0.4254451376814769,1,learn,,
,html-keyboard-response,546,1166753,0.0-285.0-1.0,null,,,<p></p>,null,,,,,,,,,,,,,
,do_trial,547,1169279,0.0-286.0-0.0,7.800000011920929,,,,,,49,0,0,0,5,forest,225,0.5245801129429817,0.2453246664873276,0.32813398871227134,0,learn,,
,html-keyboard-response,548,1170285,0.0-286.0-1.0,null,,,<p></p>,null,,,,,,,,,,,,,
,do_trial,549,1173674,0.0-287.0-0.0,880.3999999910593,,,,,,49,1,0,1,5,forest,226,0.5821655233469532,0.13927380681104454,0.3577663537661406,1,learn,,
,html-keyboard-response,550,1174677,0.0-287.0-1.0,null,,,<p></p>,null,,,,,,,,,,,,,
,do_trial,551,1177684,0.0-288.0-0.0,483.29999999701977,,,,,,49,1,0,0,5,forest,227,0.5524701854855327,0.07101906836052894,0.4133570522081307,1,learn,,
,html-keyboard-response,552,1178701,0.0-288.0-1.0,null,,,<p></p>,null,,,,,,,,,,,,,
,do_trial,553,1181786,0.0-289.0-0.0,574.0999999940395,,,,,,49,0,0,0,5,forest,228,0.6905926037112028,0.1270892021038978,0.18795305815036475,0,learn,,
,html-keyboard-response,554,1182792,0.0-289.0-1.0,null,,,<p></p>,null,,,,,,,,,,,,,
,do_trial,555,1186063,0.0-290.0-0.0,758.3999999910593,,,,,,49,1,0,1,5,forest,229,0.7411164741042392,0.05510777959354619,0.20688829228448882,1,learn,,
,html-keyboard-response,556,1187082,0.0-290.0-1.0,null,,,<p></p>,null,,,,,,,,,,,,,
,do_bye,557,1188593,0.0-291.0-0.0,null,,,,,,null,,,,,,,,,,,
,html-keyboard-response,558,1191173,0.0-291.0-1.0,2577.2000000029802,,,<div class=center><p>Nice job plundering!</p><p>Press <b>space</b> to head back to pirate HQ.</p></div>,32,,,,,,,,,,,,,
,html-keyboard-response,559,1199518,0.0-292.0-0.0,8331.40000000596,,,<div class=center><p>We have to sail past the islands again to get back to pirate HQ. We've just got wind that there is a huge storm approaching, so while we are going to stop at each island, we won't have time to see if our plunders are successful or not.</p><p>Press <b>space</b> to continue.</p></div>,32,,,,,,,,,,,,,
,judgement_attention_check,560,1200778,0.0-293.0-0.0,1258.7000000029802,,,<div class='center'><p>Press <b>Z</b> to use the telescope to see what island is coming next!</p></div>,90,,,,,,,,,,,,0,true
,do_welcome,561,1205791,0.0-293.0-1.0,null,,,,,,null,,,,,,,,,,,
,do_trial,562,1211047,0.0-294.0-0.0,741.6000000089407,,,,,,49,0,0,0,0,coast,230,,,,0,judgement,,
,html-keyboard-response,563,1212050,0.0-294.0-1.0,null,,,<p></p>,null,,,,,,,,,,,,,
,do_trial,564,1217126,0.0-295.0-0.0,566.4000000059605,,,,,,49,1,1,0,0,coast,231,,,,1,judgement,,
,html-keyboard-response,565,1218132,0.0-295.0-1.0,null,,,<p></p>,null,,,,,,,,,,,,,
,do_trial,566,1222781,0.0-296.0-0.0,136.69999998807907,,,,,,50,0,0,0,0,coast,232,,,,0,judgement,,
,html-keyboard-response,567,1223793,0.0-296.0-1.0,null,,,<p></p>,null,,,,,,,,,,,,,
,do_trial,568,1228541,0.0-297.0-0.0,237.40000000596046,,,,,,50,1,1,0,0,coast,233,,,,1,judgement,,
,html-keyboard-response,569,1229550,0.0-297.0-1.0,null,,,<p></p>,null,,,,,,,,,,,,,
,do_trial,570,1234381,0.0-298.0-0.0,320.40000000596046,,,,,,50,1,1,0,0,coast,234,,,,1,judgement,,
,html-keyboard-response,571,1235385,0.0-298.0-1.0,null,,,<p></p>,null,,,,,,,,,,,,,
,html-keyboard-response,572,1235391,0.0-299.0-0.0,null,,,,null,,,,,,,,,,,,,
,judgement_attention_check,573,1235879,0.0-300.0-0.0,483.1000000089407,,,<div class='center'><p>Press <b>Z</b> to use the telescope to see what island is coming next!</p></div>,90,,,,,,,,,,,,1,true
,do_welcome,574,1240894,0.0-300.0-1.0,null,,,,,,null,,,,,,,,,,,
,do_trial,575,1246017,0.0-301.0-0.0,611.9000000059605,,,,,,51,0,0,0,1,highway,235,,,,0,judgement,,
,html-keyboard-response,576,1247031,0.0-301.0-1.0,null,,,<p></p>,null,,,,,,,,,,,,,
,do_trial,577,1251845,0.0-302.0-0.0,309.79999999701977,,,,,,51,1,1,1,1,highway,236,,,,1,judgement,,
,html-keyboard-response,578,1252848,0.0-302.0-1.0,null,,,<p></p>,null,,,,,,,,,,,,,
,do_trial,579,1257738,0.0-303.0-0.0,377.20000000298023,,,,,,51,1,1,1,1,highway,237,,,,1,judgement,,
,html-keyboard-response,580,1258748,0.0-303.0-1.0,null,,,<p></p>,null,,,,,,,,,,,,,
,do_trial,581,1263505,0.0-304.0-0.0,243.3999999910593,,,,,,51,1,0,1,1,highway,238,,,,1,judgement,,
,html-keyboard-response,582,1264522,0.0-304.0-1.0,null,,,<p></p>,null,,,,,,,,,,,,,
,do_trial,583,1269240,0.0-305.0-0.0,204.79999999701977,,,,,,51,1,0,0,1,highway,239,,,,0,judgement,,
,html-keyboard-response,584,1270253,0.0-305.0-1.0,null,,,<p></p>,null,,,,,,,,,,,,,
,html-keyboard-response,585,1270254,0.0-306.0-0.0,null,,,,null,,,,,,,,,,,,,
,judgement_attention_check,586,1270639,0.0-307.0-0.0,384.19999998807907,,,<div class='center'><p>Press <b>Z</b> to use the telescope to see what island is coming next!</p></div>,90,,,,,,,,,,,,2,true
,do_welcome,587,1275647,0.0-307.0-1.0,null,,,,,,null,,,,,,,,,,,
,do_trial,588,1280652,0.0-308.0-0.0,487.90000000596046,,,,,,50,0,0,0,2,countryside,240,,,,0,judgement,,
,html-keyboard-response,589,1281657,0.0-308.0-1.0,null,,,<p></p>,null,,,,,,,,,,,,,
,do_trial,590,1286398,0.0-309.0-0.0,219.79999999701977,,,,,,50,0,0,0,2,countryside,241,,,,0,judgement,,
,html-keyboard-response,591,1287404,0.0-309.0-1.0,null,,,<p></p>,null,,,,,,,,,,,,,
,do_trial,592,1292173,0.0-310.0-0.0,261.5,,,,,,50,0,0,0,2,countryside,242,,,,0,judgement,,
,html-keyboard-response,593,1293180,0.0-310.0-1.0,null,,,<p></p>,null,,,,,,,,,,,,,
,do_trial,594,1297948,0.0-311.0-0.0,262,,,,,,50,0,0,0,2,countryside,243,,,,0,judgement,,
,html-keyboard-response,595,1298957,0.0-311.0-1.0,null,,,<p></p>,null,,,,,,,,,,,,,
,do_trial,596,1303772,0.0-312.0-0.0,293.40000000596046,,,,,,50,0,0,0,2,countryside,244,,,,0,judgement,,
,html-keyboard-response,597,1304781,0.0-312.0-1.0,null,,,<p></p>,null,,,,,,,,,,,,,
,html-keyboard-response,598,1304782,0.0-313.0-0.0,null,,,,null,,,,,,,,,,,,,
,judgement_attention_check,599,1305666,0.0-314.0-0.0,882.3999999910593,,,<div class='center'><p>Press <b>Z</b> to use the telescope to see what island is coming next!</p></div>,90,,,,,,,,,,,,3,true
,do_welcome,600,1310679,0.0-314.0-1.0,null,,,,,,null,,,,,,,,,,,
,do_trial,601,1315902,0.0-315.0-0.0,714.0999999940395,,,,,,50,0,0,0,3,mountain,245,,,,0,judgement,,
,html-keyboard-response,602,1316906,0.0-315.0-1.0,null,,,<p></p>,null,,,,,,,,,,,,,
,do_trial,603,1321979,0.0-316.0-0.0,568.2000000029802,,,,,,50,1,0,0,3,mountain,246,,,,0,judgement,,
,html-keyboard-response,604,1322989,0.0-316.0-1.0,null,,,<p></p>,null,,,,,,,,,,,,,
,do_trial,605,1327978,0.0-317.0-0.0,462.70000000298023,,,,,,49,0,0,0,3,mountain,247,,,,0,judgement,,
,html-keyboard-response,606,1328979,0.0-317.0-1.0,null,,,<p></p>,null,,,,,,,,,,,,,
,do_trial,607,1333769,0.0-318.0-0.0,279.29999999701977,,,,,,49,0,0,0,3,mountain,248,,,,0,judgement,,
,html-keyboard-response,608,1334777,0.0-318.0-1.0,null,,,<p></p>,null,,,,,,,,,,,,,
,do_trial,609,1339677,0.0-319.0-0.0,394.09999999403954,,,,,,49,1,0,1,3,mountain,249,,,,1,judgement,,
,html-keyboard-response,610,1340681,0.0-319.0-1.0,null,,,<p></p>,null,,,,,,,,,,,,,
,html-keyboard-response,611,1340683,0.0-320.0-0.0,null,,,,null,,,,,,,,,,,,,
,judgement_attention_check,612,1341902,0.0-321.0-0.0,1218.2999999970198,,,<div class='center'><p>Press <b>Z</b> to use the telescope to see what island is coming next!</p></div>,90,,,,,,,,,,,,4,true
,do_welcome,613,1346912,0.0-321.0-1.0,null,,,,,,null,,,,,,,,,,,
,do_trial,614,1351905,0.0-322.0-0.0,484.79999999701977,,,,,,49,1,1,1,4,city,250,,,,1,judgement,,
,html-keyboard-response,615,1352912,0.0-322.0-1.0,null,,,<p></p>,null,,,,,,,,,,,,,
,do_trial,616,1357686,0.0-323.0-0.0,265.79999999701977,,,,,,49,0,0,0,4,city,251,,,,0,judgement,,
,html-keyboard-response,617,1358703,0.0-323.0-1.0,null,,,<p></p>,null,,,,,,,,,,,,,
,do_trial,618,1363344,0.0-324.0-0.0,135.09999999403954,,,,,,49,0,0,1,4,city,252,,,,0,judgement,,
,html-keyboard-response,619,1364353,0.0-324.0-1.0,null,,,<p></p>,null,,,,,,,,,,,,,
,do_trial,620,1369342,0.0-325.0-0.0,469.09999999403954,,,,,,49,0,0,0,4,city,253,,,,0,judgement,,
,html-keyboard-response,621,1370353,0.0-325.0-1.0,null,,,<p></p>,null,,,,,,,,,,,,,
,do_trial,622,1375234,0.0-326.0-0.0,367.90000000596046,,,,,,49,0,1,0,4,city,254,,,,0,judgement,,
,html-keyboard-response,623,1376245,0.0-326.0-1.0,null,,,<p></p>,null,,,,,,,,,,,,,
,html-keyboard-response,624,1376246,0.0-327.0-0.0,null,,,,null,,,,,,,,,,,,,
,judgement_attention_check,625,1377209,0.0-328.0-0.0,962.8999999910593,,,<div class='center'><p>Press <b>Z</b> to use the telescope to see what island is coming next!</p></div>,90,,,,,,,,,,,,5,true
,do_welcome,626,1382215,0.0-328.0-1.0,null,,,,,,null,,,,,,,,,,,
,do_trial,627,1387467,0.0-329.0-0.0,734.1000000089407,,,,,,49,1,0,0,5,forest,255,,,,1,judgement,,
,html-keyboard-response,628,1388476,0.0-329.0-1.0,null,,,<p></p>,null,,,,,,,,,,,,,
,do_trial,629,1393325,0.0-330.0-0.0,330.90000000596046,,,,,,49,0,1,0,5,forest,256,,,,0,judgement,,
,html-keyboard-response,630,1394336,0.0-330.0-1.0,null,,,<p></p>,null,,,,,,,,,,,,,
,do_trial,631,1399117,0.0-331.0-0.0,272.1000000089407,,,,,,49,0,0,0,5,forest,257,,,,0,judgement,,
,html-keyboard-response,632,1400122,0.0-331.0-1.0,null,,,<p></p>,null,,,,,,,,,,,,,
,do_trial,633,1404812,0.0-332.0-0.0,182.20000000298023,,,,,,49,0,1,0,5,forest,258,,,,0,judgement,,
,html-keyboard-response,634,1405816,0.0-332.0-1.0,null,,,<p></p>,null,,,,,,,,,,,,,
,do_trial,635,1410764,0.0-333.0-0.0,435,,,,,,49,1,1,0,5,forest,259,,,,1,judgement,,
,html-keyboard-response,636,1411767,0.0-333.0-1.0,null,,,<p></p>,null,,,,,,,,,,,,,
,html-keyboard-response,637,1413675,0.0-334.0-0.0,1906.4000000059605,,,<div style='position: fixed; top: 0; left: 0; width: 100%; height: 100%; background-color: white; display: flex; align-items: center; justify-content: center;'><div><h2>We've made it to Pirate HQ!</h2><p>Press <b>space</b> to proceed.</p></div></div>,32,,,,,,,,,,,,,
