"success","trial_type","trial_index","time_elapsed","internal_node_id","interactions","blur_events","focus_events","fullscreenenter_events","fullscreenexit_events","rt","stimulus","key_press","subject_id","participant_id","age","gender","prompt","response","choice_outcomes","context_n","context_img_id","trial_n","probe_img_id","pR_red","pR_white","pR_black","outcome","contextArray_ind","validImageProbes","invalidImageProbes","pRew_Red","pRew_White","pRew_Black","availableForMemProbe","choice_blocks"
"true","fullscreen","0","1847","0.0-0.0","""event"",""trial"",""time""
""blur"",""0"",""0""
""focus"",""0"",""0""
""blur"",""0"",""0""
""focus"",""0"",""0""
""fullscreenenter"",""0"",""888""
","""event"",""trial"",""time""
""blur"",""0"",""0""
""blur"",""0"",""0""
","""event"",""trial"",""time""
""focus"",""0"",""0""
""focus"",""0"",""0""
","""event"",""trial"",""time""
""fullscreenenter"",""0"",""888""
","
","","","","","","","","","","","","","","","","","","","","","","","","","",""
"","pavlovia","1","1850","0.0-1.0","""event"",""trial"",""time""
""blur"",""0"",""0""
""focus"",""0"",""0""
""blur"",""0"",""0""
""focus"",""0"",""0""
""fullscreenenter"",""0"",""888""
""fullscreenexit"",""2"",""3933""
""blur"",""2"",""12206""
","""event"",""trial"",""time""
""blur"",""0"",""0""
""blur"",""0"",""0""
""blur"",""2"",""12206""
","""event"",""trial"",""time""
""focus"",""0"",""0""
""focus"",""0"",""0""
","""event"",""trial"",""time""
""fullscreenenter"",""0"",""888""
","""event"",""trial"",""time""
""fullscreenexit"",""2"",""3933""
","","","","","","","","","","","","","","","","","","","","","","","","","",""
"","instruc1","2","46985","0.0-2.0","""event"",""trial"",""time""
""blur"",""0"",""0""
""focus"",""0"",""0""
""blur"",""0"",""0""
""focus"",""0"",""0""
""fullscreenenter"",""0"",""888""
""fullscreenexit"",""2"",""3933""
""blur"",""2"",""12206""
""focus"",""3"",""107991""
","""event"",""trial"",""time""
""blur"",""0"",""0""
""blur"",""0"",""0""
""blur"",""2"",""12206""
","""event"",""trial"",""time""
""focus"",""0"",""0""
""focus"",""0"",""0""
""focus"",""3"",""107991""
","""event"",""trial"",""time""
""fullscreenenter"",""0"",""888""
","""event"",""trial"",""time""
""fullscreenexit"",""2"",""3933""
","null","run_exp/static/audio/clip_1_welcome.m4a","null","","","","","<div class='center'><p>Welcome! This is the first part of the study. It will last ~30 minutes. In part 1 and part 2 of the study, you are the head captain of a pirate ship traveling around the world to different islands. You will play a few different games throughout these two parts. Here is an overview of them:</p><br><p>Part 1 (today)</p><p>1. Instructions, practice game, and quiz</p><p>2. Pick a pirate game on 6 different islands</p><br><p>Part 2 (tomorrow)</p><p>3. Pick a pirate game and memory game</p><p>4. Where did you see this ship? </p></div>","","","","","","","","","","","","","","","","","",""
"","html-keyboard-response","3","108477","0.0-3.0","""event"",""trial"",""time""
""blur"",""0"",""0""
""focus"",""0"",""0""
""blur"",""0"",""0""
""focus"",""0"",""0""
""fullscreenenter"",""0"",""888""
""fullscreenexit"",""2"",""3933""
""blur"",""2"",""12206""
""focus"",""3"",""107991""
""blur"",""4"",""110073""
","""event"",""trial"",""time""
""blur"",""0"",""0""
""blur"",""0"",""0""
""blur"",""2"",""12206""
""blur"",""4"",""110073""
","""event"",""trial"",""time""
""focus"",""0"",""0""
""focus"",""0"",""0""
""focus"",""3"",""107991""
","""event"",""trial"",""time""
""fullscreenenter"",""0"",""888""
","""event"",""trial"",""time""
""fullscreenexit"",""2"",""3933""
","61490.575000003446","<div class='center'><p>Welcome! This is the first part of the study. It will last ~30 minutes. In part 1 and part 2 of the study, you are the head captain of a pirate ship traveling around the world to different islands. You will play a few different games throughout these two parts. Here is an overview of them:</p><br><p>Part 1 (today)</p><p>1. Instructions, practice game, and quiz</p><p>2. Pick a pirate game on 6 different islands</p><br><p>Part 2 (tomorrow)</p><p>3. Pick a pirate game and memory game</p><p>4. Where did you see this ship? </p><p><b>[Press the space bar to continue]</b></p></div>","32","","","","","","","","","","","","","","","","","","","","","","",""
"","instruc2","4","113799","0.0-4.0","""event"",""trial"",""time""
""blur"",""0"",""0""
""focus"",""0"",""0""
""blur"",""0"",""0""
""focus"",""0"",""0""
""fullscreenenter"",""0"",""888""
""fullscreenexit"",""2"",""3933""
""blur"",""2"",""12206""
""focus"",""3"",""107991""
""blur"",""4"",""110073""
""focus"",""5"",""345670""
","""event"",""trial"",""time""
""blur"",""0"",""0""
""blur"",""0"",""0""
""blur"",""2"",""12206""
""blur"",""4"",""110073""
","""event"",""trial"",""time""
""focus"",""0"",""0""
""focus"",""0"",""0""
""focus"",""3"",""107991""
""focus"",""5"",""345670""
","""event"",""trial"",""time""
""fullscreenenter"",""0"",""888""
","""event"",""trial"",""time""
""fullscreenexit"",""2"",""3933""
","null","run_exp/static/audio/clip_2_different_places.m4a","null","","","","","<div class='center'><p>Today, you’ll visit these 6 islands on your journey. You'll be able to see these islands from your ship.</p><p><img src='run_exp/static/images/contexts/all_contexts.png' height='500'></p></div>","","","","","","","","","","","","","","","","","",""
"","html-keyboard-response","5","346099","0.0-5.0","""event"",""trial"",""time""
""blur"",""0"",""0""
""focus"",""0"",""0""
""blur"",""0"",""0""
""focus"",""0"",""0""
""fullscreenenter"",""0"",""888""
""fullscreenexit"",""2"",""3933""
""blur"",""2"",""12206""
""focus"",""3"",""107991""
""blur"",""4"",""110073""
""focus"",""5"",""345670""
""blur"",""6"",""352156""
","""event"",""trial"",""time""
""blur"",""0"",""0""
""blur"",""0"",""0""
""blur"",""2"",""12206""
""blur"",""4"",""110073""
""blur"",""6"",""352156""
","""event"",""trial"",""time""
""focus"",""0"",""0""
""focus"",""0"",""0""
""focus"",""3"",""107991""
""focus"",""5"",""345670""
","""event"",""trial"",""time""
""fullscreenenter"",""0"",""888""
","""event"",""trial"",""time""
""fullscreenexit"",""2"",""3933""
","232298.80999999295","<div class='center'><p>Today, you’ll visit these 6 islands on your journey. You'll be able to see these islands from your ship.</p><p><img src='run_exp/static/images/contexts/all_contexts.png' height='500'></p><p><b>[Press the space bar to continue]</b></p></div>","32","","","","","","","","","","","","","","","","","","","","","","",""
"","instruc3","6","355816","0.0-6.0","""event"",""trial"",""time""
""blur"",""0"",""0""
""focus"",""0"",""0""
""blur"",""0"",""0""
""focus"",""0"",""0""
""fullscreenenter"",""0"",""888""
""fullscreenexit"",""2"",""3933""
""blur"",""2"",""12206""
""focus"",""3"",""107991""
""blur"",""4"",""110073""
""focus"",""5"",""345670""
""blur"",""6"",""352156""
""focus"",""7"",""359503""
","""event"",""trial"",""time""
""blur"",""0"",""0""
""blur"",""0"",""0""
""blur"",""2"",""12206""
""blur"",""4"",""110073""
""blur"",""6"",""352156""
","""event"",""trial"",""time""
""focus"",""0"",""0""
""focus"",""0"",""0""
""focus"",""3"",""107991""
""focus"",""5"",""345670""
""focus"",""7"",""359503""
","""event"",""trial"",""time""
""fullscreenenter"",""0"",""888""
","""event"",""trial"",""time""
""fullscreenexit"",""2"",""3933""
","null","run_exp/static/audio/clip_3_goal_of_game_1.m4a","null","","","","","<div class='center'><p> The pirates on your ship will rob other ships as they leave the island.</p> These ships have just sold their goods to the islanders, so they will be filled with lots and lots of gold.</p><p><img src='run_exp/static/images/tutorial/ship_center.png' height='400'></p></div>","","","","","","","","","","","","","","","","","",""
"","html-keyboard-response","7","359933","0.0-7.0","""event"",""trial"",""time""
""blur"",""0"",""0""
""focus"",""0"",""0""
""blur"",""0"",""0""
""focus"",""0"",""0""
""fullscreenenter"",""0"",""888""
""fullscreenexit"",""2"",""3933""
""blur"",""2"",""12206""
""focus"",""3"",""107991""
""blur"",""4"",""110073""
""focus"",""5"",""345670""
""blur"",""6"",""352156""
""focus"",""7"",""359503""
""blur"",""8"",""363335""
","""event"",""trial"",""time""
""blur"",""0"",""0""
""blur"",""0"",""0""
""blur"",""2"",""12206""
""blur"",""4"",""110073""
""blur"",""6"",""352156""
""blur"",""8"",""363335""
","""event"",""trial"",""time""
""focus"",""0"",""0""
""focus"",""0"",""0""
""focus"",""3"",""107991""
""focus"",""5"",""345670""
""focus"",""7"",""359503""
","""event"",""trial"",""time""
""fullscreenenter"",""0"",""888""
","""event"",""trial"",""time""
""fullscreenexit"",""2"",""3933""
","4115.1649999956135","<div class='center'><p> The pirates on your ship will rob other ships as they leave the island.</p> These ships have just sold their goods to the islanders, so they will be filled with lots and lots of gold.</p><p><img src='run_exp/static/images/tutorial/ship_center.png' height='400'></p><p><b>[Press the space bar to continue]</b></p></div>","32","","","","","","","","","","","","","","","","","","","","","","",""
"","instruc4","8","387929","0.0-8.0","""event"",""trial"",""time""
""blur"",""0"",""0""
""focus"",""0"",""0""
""blur"",""0"",""0""
""focus"",""0"",""0""
""fullscreenenter"",""0"",""888""
""fullscreenexit"",""2"",""3933""
""blur"",""2"",""12206""
""focus"",""3"",""107991""
""blur"",""4"",""110073""
""focus"",""5"",""345670""
""blur"",""6"",""352156""
""focus"",""7"",""359503""
""blur"",""8"",""363335""
""focus"",""9"",""603470""
","""event"",""trial"",""time""
""blur"",""0"",""0""
""blur"",""0"",""0""
""blur"",""2"",""12206""
""blur"",""4"",""110073""
""blur"",""6"",""352156""
""blur"",""8"",""363335""
","""event"",""trial"",""time""
""focus"",""0"",""0""
""focus"",""0"",""0""
""focus"",""3"",""107991""
""focus"",""5"",""345670""
""focus"",""7"",""359503""
""focus"",""9"",""603470""
","""event"",""trial"",""time""
""fullscreenenter"",""0"",""888""
","""event"",""trial"",""time""
""fullscreenexit"",""2"",""3933""
","null","run_exp/static/audio/clip_4_goal_of_game_2.m4a","null","","","","","<div class='center'><p>As the head captain, you do not have to rob any ships yourself. Another pirate will be doing the robbing for you. First, you will choose a pirate to rob the next ship.</p><p><img src='run_exp/static/images/tutorial/pirates_all_crop.png' height='200'></p><p>Then, you'll see if the pirate successfully robbed the ship of their gold. If they were successful, then you'll get a stack of gold coins like this:</p><p><img src='run_exp/static/images/tutorial/reward.png' height='150'></p><p> If they were <b>not</b> successful, then you'll get no gold coins, and you'll see a big red x like this: </p><p><img src='run_exp/static/images/tutorial/reward_no.png' height='150'></p><p> How much bonus money you make is based on how many gold coins you collect.</p><div>","","","","","","","","","","","","","","","","","",""
"","html-keyboard-response","9","603757","0.0-9.0","""event"",""trial"",""time""
""blur"",""0"",""0""
""focus"",""0"",""0""
""blur"",""0"",""0""
""focus"",""0"",""0""
""fullscreenenter"",""0"",""888""
""fullscreenexit"",""2"",""3933""
""blur"",""2"",""12206""
""focus"",""3"",""107991""
""blur"",""4"",""110073""
""focus"",""5"",""345670""
""blur"",""6"",""352156""
""focus"",""7"",""359503""
""blur"",""8"",""363335""
""focus"",""9"",""603470""
","""event"",""trial"",""time""
""blur"",""0"",""0""
""blur"",""0"",""0""
""blur"",""2"",""12206""
""blur"",""4"",""110073""
""blur"",""6"",""352156""
""blur"",""8"",""363335""
","""event"",""trial"",""time""
""focus"",""0"",""0""
""focus"",""0"",""0""
""focus"",""3"",""107991""
""focus"",""5"",""345670""
""focus"",""7"",""359503""
""focus"",""9"",""603470""
","""event"",""trial"",""time""
""fullscreenenter"",""0"",""888""
","""event"",""trial"",""time""
""fullscreenexit"",""2"",""3933""
","215826.20500000485","<div class='center'><p>As the head captain, you do not have to rob any ships yourself. Another pirate will be doing the robbing for you. First, you will choose a pirate to rob the next ship.</p><p><img src='run_exp/static/images/tutorial/pirates_all_crop.png' height='200'></p><p>Then, you'll see if the pirate successfully robbed the ship of their gold. If they were successful, then you'll get a stack of gold coins like this:</p><p><img src='run_exp/static/images/tutorial/reward.png' height='150'></p><p> If they were <b>not</b> successful, then you'll get no gold coins, and you'll see a big red x like this: </p><p><img src='run_exp/static/images/tutorial/reward_no.png' height='150'></p><p> How much bonus money you make is based on how many gold coins you collect.</p<p><b>[Press the space bar to continue]</b></p></div>","32","","","","","","","","","","","","","","","","","","","","","","",""
"","instruc5","10","604966","0.0-10.0","""event"",""trial"",""time""
""blur"",""0"",""0""
""focus"",""0"",""0""
""blur"",""0"",""0""
""focus"",""0"",""0""
""fullscreenenter"",""0"",""888""
""fullscreenexit"",""2"",""3933""
""blur"",""2"",""12206""
""focus"",""3"",""107991""
""blur"",""4"",""110073""
""focus"",""5"",""345670""
""blur"",""6"",""352156""
""focus"",""7"",""359503""
""blur"",""8"",""363335""
""focus"",""9"",""603470""
","""event"",""trial"",""time""
""blur"",""0"",""0""
""blur"",""0"",""0""
""blur"",""2"",""12206""
""blur"",""4"",""110073""
""blur"",""6"",""352156""
""blur"",""8"",""363335""
","""event"",""trial"",""time""
""focus"",""0"",""0""
""focus"",""0"",""0""
""focus"",""3"",""107991""
""focus"",""5"",""345670""
""focus"",""7"",""359503""
""focus"",""9"",""603470""
","""event"",""trial"",""time""
""fullscreenenter"",""0"",""888""
","""event"",""trial"",""time""
""fullscreenexit"",""2"",""3933""
","1207.8000000037719","run_exp/static/audio/clip_5_probabilistic.m4a","49","","","","","<div class='center'><p>Even the most skilled pirate can not rob EVERY ship.</p><p> Some ships will have very strong protections against pirate attacks.</p><p> Blue beard, here, is very, very good at robbing ships, but he won't be successful every time he tries to rob one.</p><p> You can press the <b>‘1’</b> key on the keyboard to choose him.</p><p> Try choosing him 10 times to see how often he succeeds at robbing a ship. </p><p><img src='run_exp/static/images/tutorial/blue.png' height='500'></p></div>","","","","","","","","","","","","","","","","","",""
"","html-keyboard-response","11","606471","0.0-11.0","""event"",""trial"",""time""
""blur"",""0"",""0""
""focus"",""0"",""0""
""blur"",""0"",""0""
""focus"",""0"",""0""
""fullscreenenter"",""0"",""888""
""fullscreenexit"",""2"",""3933""
""blur"",""2"",""12206""
""focus"",""3"",""107991""
""blur"",""4"",""110073""
""focus"",""5"",""345670""
""blur"",""6"",""352156""
""focus"",""7"",""359503""
""blur"",""8"",""363335""
""focus"",""9"",""603470""
","""event"",""trial"",""time""
""blur"",""0"",""0""
""blur"",""0"",""0""
""blur"",""2"",""12206""
""blur"",""4"",""110073""
""blur"",""6"",""352156""
""blur"",""8"",""363335""
","""event"",""trial"",""time""
""focus"",""0"",""0""
""focus"",""0"",""0""
""focus"",""3"",""107991""
""focus"",""5"",""345670""
""focus"",""7"",""359503""
""focus"",""9"",""603470""
","""event"",""trial"",""time""
""fullscreenenter"",""0"",""888""
","""event"",""trial"",""time""
""fullscreenexit"",""2"",""3933""
","null","<div class='center'><p><img src='run_exp/static/images/tutorial/blue_win.png' height='500'></p></div>","null","","","","","","","","","","","","","","","","","","","","","","",""
"","html-keyboard-response","12","606703","0.0-12.0","""event"",""trial"",""time""
""blur"",""0"",""0""
""focus"",""0"",""0""
""blur"",""0"",""0""
""focus"",""0"",""0""
""fullscreenenter"",""0"",""888""
""fullscreenexit"",""2"",""3933""
""blur"",""2"",""12206""
""focus"",""3"",""107991""
""blur"",""4"",""110073""
""focus"",""5"",""345670""
""blur"",""6"",""352156""
""focus"",""7"",""359503""
""blur"",""8"",""363335""
""focus"",""9"",""603470""
","""event"",""trial"",""time""
""blur"",""0"",""0""
""blur"",""0"",""0""
""blur"",""2"",""12206""
""blur"",""4"",""110073""
""blur"",""6"",""352156""
""blur"",""8"",""363335""
","""event"",""trial"",""time""
""focus"",""0"",""0""
""focus"",""0"",""0""
""focus"",""3"",""107991""
""focus"",""5"",""345670""
""focus"",""7"",""359503""
""focus"",""9"",""603470""
","""event"",""trial"",""time""
""fullscreenenter"",""0"",""888""
","""event"",""trial"",""time""
""fullscreenexit"",""2"",""3933""
","230.82499999145512","<div class='center'><img src='run_exp/static/images/tutorial/blue.png' height='500'></p></div>","49","","","","","","","","","","","","","","","","","","","","","","",""
"","html-keyboard-response","13","608205","0.0-13.0","""event"",""trial"",""time""
""blur"",""0"",""0""
""focus"",""0"",""0""
""blur"",""0"",""0""
""focus"",""0"",""0""
""fullscreenenter"",""0"",""888""
""fullscreenexit"",""2"",""3933""
""blur"",""2"",""12206""
""focus"",""3"",""107991""
""blur"",""4"",""110073""
""focus"",""5"",""345670""
""blur"",""6"",""352156""
""focus"",""7"",""359503""
""blur"",""8"",""363335""
""focus"",""9"",""603470""
","""event"",""trial"",""time""
""blur"",""0"",""0""
""blur"",""0"",""0""
""blur"",""2"",""12206""
""blur"",""4"",""110073""
""blur"",""6"",""352156""
""blur"",""8"",""363335""
","""event"",""trial"",""time""
""focus"",""0"",""0""
""focus"",""0"",""0""
""focus"",""3"",""107991""
""focus"",""5"",""345670""
""focus"",""7"",""359503""
""focus"",""9"",""603470""
","""event"",""trial"",""time""
""fullscreenenter"",""0"",""888""
","""event"",""trial"",""time""
""fullscreenexit"",""2"",""3933""
","null","<div class='center'><p><img src='run_exp/static/images/tutorial/blue_win.png' height='500'></p></div>","null","","","","","","","","","","","","","","","","","","","","","","",""
"","html-keyboard-response","14","608460","0.0-14.0","""event"",""trial"",""time""
""blur"",""0"",""0""
""focus"",""0"",""0""
""blur"",""0"",""0""
""focus"",""0"",""0""
""fullscreenenter"",""0"",""888""
""fullscreenexit"",""2"",""3933""
""blur"",""2"",""12206""
""focus"",""3"",""107991""
""blur"",""4"",""110073""
""focus"",""5"",""345670""
""blur"",""6"",""352156""
""focus"",""7"",""359503""
""blur"",""8"",""363335""
""focus"",""9"",""603470""
","""event"",""trial"",""time""
""blur"",""0"",""0""
""blur"",""0"",""0""
""blur"",""2"",""12206""
""blur"",""4"",""110073""
""blur"",""6"",""352156""
""blur"",""8"",""363335""
","""event"",""trial"",""time""
""focus"",""0"",""0""
""focus"",""0"",""0""
""focus"",""3"",""107991""
""focus"",""5"",""345670""
""focus"",""7"",""359503""
""focus"",""9"",""603470""
","""event"",""trial"",""time""
""fullscreenenter"",""0"",""888""
","""event"",""trial"",""time""
""fullscreenexit"",""2"",""3933""
","253.93999999505468","<div class='center'><img src='run_exp/static/images/tutorial/blue.png' height='500'></p></div>","49","","","","","","","","","","","","","","","","","","","","","","",""
"","html-keyboard-response","15","609964","0.0-15.0","""event"",""trial"",""time""
""blur"",""0"",""0""
""focus"",""0"",""0""
""blur"",""0"",""0""
""focus"",""0"",""0""
""fullscreenenter"",""0"",""888""
""fullscreenexit"",""2"",""3933""
""blur"",""2"",""12206""
""focus"",""3"",""107991""
""blur"",""4"",""110073""
""focus"",""5"",""345670""
""blur"",""6"",""352156""
""focus"",""7"",""359503""
""blur"",""8"",""363335""
""focus"",""9"",""603470""
","""event"",""trial"",""time""
""blur"",""0"",""0""
""blur"",""0"",""0""
""blur"",""2"",""12206""
""blur"",""4"",""110073""
""blur"",""6"",""352156""
""blur"",""8"",""363335""
","""event"",""trial"",""time""
""focus"",""0"",""0""
""focus"",""0"",""0""
""focus"",""3"",""107991""
""focus"",""5"",""345670""
""focus"",""7"",""359503""
""focus"",""9"",""603470""
","""event"",""trial"",""time""
""fullscreenenter"",""0"",""888""
","""event"",""trial"",""time""
""fullscreenexit"",""2"",""3933""
","null","<div class='center'><p><img src='run_exp/static/images/tutorial/blue_win.png' height='500'></p></div>","null","","","","","","","","","","","","","","","","","","","","","","",""
"","html-keyboard-response","16","610080","0.0-16.0","""event"",""trial"",""time""
""blur"",""0"",""0""
""focus"",""0"",""0""
""blur"",""0"",""0""
""focus"",""0"",""0""
""fullscreenenter"",""0"",""888""
""fullscreenexit"",""2"",""3933""
""blur"",""2"",""12206""
""focus"",""3"",""107991""
""blur"",""4"",""110073""
""focus"",""5"",""345670""
""blur"",""6"",""352156""
""focus"",""7"",""359503""
""blur"",""8"",""363335""
""focus"",""9"",""603470""
","""event"",""trial"",""time""
""blur"",""0"",""0""
""blur"",""0"",""0""
""blur"",""2"",""12206""
""blur"",""4"",""110073""
""blur"",""6"",""352156""
""blur"",""8"",""363335""
","""event"",""trial"",""time""
""focus"",""0"",""0""
""focus"",""0"",""0""
""focus"",""3"",""107991""
""focus"",""5"",""345670""
""focus"",""7"",""359503""
""focus"",""9"",""603470""
","""event"",""trial"",""time""
""fullscreenenter"",""0"",""888""
","""event"",""trial"",""time""
""fullscreenexit"",""2"",""3933""
","115.12500001117587","<div class='center'><img src='run_exp/static/images/tutorial/blue.png' height='500'></p></div>","49","","","","","","","","","","","","","","","","","","","","","","",""
"","html-keyboard-response","17","611583","0.0-17.0","""event"",""trial"",""time""
""blur"",""0"",""0""
""focus"",""0"",""0""
""blur"",""0"",""0""
""focus"",""0"",""0""
""fullscreenenter"",""0"",""888""
""fullscreenexit"",""2"",""3933""
""blur"",""2"",""12206""
""focus"",""3"",""107991""
""blur"",""4"",""110073""
""focus"",""5"",""345670""
""blur"",""6"",""352156""
""focus"",""7"",""359503""
""blur"",""8"",""363335""
""focus"",""9"",""603470""
","""event"",""trial"",""time""
""blur"",""0"",""0""
""blur"",""0"",""0""
""blur"",""2"",""12206""
""blur"",""4"",""110073""
""blur"",""6"",""352156""
""blur"",""8"",""363335""
","""event"",""trial"",""time""
""focus"",""0"",""0""
""focus"",""0"",""0""
""focus"",""3"",""107991""
""focus"",""5"",""345670""
""focus"",""7"",""359503""
""focus"",""9"",""603470""
","""event"",""trial"",""time""
""fullscreenenter"",""0"",""888""
","""event"",""trial"",""time""
""fullscreenexit"",""2"",""3933""
","null","<div class='center'><p><img src='run_exp/static/images/tutorial/blue_no_win.png' height='500'></p></div>","null","","","","","","","","","","","","","","","","","","","","","","",""
"","html-keyboard-response","18","611915","0.0-18.0","""event"",""trial"",""time""
""blur"",""0"",""0""
""focus"",""0"",""0""
""blur"",""0"",""0""
""focus"",""0"",""0""
""fullscreenenter"",""0"",""888""
""fullscreenexit"",""2"",""3933""
""blur"",""2"",""12206""
""focus"",""3"",""107991""
""blur"",""4"",""110073""
""focus"",""5"",""345670""
""blur"",""6"",""352156""
""focus"",""7"",""359503""
""blur"",""8"",""363335""
""focus"",""9"",""603470""
","""event"",""trial"",""time""
""blur"",""0"",""0""
""blur"",""0"",""0""
""blur"",""2"",""12206""
""blur"",""4"",""110073""
""blur"",""6"",""352156""
""blur"",""8"",""363335""
","""event"",""trial"",""time""
""focus"",""0"",""0""
""focus"",""0"",""0""
""focus"",""3"",""107991""
""focus"",""5"",""345670""
""focus"",""7"",""359503""
""focus"",""9"",""603470""
","""event"",""trial"",""time""
""fullscreenenter"",""0"",""888""
","""event"",""trial"",""time""
""fullscreenexit"",""2"",""3933""
","329.1400000016438","<div class='center'><img src='run_exp/static/images/tutorial/blue.png' height='500'></p></div>","49","","","","","","","","","","","","","","","","","","","","","","",""
"","html-keyboard-response","19","613417","0.0-19.0","""event"",""trial"",""time""
""blur"",""0"",""0""
""focus"",""0"",""0""
""blur"",""0"",""0""
""focus"",""0"",""0""
""fullscreenenter"",""0"",""888""
""fullscreenexit"",""2"",""3933""
""blur"",""2"",""12206""
""focus"",""3"",""107991""
""blur"",""4"",""110073""
""focus"",""5"",""345670""
""blur"",""6"",""352156""
""focus"",""7"",""359503""
""blur"",""8"",""363335""
""focus"",""9"",""603470""
","""event"",""trial"",""time""
""blur"",""0"",""0""
""blur"",""0"",""0""
""blur"",""2"",""12206""
""blur"",""4"",""110073""
""blur"",""6"",""352156""
""blur"",""8"",""363335""
","""event"",""trial"",""time""
""focus"",""0"",""0""
""focus"",""0"",""0""
""focus"",""3"",""107991""
""focus"",""5"",""345670""
""focus"",""7"",""359503""
""focus"",""9"",""603470""
","""event"",""trial"",""time""
""fullscreenenter"",""0"",""888""
","""event"",""trial"",""time""
""fullscreenexit"",""2"",""3933""
","null","<div class='center'><p><img src='run_exp/static/images/tutorial/blue_win.png' height='500'></p></div>","null","","","","","","","","","","","","","","","","","","","","","","",""
"","html-keyboard-response","20","613687","0.0-20.0","""event"",""trial"",""time""
""blur"",""0"",""0""
""focus"",""0"",""0""
""blur"",""0"",""0""
""focus"",""0"",""0""
""fullscreenenter"",""0"",""888""
""fullscreenexit"",""2"",""3933""
""blur"",""2"",""12206""
""focus"",""3"",""107991""
""blur"",""4"",""110073""
""focus"",""5"",""345670""
""blur"",""6"",""352156""
""focus"",""7"",""359503""
""blur"",""8"",""363335""
""focus"",""9"",""603470""
","""event"",""trial"",""time""
""blur"",""0"",""0""
""blur"",""0"",""0""
""blur"",""2"",""12206""
""blur"",""4"",""110073""
""blur"",""6"",""352156""
""blur"",""8"",""363335""
","""event"",""trial"",""time""
""focus"",""0"",""0""
""focus"",""0"",""0""
""focus"",""3"",""107991""
""focus"",""5"",""345670""
""focus"",""7"",""359503""
""focus"",""9"",""603470""
","""event"",""trial"",""time""
""fullscreenenter"",""0"",""888""
","""event"",""trial"",""time""
""fullscreenexit"",""2"",""3933""
","269.27999999315944","<div class='center'><img src='run_exp/static/images/tutorial/blue.png' height='500'></p></div>","49","","","","","","","","","","","","","","","","","","","","","","",""
"","html-keyboard-response","21","615190","0.0-21.0","""event"",""trial"",""time""
""blur"",""0"",""0""
""focus"",""0"",""0""
""blur"",""0"",""0""
""focus"",""0"",""0""
""fullscreenenter"",""0"",""888""
""fullscreenexit"",""2"",""3933""
""blur"",""2"",""12206""
""focus"",""3"",""107991""
""blur"",""4"",""110073""
""focus"",""5"",""345670""
""blur"",""6"",""352156""
""focus"",""7"",""359503""
""blur"",""8"",""363335""
""focus"",""9"",""603470""
","""event"",""trial"",""time""
""blur"",""0"",""0""
""blur"",""0"",""0""
""blur"",""2"",""12206""
""blur"",""4"",""110073""
""blur"",""6"",""352156""
""blur"",""8"",""363335""
","""event"",""trial"",""time""
""focus"",""0"",""0""
""focus"",""0"",""0""
""focus"",""3"",""107991""
""focus"",""5"",""345670""
""focus"",""7"",""359503""
""focus"",""9"",""603470""
","""event"",""trial"",""time""
""fullscreenenter"",""0"",""888""
","""event"",""trial"",""time""
""fullscreenexit"",""2"",""3933""
","null","<div class='center'><p><img src='run_exp/static/images/tutorial/blue_win.png' height='500'></p></div>","null","","","","","","","","","","","","","","","","","","","","","","",""
"","html-keyboard-response","22","615579","0.0-22.0","""event"",""trial"",""time""
""blur"",""0"",""0""
""focus"",""0"",""0""
""blur"",""0"",""0""
""focus"",""0"",""0""
""fullscreenenter"",""0"",""888""
""fullscreenexit"",""2"",""3933""
""blur"",""2"",""12206""
""focus"",""3"",""107991""
""blur"",""4"",""110073""
""focus"",""5"",""345670""
""blur"",""6"",""352156""
""focus"",""7"",""359503""
""blur"",""8"",""363335""
""focus"",""9"",""603470""
","""event"",""trial"",""time""
""blur"",""0"",""0""
""blur"",""0"",""0""
""blur"",""2"",""12206""
""blur"",""4"",""110073""
""blur"",""6"",""352156""
""blur"",""8"",""363335""
","""event"",""trial"",""time""
""focus"",""0"",""0""
""focus"",""0"",""0""
""focus"",""3"",""107991""
""focus"",""5"",""345670""
""focus"",""7"",""359503""
""focus"",""9"",""603470""
","""event"",""trial"",""time""
""fullscreenenter"",""0"",""888""
","""event"",""trial"",""time""
""fullscreenexit"",""2"",""3933""
","387.5850000040373","<div class='center'><img src='run_exp/static/images/tutorial/blue.png' height='500'></p></div>","49","","","","","","","","","","","","","","","","","","","","","","",""
"","html-keyboard-response","23","617082","0.0-23.0","""event"",""trial"",""time""
""blur"",""0"",""0""
""focus"",""0"",""0""
""blur"",""0"",""0""
""focus"",""0"",""0""
""fullscreenenter"",""0"",""888""
""fullscreenexit"",""2"",""3933""
""blur"",""2"",""12206""
""focus"",""3"",""107991""
""blur"",""4"",""110073""
""focus"",""5"",""345670""
""blur"",""6"",""352156""
""focus"",""7"",""359503""
""blur"",""8"",""363335""
""focus"",""9"",""603470""
","""event"",""trial"",""time""
""blur"",""0"",""0""
""blur"",""0"",""0""
""blur"",""2"",""12206""
""blur"",""4"",""110073""
""blur"",""6"",""352156""
""blur"",""8"",""363335""
","""event"",""trial"",""time""
""focus"",""0"",""0""
""focus"",""0"",""0""
""focus"",""3"",""107991""
""focus"",""5"",""345670""
""focus"",""7"",""359503""
""focus"",""9"",""603470""
","""event"",""trial"",""time""
""fullscreenenter"",""0"",""888""
","""event"",""trial"",""time""
""fullscreenexit"",""2"",""3933""
","null","<div class='center'><p><img src='run_exp/static/images/tutorial/blue_win.png' height='500'></p></div>","null","","","","","","","","","","","","","","","","","","","","","","",""
"","html-keyboard-response","24","617377","0.0-24.0","""event"",""trial"",""time""
""blur"",""0"",""0""
""focus"",""0"",""0""
""blur"",""0"",""0""
""focus"",""0"",""0""
""fullscreenenter"",""0"",""888""
""fullscreenexit"",""2"",""3933""
""blur"",""2"",""12206""
""focus"",""3"",""107991""
""blur"",""4"",""110073""
""focus"",""5"",""345670""
""blur"",""6"",""352156""
""focus"",""7"",""359503""
""blur"",""8"",""363335""
""focus"",""9"",""603470""
","""event"",""trial"",""time""
""blur"",""0"",""0""
""blur"",""0"",""0""
""blur"",""2"",""12206""
""blur"",""4"",""110073""
""blur"",""6"",""352156""
""blur"",""8"",""363335""
","""event"",""trial"",""time""
""focus"",""0"",""0""
""focus"",""0"",""0""
""focus"",""3"",""107991""
""focus"",""5"",""345670""
""focus"",""7"",""359503""
""focus"",""9"",""603470""
","""event"",""trial"",""time""
""fullscreenenter"",""0"",""888""
","""event"",""trial"",""time""
""fullscreenexit"",""2"",""3933""
","294.30999999749474","<div class='center'><img src='run_exp/static/images/tutorial/blue.png' height='500'></p></div>","49","","","","","","","","","","","","","","","","","","","","","","",""
"","html-keyboard-response","25","618879","0.0-25.0","""event"",""trial"",""time""
""blur"",""0"",""0""
""focus"",""0"",""0""
""blur"",""0"",""0""
""focus"",""0"",""0""
""fullscreenenter"",""0"",""888""
""fullscreenexit"",""2"",""3933""
""blur"",""2"",""12206""
""focus"",""3"",""107991""
""blur"",""4"",""110073""
""focus"",""5"",""345670""
""blur"",""6"",""352156""
""focus"",""7"",""359503""
""blur"",""8"",""363335""
""focus"",""9"",""603470""
","""event"",""trial"",""time""
""blur"",""0"",""0""
""blur"",""0"",""0""
""blur"",""2"",""12206""
""blur"",""4"",""110073""
""blur"",""6"",""352156""
""blur"",""8"",""363335""
","""event"",""trial"",""time""
""focus"",""0"",""0""
""focus"",""0"",""0""
""focus"",""3"",""107991""
""focus"",""5"",""345670""
""focus"",""7"",""359503""
""focus"",""9"",""603470""
","""event"",""trial"",""time""
""fullscreenenter"",""0"",""888""
","""event"",""trial"",""time""
""fullscreenexit"",""2"",""3933""
","null","<div class='center'><p><img src='run_exp/static/images/tutorial/blue_no_win.png' height='500'></p></div>","null","","","","","","","","","","","","","","","","","","","","","","",""
"","html-keyboard-response","26","619242","0.0-26.0","""event"",""trial"",""time""
""blur"",""0"",""0""
""focus"",""0"",""0""
""blur"",""0"",""0""
""focus"",""0"",""0""
""fullscreenenter"",""0"",""888""
""fullscreenexit"",""2"",""3933""
""blur"",""2"",""12206""
""focus"",""3"",""107991""
""blur"",""4"",""110073""
""focus"",""5"",""345670""
""blur"",""6"",""352156""
""focus"",""7"",""359503""
""blur"",""8"",""363335""
""focus"",""9"",""603470""
","""event"",""trial"",""time""
""blur"",""0"",""0""
""blur"",""0"",""0""
""blur"",""2"",""12206""
""blur"",""4"",""110073""
""blur"",""6"",""352156""
""blur"",""8"",""363335""
","""event"",""trial"",""time""
""focus"",""0"",""0""
""focus"",""0"",""0""
""focus"",""3"",""107991""
""focus"",""5"",""345670""
""focus"",""7"",""359503""
""focus"",""9"",""603470""
","""event"",""trial"",""time""
""fullscreenenter"",""0"",""888""
","""event"",""trial"",""time""
""fullscreenexit"",""2"",""3933""
","362.0250000094529","<div class='center'><img src='run_exp/static/images/tutorial/blue.png' height='500'></p></div>","49","","","","","","","","","","","","","","","","","","","","","","",""
"","html-keyboard-response","27","620748","0.0-27.0","""event"",""trial"",""time""
""blur"",""0"",""0""
""focus"",""0"",""0""
""blur"",""0"",""0""
""focus"",""0"",""0""
""fullscreenenter"",""0"",""888""
""fullscreenexit"",""2"",""3933""
""blur"",""2"",""12206""
""focus"",""3"",""107991""
""blur"",""4"",""110073""
""focus"",""5"",""345670""
""blur"",""6"",""352156""
""focus"",""7"",""359503""
""blur"",""8"",""363335""
""focus"",""9"",""603470""
","""event"",""trial"",""time""
""blur"",""0"",""0""
""blur"",""0"",""0""
""blur"",""2"",""12206""
""blur"",""4"",""110073""
""blur"",""6"",""352156""
""blur"",""8"",""363335""
","""event"",""trial"",""time""
""focus"",""0"",""0""
""focus"",""0"",""0""
""focus"",""3"",""107991""
""focus"",""5"",""345670""
""focus"",""7"",""359503""
""focus"",""9"",""603470""
","""event"",""trial"",""time""
""fullscreenenter"",""0"",""888""
","""event"",""trial"",""time""
""fullscreenexit"",""2"",""3933""
","null","<div class='center'><p><img src='run_exp/static/images/tutorial/blue_win.png' height='500'></p></div>","null","","","","","","","","","","","","","","","","","","","","","","",""
"","html-keyboard-response","28","621231","0.0-28.0","""event"",""trial"",""time""
""blur"",""0"",""0""
""focus"",""0"",""0""
""blur"",""0"",""0""
""focus"",""0"",""0""
""fullscreenenter"",""0"",""888""
""fullscreenexit"",""2"",""3933""
""blur"",""2"",""12206""
""focus"",""3"",""107991""
""blur"",""4"",""110073""
""focus"",""5"",""345670""
""blur"",""6"",""352156""
""focus"",""7"",""359503""
""blur"",""8"",""363335""
""focus"",""9"",""603470""
","""event"",""trial"",""time""
""blur"",""0"",""0""
""blur"",""0"",""0""
""blur"",""2"",""12206""
""blur"",""4"",""110073""
""blur"",""6"",""352156""
""blur"",""8"",""363335""
","""event"",""trial"",""time""
""focus"",""0"",""0""
""focus"",""0"",""0""
""focus"",""3"",""107991""
""focus"",""5"",""345670""
""focus"",""7"",""359503""
""focus"",""9"",""603470""
","""event"",""trial"",""time""
""fullscreenenter"",""0"",""888""
","""event"",""trial"",""time""
""fullscreenexit"",""2"",""3933""
","479.75999998743646","<div class='center'><img src='run_exp/static/images/tutorial/blue.png' height='500'></p></div>","49","","","","","","","","","","","","","","","","","","","","","","",""
"","html-keyboard-response","29","622732","0.0-29.0","""event"",""trial"",""time""
""blur"",""0"",""0""
""focus"",""0"",""0""
""blur"",""0"",""0""
""focus"",""0"",""0""
""fullscreenenter"",""0"",""888""
""fullscreenexit"",""2"",""3933""
""blur"",""2"",""12206""
""focus"",""3"",""107991""
""blur"",""4"",""110073""
""focus"",""5"",""345670""
""blur"",""6"",""352156""
""focus"",""7"",""359503""
""blur"",""8"",""363335""
""focus"",""9"",""603470""
","""event"",""trial"",""time""
""blur"",""0"",""0""
""blur"",""0"",""0""
""blur"",""2"",""12206""
""blur"",""4"",""110073""
""blur"",""6"",""352156""
""blur"",""8"",""363335""
","""event"",""trial"",""time""
""focus"",""0"",""0""
""focus"",""0"",""0""
""focus"",""3"",""107991""
""focus"",""5"",""345670""
""focus"",""7"",""359503""
""focus"",""9"",""603470""
","""event"",""trial"",""time""
""fullscreenenter"",""0"",""888""
","""event"",""trial"",""time""
""fullscreenexit"",""2"",""3933""
","null","<div class='center'><p><img src='run_exp/static/images/tutorial/blue_win.png' height='500'></p></div>","null","","","","","","","","","","","","","","","","","","","","","","",""
"","instruc6","30","628129","0.0-30.0","""event"",""trial"",""time""
""blur"",""0"",""0""
""focus"",""0"",""0""
""blur"",""0"",""0""
""focus"",""0"",""0""
""fullscreenenter"",""0"",""888""
""fullscreenexit"",""2"",""3933""
""blur"",""2"",""12206""
""focus"",""3"",""107991""
""blur"",""4"",""110073""
""focus"",""5"",""345670""
""blur"",""6"",""352156""
""focus"",""7"",""359503""
""blur"",""8"",""363335""
""focus"",""9"",""603470""
","""event"",""trial"",""time""
""blur"",""0"",""0""
""blur"",""0"",""0""
""blur"",""2"",""12206""
""blur"",""4"",""110073""
""blur"",""6"",""352156""
""blur"",""8"",""363335""
","""event"",""trial"",""time""
""focus"",""0"",""0""
""focus"",""0"",""0""
""focus"",""3"",""107991""
""focus"",""5"",""345670""
""focus"",""7"",""359503""
""focus"",""9"",""603470""
","""event"",""trial"",""time""
""fullscreenenter"",""0"",""888""
","""event"",""trial"",""time""
""fullscreenexit"",""2"",""3933""
","null","run_exp/static/audio/clip_6_blue_beard_outcome.m4a","null","","","","","<div class='center'><p> See, he succeeded in robbing the ships most of the time but not every time. </p></div>","","","","","","","","","","","","","","","","","",""
"","html-keyboard-response","31","628838","0.0-31.0","""event"",""trial"",""time""
""blur"",""0"",""0""
""focus"",""0"",""0""
""blur"",""0"",""0""
""focus"",""0"",""0""
""fullscreenenter"",""0"",""888""
""fullscreenexit"",""2"",""3933""
""blur"",""2"",""12206""
""focus"",""3"",""107991""
""blur"",""4"",""110073""
""focus"",""5"",""345670""
""blur"",""6"",""352156""
""focus"",""7"",""359503""
""blur"",""8"",""363335""
""focus"",""9"",""603470""
","""event"",""trial"",""time""
""blur"",""0"",""0""
""blur"",""0"",""0""
""blur"",""2"",""12206""
""blur"",""4"",""110073""
""blur"",""6"",""352156""
""blur"",""8"",""363335""
","""event"",""trial"",""time""
""focus"",""0"",""0""
""focus"",""0"",""0""
""focus"",""3"",""107991""
""focus"",""5"",""345670""
""focus"",""7"",""359503""
""focus"",""9"",""603470""
","""event"",""trial"",""time""
""fullscreenenter"",""0"",""888""
","""event"",""trial"",""time""
""fullscreenexit"",""2"",""3933""
","708.4150000009686","<div class='center'><p> See, he succeeded in robbing the ships most of the time but not every time. </p><p><b>[Press the space bar to continue]</b></p></div>","32","","","","","","","","","","","","","","","","","","","","","","",""
"","audio-keyboard-response","32","629560","0.0-32.0","""event"",""trial"",""time""
""blur"",""0"",""0""
""focus"",""0"",""0""
""blur"",""0"",""0""
""focus"",""0"",""0""
""fullscreenenter"",""0"",""888""
""fullscreenexit"",""2"",""3933""
""blur"",""2"",""12206""
""focus"",""3"",""107991""
""blur"",""4"",""110073""
""focus"",""5"",""345670""
""blur"",""6"",""352156""
""focus"",""7"",""359503""
""blur"",""8"",""363335""
""focus"",""9"",""603470""
","""event"",""trial"",""time""
""blur"",""0"",""0""
""blur"",""0"",""0""
""blur"",""2"",""12206""
""blur"",""4"",""110073""
""blur"",""6"",""352156""
""blur"",""8"",""363335""
","""event"",""trial"",""time""
""focus"",""0"",""0""
""focus"",""0"",""0""
""focus"",""3"",""107991""
""focus"",""5"",""345670""
""focus"",""7"",""359503""
""focus"",""9"",""603470""
","""event"",""trial"",""time""
""fullscreenenter"",""0"",""888""
","""event"",""trial"",""time""
""fullscreenexit"",""2"",""3933""
","720.9250000014435","run_exp/static/audio/clip_7_pick_pirate.m4a","49","","","","","","","","","","","","","","","","","","","","","","",""
"","audio-keyboard-response","33","630060","0.0-33.0-0.0","""event"",""trial"",""time""
""blur"",""0"",""0""
""focus"",""0"",""0""
""blur"",""0"",""0""
""focus"",""0"",""0""
""fullscreenenter"",""0"",""888""
""fullscreenexit"",""2"",""3933""
""blur"",""2"",""12206""
""focus"",""3"",""107991""
""blur"",""4"",""110073""
""focus"",""5"",""345670""
""blur"",""6"",""352156""
""focus"",""7"",""359503""
""blur"",""8"",""363335""
""focus"",""9"",""603470""
","""event"",""trial"",""time""
""blur"",""0"",""0""
""blur"",""0"",""0""
""blur"",""2"",""12206""
""blur"",""4"",""110073""
""blur"",""6"",""352156""
""blur"",""8"",""363335""
","""event"",""trial"",""time""
""focus"",""0"",""0""
""focus"",""0"",""0""
""focus"",""3"",""107991""
""focus"",""5"",""345670""
""focus"",""7"",""359503""
""focus"",""9"",""603470""
","""event"",""trial"",""time""
""fullscreenenter"",""0"",""888""
","""event"",""trial"",""time""
""fullscreenexit"",""2"",""3933""
","497.32000000949483","run_exp/static/audio/clip_8_chosen_pirate_win.m4a","32","","","","","","","","","","","","","","","","","","","","","","",""
"","audio-keyboard-response","34","630579","0.0-33.0-1.0","""event"",""trial"",""time""
""blur"",""0"",""0""
""focus"",""0"",""0""
""blur"",""0"",""0""
""focus"",""0"",""0""
""fullscreenenter"",""0"",""888""
""fullscreenexit"",""2"",""3933""
""blur"",""2"",""12206""
""focus"",""3"",""107991""
""blur"",""4"",""110073""
""focus"",""5"",""345670""
""blur"",""6"",""352156""
""focus"",""7"",""359503""
""blur"",""8"",""363335""
""focus"",""9"",""603470""
","""event"",""trial"",""time""
""blur"",""0"",""0""
""blur"",""0"",""0""
""blur"",""2"",""12206""
""blur"",""4"",""110073""
""blur"",""6"",""352156""
""blur"",""8"",""363335""
","""event"",""trial"",""time""
""focus"",""0"",""0""
""focus"",""0"",""0""
""focus"",""3"",""107991""
""focus"",""5"",""345670""
""focus"",""7"",""359503""
""focus"",""9"",""603470""
","""event"",""trial"",""time""
""fullscreenenter"",""0"",""888""
","""event"",""trial"",""time""
""fullscreenexit"",""2"",""3933""
","518.6150000081398","run_exp/static/audio/clip_9_pick_a_pirate_again.m4a","49","","","","","","","","","","","","","","","","","","","","","","",""
"","audio-keyboard-response","35","630917","0.0-34.0-0.0","""event"",""trial"",""time""
""blur"",""0"",""0""
""focus"",""0"",""0""
""blur"",""0"",""0""
""focus"",""0"",""0""
""fullscreenenter"",""0"",""888""
""fullscreenexit"",""2"",""3933""
""blur"",""2"",""12206""
""focus"",""3"",""107991""
""blur"",""4"",""110073""
""focus"",""5"",""345670""
""blur"",""6"",""352156""
""focus"",""7"",""359503""
""blur"",""8"",""363335""
""focus"",""9"",""603470""
","""event"",""trial"",""time""
""blur"",""0"",""0""
""blur"",""0"",""0""
""blur"",""2"",""12206""
""blur"",""4"",""110073""
""blur"",""6"",""352156""
""blur"",""8"",""363335""
","""event"",""trial"",""time""
""focus"",""0"",""0""
""focus"",""0"",""0""
""focus"",""3"",""107991""
""focus"",""5"",""345670""
""focus"",""7"",""359503""
""focus"",""9"",""603470""
","""event"",""trial"",""time""
""fullscreenenter"",""0"",""888""
","""event"",""trial"",""time""
""fullscreenexit"",""2"",""3933""
","336.01999998791143","run_exp/static/audio/clip_10_chosen_pirate_loss.m4a","32","","","","","","","","","","","","","","","","","","","","","","",""
"","instruc9","36","636419","0.0-35.0-0.0","""event"",""trial"",""time""
""blur"",""0"",""0""
""focus"",""0"",""0""
""blur"",""0"",""0""
""focus"",""0"",""0""
""fullscreenenter"",""0"",""888""
""fullscreenexit"",""2"",""3933""
""blur"",""2"",""12206""
""focus"",""3"",""107991""
""blur"",""4"",""110073""
""focus"",""5"",""345670""
""blur"",""6"",""352156""
""focus"",""7"",""359503""
""blur"",""8"",""363335""
""focus"",""9"",""603470""
","""event"",""trial"",""time""
""blur"",""0"",""0""
""blur"",""0"",""0""
""blur"",""2"",""12206""
""blur"",""4"",""110073""
""blur"",""6"",""352156""
""blur"",""8"",""363335""
","""event"",""trial"",""time""
""focus"",""0"",""0""
""focus"",""0"",""0""
""focus"",""3"",""107991""
""focus"",""5"",""345670""
""focus"",""7"",""359503""
""focus"",""9"",""603470""
","""event"",""trial"",""time""
""fullscreenenter"",""0"",""888""
","""event"",""trial"",""time""
""fullscreenexit"",""2"",""3933""
","null","run_exp/static/audio/clip_11_time_out.m4a","null","","","","","<div class='center'><p>If you don’t make your choice fast enough, you’ll have to wait a few seconds before you can make another one. </p><p><img src='run_exp/static/images/miscellaneous/hurry_up.png' height='500'></p></div>","","","","","","","","","","","","","","","","","",""
"","html-keyboard-response","37","637156","0.0-35.0-1.0","""event"",""trial"",""time""
""blur"",""0"",""0""
""focus"",""0"",""0""
""blur"",""0"",""0""
""focus"",""0"",""0""
""fullscreenenter"",""0"",""888""
""fullscreenexit"",""2"",""3933""
""blur"",""2"",""12206""
""focus"",""3"",""107991""
""blur"",""4"",""110073""
""focus"",""5"",""345670""
""blur"",""6"",""352156""
""focus"",""7"",""359503""
""blur"",""8"",""363335""
""focus"",""9"",""603470""
""blur"",""38"",""639764""
""focus"",""38"",""642068""
""blur"",""38"",""643051""
""focus"",""38"",""661748""
""blur"",""38"",""664462""
""focus"",""38"",""675156""
","""event"",""trial"",""time""
""blur"",""0"",""0""
""blur"",""0"",""0""
""blur"",""2"",""12206""
""blur"",""4"",""110073""
""blur"",""6"",""352156""
""blur"",""8"",""363335""
""blur"",""38"",""639764""
""blur"",""38"",""643051""
""blur"",""38"",""664462""
","""event"",""trial"",""time""
""focus"",""0"",""0""
""focus"",""0"",""0""
""focus"",""3"",""107991""
""focus"",""5"",""345670""
""focus"",""7"",""359503""
""focus"",""9"",""603470""
""focus"",""38"",""642068""
""focus"",""38"",""661748""
""focus"",""38"",""675156""
","""event"",""trial"",""time""
""fullscreenenter"",""0"",""888""
","""event"",""trial"",""time""
""fullscreenexit"",""2"",""3933""
","735.9449999930803","<div class='center'><p>If you don’t make your choice fast enough, you’ll have to wait a few seconds before you can make another one. </p><p><img src='run_exp/static/images/miscellaneous/hurry_up.png' height='500'></p><p><b>[Press the space bar to continue]</b></p></div>","32","","","","","","","","","","","","","","","","","","","","","","",""
"","instruc10","38","676264","0.0-35.0-2.0","""event"",""trial"",""time""
""blur"",""0"",""0""
""focus"",""0"",""0""
""blur"",""0"",""0""
""focus"",""0"",""0""
""fullscreenenter"",""0"",""888""
""fullscreenexit"",""2"",""3933""
""blur"",""2"",""12206""
""focus"",""3"",""107991""
""blur"",""4"",""110073""
""focus"",""5"",""345670""
""blur"",""6"",""352156""
""focus"",""7"",""359503""
""blur"",""8"",""363335""
""focus"",""9"",""603470""
""blur"",""38"",""639764""
""focus"",""38"",""642068""
""blur"",""38"",""643051""
""focus"",""38"",""661748""
""blur"",""38"",""664462""
""focus"",""38"",""675156""
","""event"",""trial"",""time""
""blur"",""0"",""0""
""blur"",""0"",""0""
""blur"",""2"",""12206""
""blur"",""4"",""110073""
""blur"",""6"",""352156""
""blur"",""8"",""363335""
""blur"",""38"",""639764""
""blur"",""38"",""643051""
""blur"",""38"",""664462""
","""event"",""trial"",""time""
""focus"",""0"",""0""
""focus"",""0"",""0""
""focus"",""3"",""107991""
""focus"",""5"",""345670""
""focus"",""7"",""359503""
""focus"",""9"",""603470""
""focus"",""38"",""642068""
""focus"",""38"",""661748""
""focus"",""38"",""675156""
","""event"",""trial"",""time""
""fullscreenenter"",""0"",""888""
","""event"",""trial"",""time""
""fullscreenexit"",""2"",""3933""
","null","run_exp/static/audio/clip_12_probe.m4a","null","","","","","<div class='center'><p>Once you've chosen a pirate, you’ll be shown the ship they are robbing. You will never rob the same ship twice. Ships can be told apart from one another by the image on them. These are the goods that they sell. See, this ship has a travel mug on it. </p><p> You’ll have to remember which island you saw each ship on. You will win more gold coins and hence more bonus money if you remember correctly! To help you remember, you can imagine a story. For example, here, you could imagine a mug full of water in the desert. Or, as another example, if on the forest island, your pirate robbed a ship with an apple on it, you could imagine an apple falling from a tree in the forest. </p><p><img src='run_exp/static/images/tutorial/example_probe.png' height='500'></p></div>","","","","","","","","","","","","","","","","","",""
"","html-keyboard-response","39","677136","0.0-35.0-3.0","""event"",""trial"",""time""
""blur"",""0"",""0""
""focus"",""0"",""0""
""blur"",""0"",""0""
""focus"",""0"",""0""
""fullscreenenter"",""0"",""888""
""fullscreenexit"",""2"",""3933""
""blur"",""2"",""12206""
""focus"",""3"",""107991""
""blur"",""4"",""110073""
""focus"",""5"",""345670""
""blur"",""6"",""352156""
""focus"",""7"",""359503""
""blur"",""8"",""363335""
""focus"",""9"",""603470""
""blur"",""38"",""639764""
""focus"",""38"",""642068""
""blur"",""38"",""643051""
""focus"",""38"",""661748""
""blur"",""38"",""664462""
""focus"",""38"",""675156""
""blur"",""40"",""680565""
""focus"",""40"",""689331""
""blur"",""40"",""689332""
","""event"",""trial"",""time""
""blur"",""0"",""0""
""blur"",""0"",""0""
""blur"",""2"",""12206""
""blur"",""4"",""110073""
""blur"",""6"",""352156""
""blur"",""8"",""363335""
""blur"",""38"",""639764""
""blur"",""38"",""643051""
""blur"",""38"",""664462""
""blur"",""40"",""680565""
""blur"",""40"",""689332""
","""event"",""trial"",""time""
""focus"",""0"",""0""
""focus"",""0"",""0""
""focus"",""3"",""107991""
""focus"",""5"",""345670""
""focus"",""7"",""359503""
""focus"",""9"",""603470""
""focus"",""38"",""642068""
""focus"",""38"",""661748""
""focus"",""38"",""675156""
""focus"",""40"",""689331""
","""event"",""trial"",""time""
""fullscreenenter"",""0"",""888""
","""event"",""trial"",""time""
""fullscreenexit"",""2"",""3933""
","871.6899999999441","<div class='center'><p>Once you've chosen a pirate, you’ll be shown the ship they are robbing. You will never rob the same ship twice. Ships can be told apart from one another by the image on them. These are the goods that they sell. See, this ship has a travel mug on it. </p><p> You’ll have to remember which island you saw each ship on. You will win more gold coins and hence more bonus money if you remember correctly! To help you remember, you can imagine a story. For example, here, you could imagine a mug full of water in the desert. Or, as another example, if on the forest island, your pirate robbed a ship with an apple on it, you could imagine an apple falling from a tree in the forest. </p><p><img src='run_exp/static/images/tutorial/example_probe.png' height='500'></p><p><b>[Press the space bar to continue]</b></p></div>","32","","","","","","","","","","","","","","","","","","","","","","",""
"","instruc11","40","693539","0.0-35.0-4.0","""event"",""trial"",""time""
""blur"",""0"",""0""
""focus"",""0"",""0""
""blur"",""0"",""0""
""focus"",""0"",""0""
""fullscreenenter"",""0"",""888""
""fullscreenexit"",""2"",""3933""
""blur"",""2"",""12206""
""focus"",""3"",""107991""
""blur"",""4"",""110073""
""focus"",""5"",""345670""
""blur"",""6"",""352156""
""focus"",""7"",""359503""
""blur"",""8"",""363335""
""focus"",""9"",""603470""
""blur"",""38"",""639764""
""focus"",""38"",""642068""
""blur"",""38"",""643051""
""focus"",""38"",""661748""
""blur"",""38"",""664462""
""focus"",""38"",""675156""
""blur"",""40"",""680565""
""focus"",""40"",""689331""
""blur"",""40"",""689332""
""focus"",""41"",""915915""
","""event"",""trial"",""time""
""blur"",""0"",""0""
""blur"",""0"",""0""
""blur"",""2"",""12206""
""blur"",""4"",""110073""
""blur"",""6"",""352156""
""blur"",""8"",""363335""
""blur"",""38"",""639764""
""blur"",""38"",""643051""
""blur"",""38"",""664462""
""blur"",""40"",""680565""
""blur"",""40"",""689332""
","""event"",""trial"",""time""
""focus"",""0"",""0""
""focus"",""0"",""0""
""focus"",""3"",""107991""
""focus"",""5"",""345670""
""focus"",""7"",""359503""
""focus"",""9"",""603470""
""focus"",""38"",""642068""
""focus"",""38"",""661748""
""focus"",""38"",""675156""
""focus"",""40"",""689331""
""focus"",""41"",""915915""
","""event"",""trial"",""time""
""fullscreenenter"",""0"",""888""
","""event"",""trial"",""time""
""fullscreenexit"",""2"",""3933""
","null","run_exp/static/audio/clip_13_changepoint.m4a","null","","","","","<div class='center'><p>How successful a pirate is at robbing ships will depend on the island you’re on.</p><p> A pirate may have visited this island many times before and gained a lot of practice robbing ships there.</p><p>So, they’re more likely to be successful than a pirate who has never visited the island before.</p></div>","","","","","","","","","","","","","","","","","",""
"","html-keyboard-response","41","916458","0.0-35.0-5.0","""event"",""trial"",""time""
""blur"",""0"",""0""
""focus"",""0"",""0""
""blur"",""0"",""0""
""focus"",""0"",""0""
""fullscreenenter"",""0"",""888""
""fullscreenexit"",""2"",""3933""
""blur"",""2"",""12206""
""focus"",""3"",""107991""
""blur"",""4"",""110073""
""focus"",""5"",""345670""
""blur"",""6"",""352156""
""focus"",""7"",""359503""
""blur"",""8"",""363335""
""focus"",""9"",""603470""
""blur"",""38"",""639764""
""focus"",""38"",""642068""
""blur"",""38"",""643051""
""focus"",""38"",""661748""
""blur"",""38"",""664462""
""focus"",""38"",""675156""
""blur"",""40"",""680565""
""focus"",""40"",""689331""
""blur"",""40"",""689332""
""focus"",""41"",""915915""
""blur"",""42"",""931591""
""focus"",""42"",""955156""
","""event"",""trial"",""time""
""blur"",""0"",""0""
""blur"",""0"",""0""
""blur"",""2"",""12206""
""blur"",""4"",""110073""
""blur"",""6"",""352156""
""blur"",""8"",""363335""
""blur"",""38"",""639764""
""blur"",""38"",""643051""
""blur"",""38"",""664462""
""blur"",""40"",""680565""
""blur"",""40"",""689332""
""blur"",""42"",""931591""
","""event"",""trial"",""time""
""focus"",""0"",""0""
""focus"",""0"",""0""
""focus"",""3"",""107991""
""focus"",""5"",""345670""
""focus"",""7"",""359503""
""focus"",""9"",""603470""
""focus"",""38"",""642068""
""focus"",""38"",""661748""
""focus"",""38"",""675156""
""focus"",""40"",""689331""
""focus"",""41"",""915915""
""focus"",""42"",""955156""
","""event"",""trial"",""time""
""fullscreenenter"",""0"",""888""
","""event"",""trial"",""time""
""fullscreenexit"",""2"",""3933""
","222918.16000000108","<div class='center'><p>How successful a pirate is at robbing ships will depend on the island you’re on.</p><p> A pirate may have visited this island many times before and gained a lot of practice robbing ships there.</p><p>So, they’re more likely to be successful than a pirate who has never visited the island before.</p><p><b>[Press the space bar to continue]</b></p></div>","32","","","","","","","","","","","","","","","","","","","","","","",""
"","instruc12","42","957570","0.0-35.0-6.0","""event"",""trial"",""time""
""blur"",""0"",""0""
""focus"",""0"",""0""
""blur"",""0"",""0""
""focus"",""0"",""0""
""fullscreenenter"",""0"",""888""
""fullscreenexit"",""2"",""3933""
""blur"",""2"",""12206""
""focus"",""3"",""107991""
""blur"",""4"",""110073""
""focus"",""5"",""345670""
""blur"",""6"",""352156""
""focus"",""7"",""359503""
""blur"",""8"",""363335""
""focus"",""9"",""603470""
""blur"",""38"",""639764""
""focus"",""38"",""642068""
""blur"",""38"",""643051""
""focus"",""38"",""661748""
""blur"",""38"",""664462""
""focus"",""38"",""675156""
""blur"",""40"",""680565""
""focus"",""40"",""689331""
""blur"",""40"",""689332""
""focus"",""41"",""915915""
""blur"",""42"",""931591""
""focus"",""42"",""955156""
","""event"",""trial"",""time""
""blur"",""0"",""0""
""blur"",""0"",""0""
""blur"",""2"",""12206""
""blur"",""4"",""110073""
""blur"",""6"",""352156""
""blur"",""8"",""363335""
""blur"",""38"",""639764""
""blur"",""38"",""643051""
""blur"",""38"",""664462""
""blur"",""40"",""680565""
""blur"",""40"",""689332""
""blur"",""42"",""931591""
","""event"",""trial"",""time""
""focus"",""0"",""0""
""focus"",""0"",""0""
""focus"",""3"",""107991""
""focus"",""5"",""345670""
""focus"",""7"",""359503""
""focus"",""9"",""603470""
""focus"",""38"",""642068""
""focus"",""38"",""661748""
""focus"",""38"",""675156""
""focus"",""40"",""689331""
""focus"",""41"",""915915""
""focus"",""42"",""955156""
","""event"",""trial"",""time""
""fullscreenenter"",""0"",""888""
","""event"",""trial"",""time""
""fullscreenexit"",""2"",""3933""
","null","run_exp/static/audio/clip_14_drift.m4a","null","","","","","<div class='center'><p>How successful a pirate is at robbing ships can also change over the time spent on the island. </p><p> Ships may hear from islanders about the pirates coming and will improve their protections against the attack. This may make it harder to rob them.</p><p> Ships may also become lazy and weaken the strength of their protections. This may make it easier to rob them.</p><br><p>Things are always changing on the high seas! So, try your best to pay attention!</p><p><img src='run_exp/static/images/tutorial/contingency.png' height='500'></p></div>","","","","","","","","","","","","","","","","","",""
"","html-keyboard-response","43","958505","0.0-35.0-7.0","""event"",""trial"",""time""
""blur"",""0"",""0""
""focus"",""0"",""0""
""blur"",""0"",""0""
""focus"",""0"",""0""
""fullscreenenter"",""0"",""888""
""fullscreenexit"",""2"",""3933""
""blur"",""2"",""12206""
""focus"",""3"",""107991""
""blur"",""4"",""110073""
""focus"",""5"",""345670""
""blur"",""6"",""352156""
""focus"",""7"",""359503""
""blur"",""8"",""363335""
""focus"",""9"",""603470""
""blur"",""38"",""639764""
""focus"",""38"",""642068""
""blur"",""38"",""643051""
""focus"",""38"",""661748""
""blur"",""38"",""664462""
""focus"",""38"",""675156""
""blur"",""40"",""680565""
""focus"",""40"",""689331""
""blur"",""40"",""689332""
""focus"",""41"",""915915""
""blur"",""42"",""931591""
""focus"",""42"",""955156""
""blur"",""44"",""962252""
""focus"",""44"",""985179""
""blur"",""44"",""987315""
""focus"",""44"",""990300""
""blur"",""44"",""992551""
","""event"",""trial"",""time""
""blur"",""0"",""0""
""blur"",""0"",""0""
""blur"",""2"",""12206""
""blur"",""4"",""110073""
""blur"",""6"",""352156""
""blur"",""8"",""363335""
""blur"",""38"",""639764""
""blur"",""38"",""643051""
""blur"",""38"",""664462""
""blur"",""40"",""680565""
""blur"",""40"",""689332""
""blur"",""42"",""931591""
""blur"",""44"",""962252""
""blur"",""44"",""987315""
""blur"",""44"",""992551""
","""event"",""trial"",""time""
""focus"",""0"",""0""
""focus"",""0"",""0""
""focus"",""3"",""107991""
""focus"",""5"",""345670""
""focus"",""7"",""359503""
""focus"",""9"",""603470""
""focus"",""38"",""642068""
""focus"",""38"",""661748""
""focus"",""38"",""675156""
""focus"",""40"",""689331""
""focus"",""41"",""915915""
""focus"",""42"",""955156""
""focus"",""44"",""985179""
""focus"",""44"",""990300""
","""event"",""trial"",""time""
""fullscreenenter"",""0"",""888""
","""event"",""trial"",""time""
""fullscreenexit"",""2"",""3933""
","934.8000000027241","<div class='center'><p>How successful a pirate is at robbing ships can also change over the time spent on the island. </p><p> Ships may hear from islanders about the pirates coming and will improve their protections against the attack. This may make it harder to rob them.</p><p> Ships may also become lazy and weaken the strength of their protections. This may make it easier to rob them.</p><br><p>Things are always changing on the high seas! So, try your best to pay attention!</p><p><img src='run_exp/static/images/tutorial/contingency.png' height='500'></p><p><b>[Press the space bar to continue]</b></p></div>","32","","","","","","","","","","","","","","","","","","","","","","",""
"","instruc13","44","993701","0.0-35.0-8.0","""event"",""trial"",""time""
""blur"",""0"",""0""
""focus"",""0"",""0""
""blur"",""0"",""0""
""focus"",""0"",""0""
""fullscreenenter"",""0"",""888""
""fullscreenexit"",""2"",""3933""
""blur"",""2"",""12206""
""focus"",""3"",""107991""
""blur"",""4"",""110073""
""focus"",""5"",""345670""
""blur"",""6"",""352156""
""focus"",""7"",""359503""
""blur"",""8"",""363335""
""focus"",""9"",""603470""
""blur"",""38"",""639764""
""focus"",""38"",""642068""
""blur"",""38"",""643051""
""focus"",""38"",""661748""
""blur"",""38"",""664462""
""focus"",""38"",""675156""
""blur"",""40"",""680565""
""focus"",""40"",""689331""
""blur"",""40"",""689332""
""focus"",""41"",""915915""
""blur"",""42"",""931591""
""focus"",""42"",""955156""
""blur"",""44"",""962252""
""focus"",""44"",""985179""
""blur"",""44"",""987315""
""focus"",""44"",""990300""
""blur"",""44"",""992551""
""focus"",""45"",""1018339""
","""event"",""trial"",""time""
""blur"",""0"",""0""
""blur"",""0"",""0""
""blur"",""2"",""12206""
""blur"",""4"",""110073""
""blur"",""6"",""352156""
""blur"",""8"",""363335""
""blur"",""38"",""639764""
""blur"",""38"",""643051""
""blur"",""38"",""664462""
""blur"",""40"",""680565""
""blur"",""40"",""689332""
""blur"",""42"",""931591""
""blur"",""44"",""962252""
""blur"",""44"",""987315""
""blur"",""44"",""992551""
","""event"",""trial"",""time""
""focus"",""0"",""0""
""focus"",""0"",""0""
""focus"",""3"",""107991""
""focus"",""5"",""345670""
""focus"",""7"",""359503""
""focus"",""9"",""603470""
""focus"",""38"",""642068""
""focus"",""38"",""661748""
""focus"",""38"",""675156""
""focus"",""40"",""689331""
""focus"",""41"",""915915""
""focus"",""42"",""955156""
""focus"",""44"",""985179""
""focus"",""44"",""990300""
""focus"",""45"",""1018339""
","""event"",""trial"",""time""
""fullscreenenter"",""0"",""888""
","""event"",""trial"",""time""
""fullscreenexit"",""2"",""3933""
","null","run_exp/static/audio/clip_15_summary.m4a","null","","","","","<div class='center'><p>Let's go over the instructions quickly again. You have two important things to do: </p><b><p> 1. Pick the pirate who is the best at robbing ships on the current island. </p></b><b><p> 2. Remember on which island a ship was robbed.</p> </b><p>The amount of bonus money you can win depends on both.</p><p><br><p>Let’s try a practice game. The game will start by showing you the pirates. First, pick a pirate using the <b> 1, 2, 3 </b> keys on your keyboard. When you are shown a ship, try to remember which island you’re on by making up a story.</p><p>This is just a practice game, so you’re not playing for money. </p><p> Good luck! This game will be very difficult but try your best!</p></div>","","","","","","","","","","","","","","","","","",""
"","html-keyboard-response","45","1018503","0.0-35.0-9.0","""event"",""trial"",""time""
""blur"",""0"",""0""
""focus"",""0"",""0""
""blur"",""0"",""0""
""focus"",""0"",""0""
""fullscreenenter"",""0"",""888""
""fullscreenexit"",""2"",""3933""
""blur"",""2"",""12206""
""focus"",""3"",""107991""
""blur"",""4"",""110073""
""focus"",""5"",""345670""
""blur"",""6"",""352156""
""focus"",""7"",""359503""
""blur"",""8"",""363335""
""focus"",""9"",""603470""
""blur"",""38"",""639764""
""focus"",""38"",""642068""
""blur"",""38"",""643051""
""focus"",""38"",""661748""
""blur"",""38"",""664462""
""focus"",""38"",""675156""
""blur"",""40"",""680565""
""focus"",""40"",""689331""
""blur"",""40"",""689332""
""focus"",""41"",""915915""
""blur"",""42"",""931591""
""focus"",""42"",""955156""
""blur"",""44"",""962252""
""focus"",""44"",""985179""
""blur"",""44"",""987315""
""focus"",""44"",""990300""
""blur"",""44"",""992551""
""focus"",""45"",""1018339""
","""event"",""trial"",""time""
""blur"",""0"",""0""
""blur"",""0"",""0""
""blur"",""2"",""12206""
""blur"",""4"",""110073""
""blur"",""6"",""352156""
""blur"",""8"",""363335""
""blur"",""38"",""639764""
""blur"",""38"",""643051""
""blur"",""38"",""664462""
""blur"",""40"",""680565""
""blur"",""40"",""689332""
""blur"",""42"",""931591""
""blur"",""44"",""962252""
""blur"",""44"",""987315""
""blur"",""44"",""992551""
","""event"",""trial"",""time""
""focus"",""0"",""0""
""focus"",""0"",""0""
""focus"",""3"",""107991""
""focus"",""5"",""345670""
""focus"",""7"",""359503""
""focus"",""9"",""603470""
""focus"",""38"",""642068""
""focus"",""38"",""661748""
""focus"",""38"",""675156""
""focus"",""40"",""689331""
""focus"",""41"",""915915""
""focus"",""42"",""955156""
""focus"",""44"",""985179""
""focus"",""44"",""990300""
""focus"",""45"",""1018339""
","""event"",""trial"",""time""
""fullscreenenter"",""0"",""888""
","""event"",""trial"",""time""
""fullscreenexit"",""2"",""3933""
","24800.935000006575","<div class='center'><p>Let's go over the instructions quickly again. You have two important things to do: </p><b><p> 1. Pick the pirate who is the best at robbing ships on the current island. </p></b><b><p> 2. Remember on which island a ship was robbed.</p> </b><p>The amount of bonus money you can win depends on both.</p><p><br><p>Let’s try a practice game. The game will start by showing you the pirates. First, pick a pirate using the <b> 1, 2, 3 </b> keys on your keyboard. When you are shown a ship, try to remember which island you’re on by making up a story.</p><p>This is just a practice game, so you’re not playing for money. </p><p> Good luck! This game will be very difficult but try your best!</p><p><b>[Press the space bar to continue]</b></p></div>","32","","","","","","","","","","","","","","","","","","","","","","",""
"","do_welcome","46","1022518","0.0-35.0-10.0","""event"",""trial"",""time""
""blur"",""0"",""0""
""focus"",""0"",""0""
""blur"",""0"",""0""
""focus"",""0"",""0""
""fullscreenenter"",""0"",""888""
""fullscreenexit"",""2"",""3933""
""blur"",""2"",""12206""
""focus"",""3"",""107991""
""blur"",""4"",""110073""
""focus"",""5"",""345670""
""blur"",""6"",""352156""
""focus"",""7"",""359503""
""blur"",""8"",""363335""
""focus"",""9"",""603470""
""blur"",""38"",""639764""
""focus"",""38"",""642068""
""blur"",""38"",""643051""
""focus"",""38"",""661748""
""blur"",""38"",""664462""
""focus"",""38"",""675156""
""blur"",""40"",""680565""
""focus"",""40"",""689331""
""blur"",""40"",""689332""
""focus"",""41"",""915915""
""blur"",""42"",""931591""
""focus"",""42"",""955156""
""blur"",""44"",""962252""
""focus"",""44"",""985179""
""blur"",""44"",""987315""
""focus"",""44"",""990300""
""blur"",""44"",""992551""
""focus"",""45"",""1018339""
","""event"",""trial"",""time""
""blur"",""0"",""0""
""blur"",""0"",""0""
""blur"",""2"",""12206""
""blur"",""4"",""110073""
""blur"",""6"",""352156""
""blur"",""8"",""363335""
""blur"",""38"",""639764""
""blur"",""38"",""643051""
""blur"",""38"",""664462""
""blur"",""40"",""680565""
""blur"",""40"",""689332""
""blur"",""42"",""931591""
""blur"",""44"",""962252""
""blur"",""44"",""987315""
""blur"",""44"",""992551""
","""event"",""trial"",""time""
""focus"",""0"",""0""
""focus"",""0"",""0""
""focus"",""3"",""107991""
""focus"",""5"",""345670""
""focus"",""7"",""359503""
""focus"",""9"",""603470""
""focus"",""38"",""642068""
""focus"",""38"",""661748""
""focus"",""38"",""675156""
""focus"",""40"",""689331""
""focus"",""41"",""915915""
""focus"",""42"",""955156""
""focus"",""44"",""985179""
""focus"",""44"",""990300""
""focus"",""45"",""1018339""
","""event"",""trial"",""time""
""fullscreenenter"",""0"",""888""
","""event"",""trial"",""time""
""fullscreenexit"",""2"",""3933""
","null","","","","","","","","null","","","","","","","","","","","","","","","","",""
"","do_trial","47","1027506","0.0-35.0-11.0","""event"",""trial"",""time""
""blur"",""0"",""0""
""focus"",""0"",""0""
""blur"",""0"",""0""
""focus"",""0"",""0""
""fullscreenenter"",""0"",""888""
""fullscreenexit"",""2"",""3933""
""blur"",""2"",""12206""
""focus"",""3"",""107991""
""blur"",""4"",""110073""
""focus"",""5"",""345670""
""blur"",""6"",""352156""
""focus"",""7"",""359503""
""blur"",""8"",""363335""
""focus"",""9"",""603470""
""blur"",""38"",""639764""
""focus"",""38"",""642068""
""blur"",""38"",""643051""
""focus"",""38"",""661748""
""blur"",""38"",""664462""
""focus"",""38"",""675156""
""blur"",""40"",""680565""
""focus"",""40"",""689331""
""blur"",""40"",""689332""
""focus"",""41"",""915915""
""blur"",""42"",""931591""
""focus"",""42"",""955156""
""blur"",""44"",""962252""
""focus"",""44"",""985179""
""blur"",""44"",""987315""
""focus"",""44"",""990300""
""blur"",""44"",""992551""
""focus"",""45"",""1018339""
","""event"",""trial"",""time""
""blur"",""0"",""0""
""blur"",""0"",""0""
""blur"",""2"",""12206""
""blur"",""4"",""110073""
""blur"",""6"",""352156""
""blur"",""8"",""363335""
""blur"",""38"",""639764""
""blur"",""38"",""643051""
""blur"",""38"",""664462""
""blur"",""40"",""680565""
""blur"",""40"",""689332""
""blur"",""42"",""931591""
""blur"",""44"",""962252""
""blur"",""44"",""987315""
""blur"",""44"",""992551""
","""event"",""trial"",""time""
""focus"",""0"",""0""
""focus"",""0"",""0""
""focus"",""3"",""107991""
""focus"",""5"",""345670""
""focus"",""7"",""359503""
""focus"",""9"",""603470""
""focus"",""38"",""642068""
""focus"",""38"",""661748""
""focus"",""38"",""675156""
""focus"",""40"",""689331""
""focus"",""41"",""915915""
""focus"",""42"",""955156""
""focus"",""44"",""985179""
""focus"",""44"",""990300""
""focus"",""45"",""1018339""
","""event"",""trial"",""time""
""fullscreenenter"",""0"",""888""
","""event"",""trial"",""time""
""fullscreenexit"",""2"",""3933""
","478.8550000085961","","","","","","","","49","1,0,0","","","","","","","","","","","","","","","",""
"","html-keyboard-response","48","1028512","0.0-36.0-0.0","""event"",""trial"",""time""
""blur"",""0"",""0""
""focus"",""0"",""0""
""blur"",""0"",""0""
""focus"",""0"",""0""
""fullscreenenter"",""0"",""888""
""fullscreenexit"",""2"",""3933""
""blur"",""2"",""12206""
""focus"",""3"",""107991""
""blur"",""4"",""110073""
""focus"",""5"",""345670""
""blur"",""6"",""352156""
""focus"",""7"",""359503""
""blur"",""8"",""363335""
""focus"",""9"",""603470""
""blur"",""38"",""639764""
""focus"",""38"",""642068""
""blur"",""38"",""643051""
""focus"",""38"",""661748""
""blur"",""38"",""664462""
""focus"",""38"",""675156""
""blur"",""40"",""680565""
""focus"",""40"",""689331""
""blur"",""40"",""689332""
""focus"",""41"",""915915""
""blur"",""42"",""931591""
""focus"",""42"",""955156""
""blur"",""44"",""962252""
""focus"",""44"",""985179""
""blur"",""44"",""987315""
""focus"",""44"",""990300""
""blur"",""44"",""992551""
""focus"",""45"",""1018339""
","""event"",""trial"",""time""
""blur"",""0"",""0""
""blur"",""0"",""0""
""blur"",""2"",""12206""
""blur"",""4"",""110073""
""blur"",""6"",""352156""
""blur"",""8"",""363335""
""blur"",""38"",""639764""
""blur"",""38"",""643051""
""blur"",""38"",""664462""
""blur"",""40"",""680565""
""blur"",""40"",""689332""
""blur"",""42"",""931591""
""blur"",""44"",""962252""
""blur"",""44"",""987315""
""blur"",""44"",""992551""
","""event"",""trial"",""time""
""focus"",""0"",""0""
""focus"",""0"",""0""
""focus"",""3"",""107991""
""focus"",""5"",""345670""
""focus"",""7"",""359503""
""focus"",""9"",""603470""
""focus"",""38"",""642068""
""focus"",""38"",""661748""
""focus"",""38"",""675156""
""focus"",""40"",""689331""
""focus"",""41"",""915915""
""focus"",""42"",""955156""
""focus"",""44"",""985179""
""focus"",""44"",""990300""
""focus"",""45"",""1018339""
","""event"",""trial"",""time""
""fullscreenenter"",""0"",""888""
","""event"",""trial"",""time""
""fullscreenexit"",""2"",""3933""
","null","<p></p>","null","","","","","","","","","","","","","","","","","","","","","","",""
"","do_trial","49","1033253","0.0-36.0-1.0","""event"",""trial"",""time""
""blur"",""0"",""0""
""focus"",""0"",""0""
""blur"",""0"",""0""
""focus"",""0"",""0""
""fullscreenenter"",""0"",""888""
""fullscreenexit"",""2"",""3933""
""blur"",""2"",""12206""
""focus"",""3"",""107991""
""blur"",""4"",""110073""
""focus"",""5"",""345670""
""blur"",""6"",""352156""
""focus"",""7"",""359503""
""blur"",""8"",""363335""
""focus"",""9"",""603470""
""blur"",""38"",""639764""
""focus"",""38"",""642068""
""blur"",""38"",""643051""
""focus"",""38"",""661748""
""blur"",""38"",""664462""
""focus"",""38"",""675156""
""blur"",""40"",""680565""
""focus"",""40"",""689331""
""blur"",""40"",""689332""
""focus"",""41"",""915915""
""blur"",""42"",""931591""
""focus"",""42"",""955156""
""blur"",""44"",""962252""
""focus"",""44"",""985179""
""blur"",""44"",""987315""
""focus"",""44"",""990300""
""blur"",""44"",""992551""
""focus"",""45"",""1018339""
","""event"",""trial"",""time""
""blur"",""0"",""0""
""blur"",""0"",""0""
""blur"",""2"",""12206""
""blur"",""4"",""110073""
""blur"",""6"",""352156""
""blur"",""8"",""363335""
""blur"",""38"",""639764""
""blur"",""38"",""643051""
""blur"",""38"",""664462""
""blur"",""40"",""680565""
""blur"",""40"",""689332""
""blur"",""42"",""931591""
""blur"",""44"",""962252""
""blur"",""44"",""987315""
""blur"",""44"",""992551""
","""event"",""trial"",""time""
""focus"",""0"",""0""
""focus"",""0"",""0""
""focus"",""3"",""107991""
""focus"",""5"",""345670""
""focus"",""7"",""359503""
""focus"",""9"",""603470""
""focus"",""38"",""642068""
""focus"",""38"",""661748""
""focus"",""38"",""675156""
""focus"",""40"",""689331""
""focus"",""41"",""915915""
""focus"",""42"",""955156""
""focus"",""44"",""985179""
""focus"",""44"",""990300""
""focus"",""45"",""1018339""
","""event"",""trial"",""time""
""fullscreenenter"",""0"",""888""
","""event"",""trial"",""time""
""fullscreenexit"",""2"",""3933""
","233.80499999620952","","","","","","","","49","1,1,0","","","","","","","","","","","","","","","",""
"","html-keyboard-response","50","1034259","0.0-37.0-0.0","""event"",""trial"",""time""
""blur"",""0"",""0""
""focus"",""0"",""0""
""blur"",""0"",""0""
""focus"",""0"",""0""
""fullscreenenter"",""0"",""888""
""fullscreenexit"",""2"",""3933""
""blur"",""2"",""12206""
""focus"",""3"",""107991""
""blur"",""4"",""110073""
""focus"",""5"",""345670""
""blur"",""6"",""352156""
""focus"",""7"",""359503""
""blur"",""8"",""363335""
""focus"",""9"",""603470""
""blur"",""38"",""639764""
""focus"",""38"",""642068""
""blur"",""38"",""643051""
""focus"",""38"",""661748""
""blur"",""38"",""664462""
""focus"",""38"",""675156""
""blur"",""40"",""680565""
""focus"",""40"",""689331""
""blur"",""40"",""689332""
""focus"",""41"",""915915""
""blur"",""42"",""931591""
""focus"",""42"",""955156""
""blur"",""44"",""962252""
""focus"",""44"",""985179""
""blur"",""44"",""987315""
""focus"",""44"",""990300""
""blur"",""44"",""992551""
""focus"",""45"",""1018339""
","""event"",""trial"",""time""
""blur"",""0"",""0""
""blur"",""0"",""0""
""blur"",""2"",""12206""
""blur"",""4"",""110073""
""blur"",""6"",""352156""
""blur"",""8"",""363335""
""blur"",""38"",""639764""
""blur"",""38"",""643051""
""blur"",""38"",""664462""
""blur"",""40"",""680565""
""blur"",""40"",""689332""
""blur"",""42"",""931591""
""blur"",""44"",""962252""
""blur"",""44"",""987315""
""blur"",""44"",""992551""
","""event"",""trial"",""time""
""focus"",""0"",""0""
""focus"",""0"",""0""
""focus"",""3"",""107991""
""focus"",""5"",""345670""
""focus"",""7"",""359503""
""focus"",""9"",""603470""
""focus"",""38"",""642068""
""focus"",""38"",""661748""
""focus"",""38"",""675156""
""focus"",""40"",""689331""
""focus"",""41"",""915915""
""focus"",""42"",""955156""
""focus"",""44"",""985179""
""focus"",""44"",""990300""
""focus"",""45"",""1018339""
","""event"",""trial"",""time""
""fullscreenenter"",""0"",""888""
","""event"",""trial"",""time""
""fullscreenexit"",""2"",""3933""
","null","<p></p>","null","","","","","","","","","","","","","","","","","","","","","","",""
"","do_trial","51","1039008","0.0-37.0-1.0","""event"",""trial"",""time""
""blur"",""0"",""0""
""focus"",""0"",""0""
""blur"",""0"",""0""
""focus"",""0"",""0""
""fullscreenenter"",""0"",""888""
""fullscreenexit"",""2"",""3933""
""blur"",""2"",""12206""
""focus"",""3"",""107991""
""blur"",""4"",""110073""
""focus"",""5"",""345670""
""blur"",""6"",""352156""
""focus"",""7"",""359503""
""blur"",""8"",""363335""
""focus"",""9"",""603470""
""blur"",""38"",""639764""
""focus"",""38"",""642068""
""blur"",""38"",""643051""
""focus"",""38"",""661748""
""blur"",""38"",""664462""
""focus"",""38"",""675156""
""blur"",""40"",""680565""
""focus"",""40"",""689331""
""blur"",""40"",""689332""
""focus"",""41"",""915915""
""blur"",""42"",""931591""
""focus"",""42"",""955156""
""blur"",""44"",""962252""
""focus"",""44"",""985179""
""blur"",""44"",""987315""
""focus"",""44"",""990300""
""blur"",""44"",""992551""
""focus"",""45"",""1018339""
","""event"",""trial"",""time""
""blur"",""0"",""0""
""blur"",""0"",""0""
""blur"",""2"",""12206""
""blur"",""4"",""110073""
""blur"",""6"",""352156""
""blur"",""8"",""363335""
""blur"",""38"",""639764""
""blur"",""38"",""643051""
""blur"",""38"",""664462""
""blur"",""40"",""680565""
""blur"",""40"",""689332""
""blur"",""42"",""931591""
""blur"",""44"",""962252""
""blur"",""44"",""987315""
""blur"",""44"",""992551""
","""event"",""trial"",""time""
""focus"",""0"",""0""
""focus"",""0"",""0""
""focus"",""3"",""107991""
""focus"",""5"",""345670""
""focus"",""7"",""359503""
""focus"",""9"",""603470""
""focus"",""38"",""642068""
""focus"",""38"",""661748""
""focus"",""38"",""675156""
""focus"",""40"",""689331""
""focus"",""41"",""915915""
""focus"",""42"",""955156""
""focus"",""44"",""985179""
""focus"",""44"",""990300""
""focus"",""45"",""1018339""
","""event"",""trial"",""time""
""fullscreenenter"",""0"",""888""
","""event"",""trial"",""time""
""fullscreenexit"",""2"",""3933""
","236.62500000488944","","","","","","","","49","1,0,1","","","","","","","","","","","","","","","",""
"","html-keyboard-response","52","1040010","0.0-38.0-0.0","""event"",""trial"",""time""
""blur"",""0"",""0""
""focus"",""0"",""0""
""blur"",""0"",""0""
""focus"",""0"",""0""
""fullscreenenter"",""0"",""888""
""fullscreenexit"",""2"",""3933""
""blur"",""2"",""12206""
""focus"",""3"",""107991""
""blur"",""4"",""110073""
""focus"",""5"",""345670""
""blur"",""6"",""352156""
""focus"",""7"",""359503""
""blur"",""8"",""363335""
""focus"",""9"",""603470""
""blur"",""38"",""639764""
""focus"",""38"",""642068""
""blur"",""38"",""643051""
""focus"",""38"",""661748""
""blur"",""38"",""664462""
""focus"",""38"",""675156""
""blur"",""40"",""680565""
""focus"",""40"",""689331""
""blur"",""40"",""689332""
""focus"",""41"",""915915""
""blur"",""42"",""931591""
""focus"",""42"",""955156""
""blur"",""44"",""962252""
""focus"",""44"",""985179""
""blur"",""44"",""987315""
""focus"",""44"",""990300""
""blur"",""44"",""992551""
""focus"",""45"",""1018339""
","""event"",""trial"",""time""
""blur"",""0"",""0""
""blur"",""0"",""0""
""blur"",""2"",""12206""
""blur"",""4"",""110073""
""blur"",""6"",""352156""
""blur"",""8"",""363335""
""blur"",""38"",""639764""
""blur"",""38"",""643051""
""blur"",""38"",""664462""
""blur"",""40"",""680565""
""blur"",""40"",""689332""
""blur"",""42"",""931591""
""blur"",""44"",""962252""
""blur"",""44"",""987315""
""blur"",""44"",""992551""
","""event"",""trial"",""time""
""focus"",""0"",""0""
""focus"",""0"",""0""
""focus"",""3"",""107991""
""focus"",""5"",""345670""
""focus"",""7"",""359503""
""focus"",""9"",""603470""
""focus"",""38"",""642068""
""focus"",""38"",""661748""
""focus"",""38"",""675156""
""focus"",""40"",""689331""
""focus"",""41"",""915915""
""focus"",""42"",""955156""
""focus"",""44"",""985179""
""focus"",""44"",""990300""
""focus"",""45"",""1018339""
","""event"",""trial"",""time""
""fullscreenenter"",""0"",""888""
","""event"",""trial"",""time""
""fullscreenexit"",""2"",""3933""
","null","<p></p>","null","","","","","","","","","","","","","","","","","","","","","","",""
"","do_trial","53","1044922","0.0-38.0-1.0","""event"",""trial"",""time""
""blur"",""0"",""0""
""focus"",""0"",""0""
""blur"",""0"",""0""
""focus"",""0"",""0""
""fullscreenenter"",""0"",""888""
""fullscreenexit"",""2"",""3933""
""blur"",""2"",""12206""
""focus"",""3"",""107991""
""blur"",""4"",""110073""
""focus"",""5"",""345670""
""blur"",""6"",""352156""
""focus"",""7"",""359503""
""blur"",""8"",""363335""
""focus"",""9"",""603470""
""blur"",""38"",""639764""
""focus"",""38"",""642068""
""blur"",""38"",""643051""
""focus"",""38"",""661748""
""blur"",""38"",""664462""
""focus"",""38"",""675156""
""blur"",""40"",""680565""
""focus"",""40"",""689331""
""blur"",""40"",""689332""
""focus"",""41"",""915915""
""blur"",""42"",""931591""
""focus"",""42"",""955156""
""blur"",""44"",""962252""
""focus"",""44"",""985179""
""blur"",""44"",""987315""
""focus"",""44"",""990300""
""blur"",""44"",""992551""
""focus"",""45"",""1018339""
","""event"",""trial"",""time""
""blur"",""0"",""0""
""blur"",""0"",""0""
""blur"",""2"",""12206""
""blur"",""4"",""110073""
""blur"",""6"",""352156""
""blur"",""8"",""363335""
""blur"",""38"",""639764""
""blur"",""38"",""643051""
""blur"",""38"",""664462""
""blur"",""40"",""680565""
""blur"",""40"",""689332""
""blur"",""42"",""931591""
""blur"",""44"",""962252""
""blur"",""44"",""987315""
""blur"",""44"",""992551""
","""event"",""trial"",""time""
""focus"",""0"",""0""
""focus"",""0"",""0""
""focus"",""3"",""107991""
""focus"",""5"",""345670""
""focus"",""7"",""359503""
""focus"",""9"",""603470""
""focus"",""38"",""642068""
""focus"",""38"",""661748""
""focus"",""38"",""675156""
""focus"",""40"",""689331""
""focus"",""41"",""915915""
""focus"",""42"",""955156""
""focus"",""44"",""985179""
""focus"",""44"",""990300""
""focus"",""45"",""1018339""
","""event"",""trial"",""time""
""fullscreenenter"",""0"",""888""
","""event"",""trial"",""time""
""fullscreenexit"",""2"",""3933""
","404.1599999910686","","","","","","","","49","0,1,0","","","","","","","","","","","","","","","",""
"","html-keyboard-response","54","1045928","0.0-39.0-0.0","""event"",""trial"",""time""
""blur"",""0"",""0""
""focus"",""0"",""0""
""blur"",""0"",""0""
""focus"",""0"",""0""
""fullscreenenter"",""0"",""888""
""fullscreenexit"",""2"",""3933""
""blur"",""2"",""12206""
""focus"",""3"",""107991""
""blur"",""4"",""110073""
""focus"",""5"",""345670""
""blur"",""6"",""352156""
""focus"",""7"",""359503""
""blur"",""8"",""363335""
""focus"",""9"",""603470""
""blur"",""38"",""639764""
""focus"",""38"",""642068""
""blur"",""38"",""643051""
""focus"",""38"",""661748""
""blur"",""38"",""664462""
""focus"",""38"",""675156""
""blur"",""40"",""680565""
""focus"",""40"",""689331""
""blur"",""40"",""689332""
""focus"",""41"",""915915""
""blur"",""42"",""931591""
""focus"",""42"",""955156""
""blur"",""44"",""962252""
""focus"",""44"",""985179""
""blur"",""44"",""987315""
""focus"",""44"",""990300""
""blur"",""44"",""992551""
""focus"",""45"",""1018339""
","""event"",""trial"",""time""
""blur"",""0"",""0""
""blur"",""0"",""0""
""blur"",""2"",""12206""
""blur"",""4"",""110073""
""blur"",""6"",""352156""
""blur"",""8"",""363335""
""blur"",""38"",""639764""
""blur"",""38"",""643051""
""blur"",""38"",""664462""
""blur"",""40"",""680565""
""blur"",""40"",""689332""
""blur"",""42"",""931591""
""blur"",""44"",""962252""
""blur"",""44"",""987315""
""blur"",""44"",""992551""
","""event"",""trial"",""time""
""focus"",""0"",""0""
""focus"",""0"",""0""
""focus"",""3"",""107991""
""focus"",""5"",""345670""
""focus"",""7"",""359503""
""focus"",""9"",""603470""
""focus"",""38"",""642068""
""focus"",""38"",""661748""
""focus"",""38"",""675156""
""focus"",""40"",""689331""
""focus"",""41"",""915915""
""focus"",""42"",""955156""
""focus"",""44"",""985179""
""focus"",""44"",""990300""
""focus"",""45"",""1018339""
","""event"",""trial"",""time""
""fullscreenenter"",""0"",""888""
","""event"",""trial"",""time""
""fullscreenexit"",""2"",""3933""
","null","<p></p>","null","","","","","","","","","","","","","","","","","","","","","","",""
"","do_trial","55","1050677","0.0-39.0-1.0","""event"",""trial"",""time""
""blur"",""0"",""0""
""focus"",""0"",""0""
""blur"",""0"",""0""
""focus"",""0"",""0""
""fullscreenenter"",""0"",""888""
""fullscreenexit"",""2"",""3933""
""blur"",""2"",""12206""
""focus"",""3"",""107991""
""blur"",""4"",""110073""
""focus"",""5"",""345670""
""blur"",""6"",""352156""
""focus"",""7"",""359503""
""blur"",""8"",""363335""
""focus"",""9"",""603470""
""blur"",""38"",""639764""
""focus"",""38"",""642068""
""blur"",""38"",""643051""
""focus"",""38"",""661748""
""blur"",""38"",""664462""
""focus"",""38"",""675156""
""blur"",""40"",""680565""
""focus"",""40"",""689331""
""blur"",""40"",""689332""
""focus"",""41"",""915915""
""blur"",""42"",""931591""
""focus"",""42"",""955156""
""blur"",""44"",""962252""
""focus"",""44"",""985179""
""blur"",""44"",""987315""
""focus"",""44"",""990300""
""blur"",""44"",""992551""
""focus"",""45"",""1018339""
","""event"",""trial"",""time""
""blur"",""0"",""0""
""blur"",""0"",""0""
""blur"",""2"",""12206""
""blur"",""4"",""110073""
""blur"",""6"",""352156""
""blur"",""8"",""363335""
""blur"",""38"",""639764""
""blur"",""38"",""643051""
""blur"",""38"",""664462""
""blur"",""40"",""680565""
""blur"",""40"",""689332""
""blur"",""42"",""931591""
""blur"",""44"",""962252""
""blur"",""44"",""987315""
""blur"",""44"",""992551""
","""event"",""trial"",""time""
""focus"",""0"",""0""
""focus"",""0"",""0""
""focus"",""3"",""107991""
""focus"",""5"",""345670""
""focus"",""7"",""359503""
""focus"",""9"",""603470""
""focus"",""38"",""642068""
""focus"",""38"",""661748""
""focus"",""38"",""675156""
""focus"",""40"",""689331""
""focus"",""41"",""915915""
""focus"",""42"",""955156""
""focus"",""44"",""985179""
""focus"",""44"",""990300""
""focus"",""45"",""1018339""
","""event"",""trial"",""time""
""fullscreenenter"",""0"",""888""
","""event"",""trial"",""time""
""fullscreenexit"",""2"",""3933""
","239.7800000035204","","","","","","","","49","1,0,0","","","","","","","","","","","","","","","",""
"","do_bye","56","1052185","0.0-40.0-0.0","""event"",""trial"",""time""
""blur"",""0"",""0""
""focus"",""0"",""0""
""blur"",""0"",""0""
""focus"",""0"",""0""
""fullscreenenter"",""0"",""888""
""fullscreenexit"",""2"",""3933""
""blur"",""2"",""12206""
""focus"",""3"",""107991""
""blur"",""4"",""110073""
""focus"",""5"",""345670""
""blur"",""6"",""352156""
""focus"",""7"",""359503""
""blur"",""8"",""363335""
""focus"",""9"",""603470""
""blur"",""38"",""639764""
""focus"",""38"",""642068""
""blur"",""38"",""643051""
""focus"",""38"",""661748""
""blur"",""38"",""664462""
""focus"",""38"",""675156""
""blur"",""40"",""680565""
""focus"",""40"",""689331""
""blur"",""40"",""689332""
""focus"",""41"",""915915""
""blur"",""42"",""931591""
""focus"",""42"",""955156""
""blur"",""44"",""962252""
""focus"",""44"",""985179""
""blur"",""44"",""987315""
""focus"",""44"",""990300""
""blur"",""44"",""992551""
""focus"",""45"",""1018339""
","""event"",""trial"",""time""
""blur"",""0"",""0""
""blur"",""0"",""0""
""blur"",""2"",""12206""
""blur"",""4"",""110073""
""blur"",""6"",""352156""
""blur"",""8"",""363335""
""blur"",""38"",""639764""
""blur"",""38"",""643051""
""blur"",""38"",""664462""
""blur"",""40"",""680565""
""blur"",""40"",""689332""
""blur"",""42"",""931591""
""blur"",""44"",""962252""
""blur"",""44"",""987315""
""blur"",""44"",""992551""
","""event"",""trial"",""time""
""focus"",""0"",""0""
""focus"",""0"",""0""
""focus"",""3"",""107991""
""focus"",""5"",""345670""
""focus"",""7"",""359503""
""focus"",""9"",""603470""
""focus"",""38"",""642068""
""focus"",""38"",""661748""
""focus"",""38"",""675156""
""focus"",""40"",""689331""
""focus"",""41"",""915915""
""focus"",""42"",""955156""
""focus"",""44"",""985179""
""focus"",""44"",""990300""
""focus"",""45"",""1018339""
","""event"",""trial"",""time""
""fullscreenenter"",""0"",""888""
","""event"",""trial"",""time""
""fullscreenexit"",""2"",""3933""
","null","","","","","","","","null","","","","","","","","","","","","","","","","",""
"","do_travel","57","1061194","0.0-40.0-1.0","""event"",""trial"",""time""
""blur"",""0"",""0""
""focus"",""0"",""0""
""blur"",""0"",""0""
""focus"",""0"",""0""
""fullscreenenter"",""0"",""888""
""fullscreenexit"",""2"",""3933""
""blur"",""2"",""12206""
""focus"",""3"",""107991""
""blur"",""4"",""110073""
""focus"",""5"",""345670""
""blur"",""6"",""352156""
""focus"",""7"",""359503""
""blur"",""8"",""363335""
""focus"",""9"",""603470""
""blur"",""38"",""639764""
""focus"",""38"",""642068""
""blur"",""38"",""643051""
""focus"",""38"",""661748""
""blur"",""38"",""664462""
""focus"",""38"",""675156""
""blur"",""40"",""680565""
""focus"",""40"",""689331""
""blur"",""40"",""689332""
""focus"",""41"",""915915""
""blur"",""42"",""931591""
""focus"",""42"",""955156""
""blur"",""44"",""962252""
""focus"",""44"",""985179""
""blur"",""44"",""987315""
""focus"",""44"",""990300""
""blur"",""44"",""992551""
""focus"",""45"",""1018339""
","""event"",""trial"",""time""
""blur"",""0"",""0""
""blur"",""0"",""0""
""blur"",""2"",""12206""
""blur"",""4"",""110073""
""blur"",""6"",""352156""
""blur"",""8"",""363335""
""blur"",""38"",""639764""
""blur"",""38"",""643051""
""blur"",""38"",""664462""
""blur"",""40"",""680565""
""blur"",""40"",""689332""
""blur"",""42"",""931591""
""blur"",""44"",""962252""
""blur"",""44"",""987315""
""blur"",""44"",""992551""
","""event"",""trial"",""time""
""focus"",""0"",""0""
""focus"",""0"",""0""
""focus"",""3"",""107991""
""focus"",""5"",""345670""
""focus"",""7"",""359503""
""focus"",""9"",""603470""
""focus"",""38"",""642068""
""focus"",""38"",""661748""
""focus"",""38"",""675156""
""focus"",""40"",""689331""
""focus"",""41"",""915915""
""focus"",""42"",""955156""
""focus"",""44"",""985179""
""focus"",""44"",""990300""
""focus"",""45"",""1018339""
","""event"",""trial"",""time""
""fullscreenenter"",""0"",""888""
","""event"",""trial"",""time""
""fullscreenexit"",""2"",""3933""
","null","","","","","","","","null","","","","","","","","","","","","","","","","",""
"","do_welcome","58","1065201","0.0-40.0-2.0","""event"",""trial"",""time""
""blur"",""0"",""0""
""focus"",""0"",""0""
""blur"",""0"",""0""
""focus"",""0"",""0""
""fullscreenenter"",""0"",""888""
""fullscreenexit"",""2"",""3933""
""blur"",""2"",""12206""
""focus"",""3"",""107991""
""blur"",""4"",""110073""
""focus"",""5"",""345670""
""blur"",""6"",""352156""
""focus"",""7"",""359503""
""blur"",""8"",""363335""
""focus"",""9"",""603470""
""blur"",""38"",""639764""
""focus"",""38"",""642068""
""blur"",""38"",""643051""
""focus"",""38"",""661748""
""blur"",""38"",""664462""
""focus"",""38"",""675156""
""blur"",""40"",""680565""
""focus"",""40"",""689331""
""blur"",""40"",""689332""
""focus"",""41"",""915915""
""blur"",""42"",""931591""
""focus"",""42"",""955156""
""blur"",""44"",""962252""
""focus"",""44"",""985179""
""blur"",""44"",""987315""
""focus"",""44"",""990300""
""blur"",""44"",""992551""
""focus"",""45"",""1018339""
","""event"",""trial"",""time""
""blur"",""0"",""0""
""blur"",""0"",""0""
""blur"",""2"",""12206""
""blur"",""4"",""110073""
""blur"",""6"",""352156""
""blur"",""8"",""363335""
""blur"",""38"",""639764""
""blur"",""38"",""643051""
""blur"",""38"",""664462""
""blur"",""40"",""680565""
""blur"",""40"",""689332""
""blur"",""42"",""931591""
""blur"",""44"",""962252""
""blur"",""44"",""987315""
""blur"",""44"",""992551""
","""event"",""trial"",""time""
""focus"",""0"",""0""
""focus"",""0"",""0""
""focus"",""3"",""107991""
""focus"",""5"",""345670""
""focus"",""7"",""359503""
""focus"",""9"",""603470""
""focus"",""38"",""642068""
""focus"",""38"",""661748""
""focus"",""38"",""675156""
""focus"",""40"",""689331""
""focus"",""41"",""915915""
""focus"",""42"",""955156""
""focus"",""44"",""985179""
""focus"",""44"",""990300""
""focus"",""45"",""1018339""
","""event"",""trial"",""time""
""fullscreenenter"",""0"",""888""
","""event"",""trial"",""time""
""fullscreenexit"",""2"",""3933""
","null","","","","","","","","null","","","","","","","","","","","","","","","","",""
"","do_trial","59","1070138","0.0-40.0-3.0","""event"",""trial"",""time""
""blur"",""0"",""0""
""focus"",""0"",""0""
""blur"",""0"",""0""
""focus"",""0"",""0""
""fullscreenenter"",""0"",""888""
""fullscreenexit"",""2"",""3933""
""blur"",""2"",""12206""
""focus"",""3"",""107991""
""blur"",""4"",""110073""
""focus"",""5"",""345670""
""blur"",""6"",""352156""
""focus"",""7"",""359503""
""blur"",""8"",""363335""
""focus"",""9"",""603470""
""blur"",""38"",""639764""
""focus"",""38"",""642068""
""blur"",""38"",""643051""
""focus"",""38"",""661748""
""blur"",""38"",""664462""
""focus"",""38"",""675156""
""blur"",""40"",""680565""
""focus"",""40"",""689331""
""blur"",""40"",""689332""
""focus"",""41"",""915915""
""blur"",""42"",""931591""
""focus"",""42"",""955156""
""blur"",""44"",""962252""
""focus"",""44"",""985179""
""blur"",""44"",""987315""
""focus"",""44"",""990300""
""blur"",""44"",""992551""
""focus"",""45"",""1018339""
","""event"",""trial"",""time""
""blur"",""0"",""0""
""blur"",""0"",""0""
""blur"",""2"",""12206""
""blur"",""4"",""110073""
""blur"",""6"",""352156""
""blur"",""8"",""363335""
""blur"",""38"",""639764""
""blur"",""38"",""643051""
""blur"",""38"",""664462""
""blur"",""40"",""680565""
""blur"",""40"",""689332""
""blur"",""42"",""931591""
""blur"",""44"",""962252""
""blur"",""44"",""987315""
""blur"",""44"",""992551""
","""event"",""trial"",""time""
""focus"",""0"",""0""
""focus"",""0"",""0""
""focus"",""3"",""107991""
""focus"",""5"",""345670""
""focus"",""7"",""359503""
""focus"",""9"",""603470""
""focus"",""38"",""642068""
""focus"",""38"",""661748""
""focus"",""38"",""675156""
""focus"",""40"",""689331""
""focus"",""41"",""915915""
""focus"",""42"",""955156""
""focus"",""44"",""985179""
""focus"",""44"",""990300""
""focus"",""45"",""1018339""
","""event"",""trial"",""time""
""fullscreenenter"",""0"",""888""
","""event"",""trial"",""time""
""fullscreenexit"",""2"",""3933""
","428.63999999826774","","","","","","","","49","1,0,0","","","","","","","","","","","","","","","",""
"","html-keyboard-response","60","1071144","0.0-41.0-0.0","""event"",""trial"",""time""
""blur"",""0"",""0""
""focus"",""0"",""0""
""blur"",""0"",""0""
""focus"",""0"",""0""
""fullscreenenter"",""0"",""888""
""fullscreenexit"",""2"",""3933""
""blur"",""2"",""12206""
""focus"",""3"",""107991""
""blur"",""4"",""110073""
""focus"",""5"",""345670""
""blur"",""6"",""352156""
""focus"",""7"",""359503""
""blur"",""8"",""363335""
""focus"",""9"",""603470""
""blur"",""38"",""639764""
""focus"",""38"",""642068""
""blur"",""38"",""643051""
""focus"",""38"",""661748""
""blur"",""38"",""664462""
""focus"",""38"",""675156""
""blur"",""40"",""680565""
""focus"",""40"",""689331""
""blur"",""40"",""689332""
""focus"",""41"",""915915""
""blur"",""42"",""931591""
""focus"",""42"",""955156""
""blur"",""44"",""962252""
""focus"",""44"",""985179""
""blur"",""44"",""987315""
""focus"",""44"",""990300""
""blur"",""44"",""992551""
""focus"",""45"",""1018339""
","""event"",""trial"",""time""
""blur"",""0"",""0""
""blur"",""0"",""0""
""blur"",""2"",""12206""
""blur"",""4"",""110073""
""blur"",""6"",""352156""
""blur"",""8"",""363335""
""blur"",""38"",""639764""
""blur"",""38"",""643051""
""blur"",""38"",""664462""
""blur"",""40"",""680565""
""blur"",""40"",""689332""
""blur"",""42"",""931591""
""blur"",""44"",""962252""
""blur"",""44"",""987315""
""blur"",""44"",""992551""
","""event"",""trial"",""time""
""focus"",""0"",""0""
""focus"",""0"",""0""
""focus"",""3"",""107991""
""focus"",""5"",""345670""
""focus"",""7"",""359503""
""focus"",""9"",""603470""
""focus"",""38"",""642068""
""focus"",""38"",""661748""
""focus"",""38"",""675156""
""focus"",""40"",""689331""
""focus"",""41"",""915915""
""focus"",""42"",""955156""
""focus"",""44"",""985179""
""focus"",""44"",""990300""
""focus"",""45"",""1018339""
","""event"",""trial"",""time""
""fullscreenenter"",""0"",""888""
","""event"",""trial"",""time""
""fullscreenexit"",""2"",""3933""
","null","<p></p>","null","","","","","","","","","","","","","","","","","","","","","","",""
"","do_trial","61","1076021","0.0-41.0-1.0","""event"",""trial"",""time""
""blur"",""0"",""0""
""focus"",""0"",""0""
""blur"",""0"",""0""
""focus"",""0"",""0""
""fullscreenenter"",""0"",""888""
""fullscreenexit"",""2"",""3933""
""blur"",""2"",""12206""
""focus"",""3"",""107991""
""blur"",""4"",""110073""
""focus"",""5"",""345670""
""blur"",""6"",""352156""
""focus"",""7"",""359503""
""blur"",""8"",""363335""
""focus"",""9"",""603470""
""blur"",""38"",""639764""
""focus"",""38"",""642068""
""blur"",""38"",""643051""
""focus"",""38"",""661748""
""blur"",""38"",""664462""
""focus"",""38"",""675156""
""blur"",""40"",""680565""
""focus"",""40"",""689331""
""blur"",""40"",""689332""
""focus"",""41"",""915915""
""blur"",""42"",""931591""
""focus"",""42"",""955156""
""blur"",""44"",""962252""
""focus"",""44"",""985179""
""blur"",""44"",""987315""
""focus"",""44"",""990300""
""blur"",""44"",""992551""
""focus"",""45"",""1018339""
","""event"",""trial"",""time""
""blur"",""0"",""0""
""blur"",""0"",""0""
""blur"",""2"",""12206""
""blur"",""4"",""110073""
""blur"",""6"",""352156""
""blur"",""8"",""363335""
""blur"",""38"",""639764""
""blur"",""38"",""643051""
""blur"",""38"",""664462""
""blur"",""40"",""680565""
""blur"",""40"",""689332""
""blur"",""42"",""931591""
""blur"",""44"",""962252""
""blur"",""44"",""987315""
""blur"",""44"",""992551""
","""event"",""trial"",""time""
""focus"",""0"",""0""
""focus"",""0"",""0""
""focus"",""3"",""107991""
""focus"",""5"",""345670""
""focus"",""7"",""359503""
""focus"",""9"",""603470""
""focus"",""38"",""642068""
""focus"",""38"",""661748""
""focus"",""38"",""675156""
""focus"",""40"",""689331""
""focus"",""41"",""915915""
""focus"",""42"",""955156""
""focus"",""44"",""985179""
""focus"",""44"",""990300""
""focus"",""45"",""1018339""
","""event"",""trial"",""time""
""fullscreenenter"",""0"",""888""
","""event"",""trial"",""time""
""fullscreenexit"",""2"",""3933""
","368.24999999953434","","","","","","","","49","1,0,1","","","","","","","","","","","","","","","",""
"","html-keyboard-response","62","1077028","0.0-42.0-0.0","""event"",""trial"",""time""
""blur"",""0"",""0""
""focus"",""0"",""0""
""blur"",""0"",""0""
""focus"",""0"",""0""
