"success","trial_type","trial_index","time_elapsed","internal_node_id","interactions","blur_events","focus_events","fullscreenenter_events","fullscreenexit_events"
"true","fullscreen","0","1608","0.0-0.0","""event"",""trial"",""time""
""fullscreenenter"",""0"",""645""
","
","
","""event"",""trial"",""time""
""fullscreenenter"",""0"",""645""
","
"
"","pavlovia","1","1612","0.0-1.0","""event"",""trial"",""time""
""fullscreenenter"",""0"",""645""
""fullscreenexit"",""2"",""4057""
""blur"",""2"",""5302""
""focus"",""2"",""11534""
""blur"",""2"",""11565""
""focus"",""2"",""16325""
""blur"",""2"",""17085""
""focus"",""2"",""18516""
""blur"",""2"",""18516""
","""event"",""trial"",""time""
""blur"",""2"",""5302""
""blur"",""2"",""11565""
""blur"",""2"",""17085""
""blur"",""2"",""18516""
","""event"",""trial"",""time""
""focus"",""2"",""11534""
""focus"",""2"",""16325""
""focus"",""2"",""18516""
","""event"",""trial"",""time""
""fullscreenenter"",""0"",""645""
","""event"",""trial"",""time""
""fullscreenexit"",""2"",""4057""
"
