"success","trial_type","trial_index","time_elapsed","internal_node_id","rt","stimulus","key_press","subject_id","participant_id","age","gender","prompt","response","choice_outcomes","context_n","context_img_id","trial_n","probe_img_id","pR_red","pR_white","pR_black","outcome","contextArray_ind","validImageProbes","invalidImageProbes","pRew_Red","pRew_White","pRew_Black","availableForMemProbe","choice_blocks"
"true","fullscreen","0","9149","0.0-0.0","","","","","","","","","","","","","","","","","","","","","","","","","",""
"","pavlovia","1","9152","0.0-1.0","","","","","","","","","","","","","","","","","","","","","","","","","",""
"","instruc1","2","65273","0.0-2.0","null","run_exp/static/audio/clip_1_welcome.m4a","null","0","0","8","female","<div class='center'><p>Welcome! This is the first part of the experiment. It will last ~30 minutes. In this experiment, you are the head captain of a pirate ship traveling around the world to different islands. You will play a few different games during this experiment. Here is an overview of these games:</p><br><p>Part 1 (today)</p><p>1. Instructions, practice game, and quiz</p><p>2. Pick a pirate game on 6 different islands</p><br><p>Part 2 (1 day later)</p><p>3. Pick a pirate game and memory game</p><p>4. Where did I see this ship? game</p><p>5. Which pirate was the best? game</p><br><p>Part 3 (1 week later)</p><p>6. Alien space mining game</p><p>7. Memory game</p></div>","","","","","","","","","","","","","","","","","",""
"","html-keyboard-response","3","67592","0.0-3.0","2317.4000000059605","<div class='center'><p>Welcome! This is the first part of the experiment. It will last ~30 minutes. In this experiment, you are the head captain of a pirate ship traveling around the world to different islands. You will play a few different games during this experiment. Here is an overview of these games:</p><br><p>Part 1 (today)</p><p>1. Instructions, practice game, and quiz</p><p>2. Pick a pirate game on 6 different islands</p><br><p>Part 2 (1 day later)</p><p>3. Pick a pirate game and memory game</p><p>4. Where did I see this ship? game</p><p>5. Which pirate was the best? game</p><br><p>Part 3 (1 week later)</p><p>6. Alien space mining game</p><p>7. Memory game</p><p><b>[Press the space bar to continue]</b></p></div>","32","","","","","","","","","","","","","","","","","","","","","","",""
"","instruc2","4","75598","0.0-4.0","null","run_exp/static/audio/clip_2_different_places.m4a","null","","","","","<div class='center'><p>Today, you’ll visit these 6 islands on your journey. You'll be able to see these islands from your ship.</p><p><img src='run_exp/static/images/contexts/all_contexts.png' height='500'></p></div>","","","","","","","","","","","","","","","","","",""
"","html-keyboard-response","5","83074","0.0-5.0","7474.5999999940395","<div class='center'><p>Today, you’ll visit these 6 islands on your journey. You'll be able to see these islands from your ship.</p><p><img src='run_exp/static/images/contexts/all_contexts.png' height='500'></p><p><b>[Press the space bar to continue]</b></p></div>","32","","","","","","","","","","","","","","","","","","","","","","",""
"","instruc3","6","95629","0.0-6.0","null","run_exp/static/audio/clip_3_goal_of_game_1.m4a","null","","","","","<div class='center'><p> The pirates on your ship will rob other ships as they leave the island</p> These ships have just sold their things to people on the island, so they will be filled with lots and lots of gold.</p><p><img src='run_exp/static/images/tutorial/ship_center.png' height='400'></p></div>","","","","","","","","","","","","","","","","","",""
"","html-keyboard-response","7","97391","0.0-7.0","1760.5999999940395","<div class='center'><p> The pirates on your ship will rob other ships as they leave the island</p> These ships have just sold their things to people on the island, so they will be filled with lots and lots of gold.</p><p><img src='run_exp/static/images/tutorial/ship_center.png' height='400'></p><p><b>[Press the space bar to continue]</b></p></div>","32","","","","","","","","","","","","","","","","","","","","","","",""
"","instruc4","8","130616","0.0-8.0","null","run_exp/static/audio/clip_4_goal_of_game_2.m4a","null","","","","","<div class='center'><p>As the head captain, you do not have to rob any ships yourself.</p><p>Another pirate will be doing the robbing for you. </p><p>First, you will  choose a pirate to rob the next ship.</p><p><img src='run_exp/static/images/tutorial/pirates_all_crop.png' height='200'></p><p>Then, you'll see if the pirate successfully robbed the ship of their gold. If they were successful, then you'll  get a stack of gold coins like this:</p><p><img src='run_exp/static/images/tutorial/reward.png' height='150'></p><p> If they were <b>not</b> successful, then you'll get no gold coins, and you'll see a big red x like this: </p><p><img src='run_exp/static/images/tutorial/reward_no.png' height='150'></p><p> How much bonus money you make is based on how many gold coins you collect.</p><div>","","","","","","","","","","","","","","","","","",""
"","html-keyboard-response","9","132477","0.0-9.0","1859.5","<div class='center'><p>As the head captain, you do not have to rob any ships yourself.</p><p>Another pirate will be doing the robbing for you. </p><p>First, you will  choose a pirate to rob the next ship.</p><p><img src='run_exp/static/images/tutorial/pirates_all_crop.png' height='200'></p><p>Then, you'll see if the pirate successfully robbed the ship of their gold. If they were successful, then you'll  get a stack of gold coins like this:</p><p><img src='run_exp/static/images/tutorial/reward.png' height='150'></p><p> If they were <b>not</b> successful, then you'll get no gold coins, and you'll see a big red x like this: </p><p><img src='run_exp/static/images/tutorial/reward_no.png' height='150'></p><p> How much bonus money you make is based on how many gold coins you collect.</p<p><b>[Press the space bar to continue]</b></p></div>","32","","","","","","","","","","","","","","","","","","","","","","",""
"","instruc5","10","160398","0.0-10.0","27920","run_exp/static/audio/clip_5_probabilistic.m4a","49","","","","","<div class='center'><p>Even the most skilled pirate can not rob EVERY ship.</p><p> Some ships will have very strong protections against pirate attacks.</p><p> Blue beard, here, is very, very good at robbing ships, but he won't be successful every time he tries to rob one.</p><p> You can press the <b>‘1’</b> key on the keyboard to choose him.</p><p> Try choosing him 10 times to see how often he succeeds at robbing a ship. </p><p><img src='run_exp/static/images/tutorial/blue.png' height='500'></p></div>","","","","","","","","","","","","","","","","","",""
"","html-keyboard-response","11","161900","0.0-11.0","null","<div class='center'><p><img src='run_exp/static/images/tutorial/blue_win.png' height='500'></p></div>","null","","","","","","","","","","","","","","","","","","","","","","",""
"","html-keyboard-response","12","162153","0.0-12.0","251.79999999701977","<div class='center'><img src='run_exp/static/images/tutorial/blue.png' height='500'></p></div>","49","","","","","","","","","","","","","","","","","","","","","","",""
"","html-keyboard-response","13","163656","0.0-13.0","null","<div class='center'><p><img src='run_exp/static/images/tutorial/blue_win.png' height='500'></p></div>","null","","","","","","","","","","","","","","","","","","","","","","",""
"","html-keyboard-response","14","164430","0.0-14.0","773.2999999970198","<div class='center'><img src='run_exp/static/images/tutorial/blue.png' height='500'></p></div>","49","","","","","","","","","","","","","","","","","","","","","","",""
"","html-keyboard-response","15","165936","0.0-15.0","null","<div class='center'><p><img src='run_exp/static/images/tutorial/blue_win.png' height='500'></p></div>","null","","","","","","","","","","","","","","","","","","","","","","",""
"","html-keyboard-response","16","166538","0.0-16.0","601.4000000059605","<div class='center'><img src='run_exp/static/images/tutorial/blue.png' height='500'></p></div>","49","","","","","","","","","","","","","","","","","","","","","","",""
"","html-keyboard-response","17","168039","0.0-17.0","null","<div class='center'><p><img src='run_exp/static/images/tutorial/blue_no_win.png' height='500'></p></div>","null","","","","","","","","","","","","","","","","","","","","","","",""
"","html-keyboard-response","18","168401","0.0-18.0","360.5","<div class='center'><img src='run_exp/static/images/tutorial/blue.png' height='500'></p></div>","49","","","","","","","","","","","","","","","","","","","","","","",""
"","html-keyboard-response","19","169906","0.0-19.0","null","<div class='center'><p><img src='run_exp/static/images/tutorial/blue_win.png' height='500'></p></div>","null","","","","","","","","","","","","","","","","","","","","","","",""
"","html-keyboard-response","20","170533","0.0-20.0","626.4000000059605","<div class='center'><img src='run_exp/static/images/tutorial/blue.png' height='500'></p></div>","49","","","","","","","","","","","","","","","","","","","","","","",""
"","html-keyboard-response","21","172037","0.0-21.0","null","<div class='center'><p><img src='run_exp/static/images/tutorial/blue_win.png' height='500'></p></div>","null","","","","","","","","","","","","","","","","","","","","","","",""
"","html-keyboard-response","22","172531","0.0-22.0","493","<div class='center'><img src='run_exp/static/images/tutorial/blue.png' height='500'></p></div>","49","","","","","","","","","","","","","","","","","","","","","","",""
"","html-keyboard-response","23","174032","0.0-23.0","null","<div class='center'><p><img src='run_exp/static/images/tutorial/blue_win.png' height='500'></p></div>","null","","","","","","","","","","","","","","","","","","","","","","",""
"","html-keyboard-response","24","174359","0.0-24.0","326.09999999403954","<div class='center'><img src='run_exp/static/images/tutorial/blue.png' height='500'></p></div>","49","","","","","","","","","","","","","","","","","","","","","","",""
"","html-keyboard-response","25","175860","0.0-25.0","null","<div class='center'><p><img src='run_exp/static/images/tutorial/blue_no_win.png' height='500'></p></div>","null","","","","","","","","","","","","","","","","","","","","","","",""
"","html-keyboard-response","26","176191","0.0-26.0","329.5","<div class='center'><img src='run_exp/static/images/tutorial/blue.png' height='500'></p></div>","49","","","","","","","","","","","","","","","","","","","","","","",""
"","html-keyboard-response","27","177694","0.0-27.0","null","<div class='center'><p><img src='run_exp/static/images/tutorial/blue_win.png' height='500'></p></div>","null","","","","","","","","","","","","","","","","","","","","","","",""
"","html-keyboard-response","28","177983","0.0-28.0","288.20000000298023","<div class='center'><img src='run_exp/static/images/tutorial/blue.png' height='500'></p></div>","49","","","","","","","","","","","","","","","","","","","","","","",""
"","html-keyboard-response","29","179486","0.0-29.0","null","<div class='center'><p><img src='run_exp/static/images/tutorial/blue_win.png' height='500'></p></div>","null","","","","","","","","","","","","","","","","","","","","","","",""
"","instruc6","30","186160","0.0-30.0","null","run_exp/static/audio/clip_6_blue_beard_outcome.m4a","null","","","","","<div class='center'><p> See, he succeeded in robbing the ships most of the time but not every time. </p></div>","","","","","","","","","","","","","","","","","",""
"","html-keyboard-response","31","190573","0.0-31.0","4412.79999999702","<div class='center'><p> See, he succeeded in robbing the ships most of the time but not every time. </p><p><b>[Press the space bar to continue]</b></p></div>","32","","","","","","","","","","","","","","","","","","","","","","",""
"","audio-keyboard-response","32","209550","0.0-32.0","18975.5","run_exp/static/audio/clip_7_pick_pirate.m4a","49","","","","","","","","","","","","","","","","","","","","","","",""
"","audio-keyboard-response","33","215995","0.0-33.0-0.0","6444.29999999702","run_exp/static/audio/clip_8_chosen_pirate_win.m4a","32","","","","","","","","","","","","","","","","","","","","","","",""
"","audio-keyboard-response","34","220034","0.0-33.0-1.0","4037.5","run_exp/static/audio/clip_9_pick_a_pirate_again.m4a","51","","","","","","","","","","","","","","","","","","","","","","",""
"","audio-keyboard-response","35","223390","0.0-34.0-0.0","3354.7000000029802","run_exp/static/audio/clip_10_chosen_pirate_loss.m4a","32","","","","","","","","","","","","","","","","","","","","","","",""
"","instruc9","36","230533","0.0-35.0-0.0","null","run_exp/static/audio/clip_11_time_out.m4a","null","","","","","<div class='center'><p>If you don’t make your choice fast enough, you’ll have to wait a few seconds before you can make another one. </p><p><img src='run_exp/static/images/miscellaneous/hurry_up.png' height='500'></p></div>","","","","","","","","","","","","","","","","","",""
"","html-keyboard-response","37","239392","0.0-35.0-1.0","8857.90000000596","<div class='center'><p>If you don’t make your choice fast enough, you’ll have to wait a few seconds before you can make another one. </p><p><img src='run_exp/static/images/miscellaneous/hurry_up.png' height='500'></p><p><b>[Press the space bar to continue]</b></p></div>","32","","","","","","","","","","","","","","","","","","","","","","",""
"","instruc10","38","288004","0.0-35.0-2.0","null","run_exp/static/audio/clip_12_probe.m4a","null","","","","","<div class='center'><p>Once you've choose a pirate, you’ll be shown the ship they are robbing.</p><p>You will never rob the same ship twice. After all, ships that have already been robbed won’t have gold on them. </p><p>Ships can be told apart from one another by the image on them. See, this one has a travel mug on it. </p><p> You’ll have to remember which island you saw each ship on.You will win more bonus money if you remember correctly! To help you remember, you can imagine a story. For example, here, you could imagine a mug full of water in the desert. Or, as another example, if on the forest island, your pirate robbed a ship with an apple on it, you could imagine an apple falling from a tree in the forest. </p><p><img src='run_exp/static/images/tutorial/example_probe.png' height='500'></p></div>","","","","","","","","","","","","","","","","","",""
"","html-keyboard-response","39","321483","0.0-35.0-3.0","33478","<div class='center'><p>Once you've choose a pirate, you’ll be shown the ship they are robbing.</p><p>You will never rob the same ship twice. After all, ships that have already been robbed won’t have gold on them. </p><p>Ships can be told apart from one another by the image on them. See, this one has a travel mug on it. </p><p> You’ll have to remember which island you saw each ship on.You will win more bonus money if you remember correctly! To help you remember, you can imagine a story. For example, here, you could imagine a mug full of water in the desert. Or, as another example, if on the forest island, your pirate robbed a ship with an apple on it, you could imagine an apple falling from a tree in the forest. </p><p><img src='run_exp/static/images/tutorial/example_probe.png' height='500'></p><p><b>[Press the space bar to continue]</b></p></div>","32","","","","","","","","","","","","","","","","","","","","","","",""
"","instruc11","40","342411","0.0-35.0-4.0","null","run_exp/static/audio/clip_13_changepoint.m4a","null","","","","","<div class='center'><p>How successful a pirate is at robbing ships will depend on the island you’re on.</p><p> A pirate may have visited this island many times before and gained a lot of practice robbing ships there.</p><p>So, they’re more likely to be successful than a pirate who has never visited the island before.</p></div>","","","","","","","","","","","","","","","","","",""
"","html-keyboard-response","41","343412","0.0-35.0-5.0","1000.4000000059605","<div class='center'><p>How successful a pirate is at robbing ships will depend on the island you’re on.</p><p> A pirate may have visited this island many times before and gained a lot of practice robbing ships there.</p><p>So, they’re more likely to be successful than a pirate who has never visited the island before.</p><p><b>[Press the space bar to continue]</b></p></div>","32","","","","","","","","","","","","","","","","","","","","","","",""
"","instruc12","42","371424","0.0-35.0-6.0","null","run_exp/static/audio/clip_14_drift.m4a","null","","","","","<div class='center'><p>How successful a pirate is at robbing ships can also change over the time spent on the island. </p><p> Ships may hear from islanders about the pirates coming and will improve their protections against the attack. This may make it harder to rob them.</p><p> Ships may also become lazy and weaken the strength of their protections. This may make it easier to rob them.</p><br><p>Things are always changing on the high seas! So, try your best to pay attention!</p><p><img src='run_exp/static/images/tutorial/contingency.png' height='500'></p></div>","","","","","","","","","","","","","","","","","",""
"","html-keyboard-response","43","389140","0.0-35.0-7.0","17715.5","<div class='center'><p>How successful a pirate is at robbing ships can also change over the time spent on the island. </p><p> Ships may hear from islanders about the pirates coming and will improve their protections against the attack. This may make it harder to rob them.</p><p> Ships may also become lazy and weaken the strength of their protections. This may make it easier to rob them.</p><br><p>Things are always changing on the high seas! So, try your best to pay attention!</p><p><img src='run_exp/static/images/tutorial/contingency.png' height='500'></p><p><b>[Press the space bar to continue]</b></p></div>","32","","","","","","","","","","","","","","","","","","","","","","",""
"","instruc13","44","433814","0.0-35.0-8.0","null","run_exp/static/audio/clip_15_summary.m4a","null","","","","","<div class='center'><p>Let's go over the instructions quickly again. You have two important things to do: </p><b><p> 1. Pick the pirate who is the best at robbing ships on the current island. This way you'll collect more gold coins!</p></b><b><p> 2. Remember on which island a ship was robbed.</p> </b><p>The amount of bonus money you can win depends on both.</p><p><br><p>Let’s try a practice game. The game will start by showing you the pirates. First, pick a pirate using the <b> 1, 2, 3 </b> keys on your keyboard. When you are shown a ship, try to remember which island you’re on by making up a story.</p><p>This is just a practice game, so you’re not playing for money. </p><p> Good luck!</p></div>","","","","","","","","","","","","","","","","","",""
"","html-keyboard-response","45","434151","0.0-35.0-9.0","335.79999999701977","<div class='center'><p>Let's go over the instructions quickly again. You have two important things to do: </p><b><p> 1. Pick the pirate who is the best at robbing ships on the current island. This way you'll collect more gold coins!</p></b><b><p> 2. Remember on which island a ship was robbed.</p> </b><p>The amount of bonus money you can win depends on both.</p><p><br><p>Let’s try a practice game. The game will start by showing you the pirates. First, pick a pirate using the <b> 1, 2, 3 </b> keys on your keyboard. When you are shown a ship, try to remember which island you’re on by making up a story.</p><p>This is just a practice game, so you’re not playing for money. </p><p> Good luck!</p><p><b>[Press the space bar to continue]</b></p></div>","32","","","","","","","","","","","","","","","","","","","","","","",""
"","do_welcome","46","435661","0.0-35.0-10.0","null","","","","","","","","null","","","","","","","","","","","","","","","","",""
"","do_trial","47","441677","0.0-35.0-11.0","null","","","","","","","","null","1,0,0","","","","","","","","","","","","","","","",""
"","html-keyboard-response","48","442681","0.0-36.0-0.0","null","<p></p>","null","","","","","","","","","","","","","","","","","","","","","","",""
"","do_trial","49","448407","0.0-36.0-1.0","1218.2999999970198","","","","","","","","49","1,0,0","","","","","","","","","","","","","","","",""
"","html-keyboard-response","50","449412","0.0-37.0-0.0","null","<p></p>","null","","","","","","","","","","","","","","","","","","","","","","",""
"","do_trial","51","455156","0.0-37.0-1.0","1235.9000000059605","","","","","","","","50","1,1,0","","","","","","","","","","","","","","","",""
"","html-keyboard-response","52","456157","0.0-38.0-0.0","null","<p></p>","null","","","","","","","","","","","","","","","","","","","","","","",""
"","do_trial","53","461560","0.0-38.0-1.0","895.2000000029802","","","","","","","","51","1,0,1","","","","","","","","","","","","","","","",""
"","html-keyboard-response","54","462567","0.0-39.0-0.0","null","<p></p>","null","","","","","","","","","","","","","","","","","","","","","","",""
"","do_trial","55","468403","0.0-39.0-1.0","1328.8999999910593","","","","","","","","49","0,1,0","","","","","","","","","","","","","","","",""
"","html-keyboard-response","56","469405","0.0-40.0-0.0","null","<p></p>","null","","","","","","","","","","","","","","","","","","","","","","",""
"","do_trial","57","474974","0.0-40.0-1.0","1060.8999999910593","","","","","","","","49","1,0,0","","","","","","","","","","","","","","","",""
"","do_bye","58","476484","0.0-41.0-0.0","null","","","","","","","","null","","","","","","","","","","","","","","","","",""
"","do_travel","59","482487","0.0-41.0-1.0","null","","","","","","","","null","","","","","","","","","","","","","","","","",""
"","do_welcome","60","483995","0.0-41.0-2.0","null","","","","","","","","null","","","","","","","","","","","","","","","","",""
"","do_trial","61","490616","0.0-41.0-3.0","2110.7999999970198","","","","","","","","49","1,0,0","","","","","","","","","","","","","","","",""
"","html-keyboard-response","62","491623","0.0-42.0-0.0","null","<p></p>","null","","","","","","","","","","","","","","","","","","","","","","",""
"","do_trial","63","496773","0.0-42.0-1.0","639.7999999970198","","","","","","","","50","1,0,1","","","","","","","","","","","","","","","",""
"","html-keyboard-response","64","497777","0.0-43.0-0.0","null","<p></p>","null","","","","","","","","","","","","","","","","","","","","","","",""
"","do_trial","65","502728","0.0-43.0-1.0","444.29999999701977","","","","","","","","50","1,1,0","","","","","","","","","","","","","","","",""
"","html-keyboard-response","66","503731","0.0-44.0-0.0","null","<p></p>","null","","","","","","","","","","","","","","","","","","","","","","",""
"","do_trial","67","508778","0.0-44.0-1.0","536.7000000029802","","","","","","","","51","0,0,1","","","","","","","","","","","","","","","",""
"","html-keyboard-response","68","509780","0.0-45.0-0.0","null","<p></p>","null","","","","","","","","","","","","","","","","","","","","","","",""
"","do_trial","69","515899","0.0-45.0-1.0","1609.9000000059605","","","","","","","","50","1,0,1","","","","","","","","","","","","","","","",""
"","html-keyboard-response","70","519407","0.0-46.0-0.0","3506.1000000089407","<div class='center'><p><img src='run_exp/static/images/tutorial/prac_best_pirate.png'  height='500'></p></div>","51","","","","","","","","","","","","","","","","","","","","","","",""
"","html-keyboard-response","71","523149","0.0-47.0-0.0","3741.2999999970198","<div class='center'><p>That's incorrect! Red beard was the best.</p><p><b>[Press the space bar to continue]</b></p></div>","32","","","","","","","","","","","","","","","","","","","","","","",""
"","html-keyboard-response","72","527130","0.0-47.0-1.0","3980","<div class='center'><p><img src='run_exp/static/images/tutorial/prac_source.png'  height='500'></p></div>","50","","","","","","","","","","","","","","","","","","","","","","",""
"","html-keyboard-response","73","529221","0.0-48.0-0.0","2090.1000000089407","<div class='center'><p>That's correct! You saw this ship on the cavern island.</p><p><b>[Press the space bar to continue]</b></p></div>","32","","","","","","","","","","","","","","","","","","","","","","",""
"","quiz_beginning","74","542679","0.0-48.0-1.0","null","run_exp/static/audio/clip_16_quiz_intro.m4a","null","","","","","<div class='center'><p>Good job on the practice game! Now, you will be asked some true or false questions to make sure you really understand the rules of the game.</p><p> Press <b>'1'</b> on the keyboard for true and press <b>'2'</b> for false.</p></div>","","","","","","","","","","","","","","","","","",""
"","audio-keyboard-response","75","628309","0.0-48.0-2.0","85629.20000000298","run_exp/static/audio/clip_17_q1.m4a","49","","","","","","","","","","","","","","","","","","","","","","",""
"","q1_err","76","635963","0.0-49.0-0.0","null","run_exp/static/audio/clip_19_wrong_q1.m4a","null","","","","","<div class='center'><p>That’s incorrect! You win bonus money by collecting as many gold coins as possible!</p></div>","","","","","","","","","","","","","","","","","",""
"","html-keyboard-response","77","637582","0.0-49.0-1.0","1617.7000000029802","<div class='center'><p>That’s incorrect! You win bonus money by collecting as many gold coins as possible!</p><p><b>[Press the space bar to continue]</b></p></div>","32","","","","","","","","","","","","","","","","","","","","","","",""
"","audio-keyboard-response","78","646200","0.0-49.0-2.0","8617.40000000596","run_exp/static/audio/clip_20_q2.m4a","50","","","","","","","","","","","","","","","","","","","","","","",""
"","correct","79","649169","0.0-50.0-0.0","null","run_exp/static/audio/clip_18_correct.m4a","null","","","","","<div class='center'><p>That's correct!</p></div>","","","","","","","","","","","","","","","","","",""
"","html-keyboard-response","80","650210","0.0-50.0-1.0","1041","<div class='center'><p>That's correct!</p><p><b>[Press the space bar to continue]</b></p></div>","32","","","","","","","","","","","","","","","","","","","","","","",""
"","audio-keyboard-response","81","658367","0.0-50.0-2.0","8156.0999999940395","run_exp/static/audio/clip_22_q3.m4a","50","","","","","","","","","","","","","","","","","","","","","","",""
"","correct","82","661328","0.0-51.0-0.0","null","run_exp/static/audio/clip_18_correct.m4a","null","","","","","<div class='center'><p>That's correct!</p></div>","","","","","","","","","","","","","","","","","",""
"","html-keyboard-response","83","661927","0.0-51.0-1.0","598","<div class='center'><p>That's correct!</p><p><b>[Press the space bar to continue]</b></p></div>","32","","","","","","","","","","","","","","","","","","","","","","",""
"","audio-keyboard-response","84","666556","0.0-51.0-2.0","4628","run_exp/static/audio/clip_24_q4.m4a","49","","","","","","","","","","","","","","","","","","","","","","",""
"","correct","85","669520","0.0-52.0-0.0","null","run_exp/static/audio/clip_18_correct.m4a","null","","","","","<div class='center'><p>That's correct!</p></div>","","","","","","","","","","","","","","","","","",""
"","html-keyboard-response","86","669970","0.0-52.0-1.0","449.5","<div class='center'><p>That's correct!</p><p><b>[Press the space bar to continue]</b></p></div>","32","","","","","","","","","","","","","","","","","","","","","","",""
"","q_all_err","87","677499","0.0-53.0-0.0","null","run_exp/static/audio/clip_26_quiz_redo.m4a","null","","","","","<div class='center'><p>Oops, you missed some questions. Now that you’ve heard the correct answers. Try the quiz again! </p></div>","","","","","","","","","","","","","","","","","",""
"","html-keyboard-response","88","678044","0.0-53.0-1.0","544","<div class='center'><p>Oops, you missed some questions. Now that you’ve heard the correct answers. Try the quiz again! </p><p><b>[Press the space bar to continue]</b></p></div>","32","","","","","","","","","","","","","","","","","","","","","","",""
"","audio-keyboard-response","89","687297","0.0-53.0-2.0","9252.39999999106","run_exp/static/audio/clip_17_q1.m4a","50","","","","","","","","","","","","","","","","","","","","","","",""
"","correct","90","690256","0.0-54.0-0.0","null","run_exp/static/audio/clip_18_correct.m4a","null","","","","","<div class='center'><p>That's correct!</p></div>","","","","","","","","","","","","","","","","","",""
"","html-keyboard-response","91","696656","0.0-54.0-1.0","6400.20000000298","<div class='center'><p>That's correct!</p><p><b>[Press the space bar to continue]</b></p></div>","32","","","","","","","","","","","","","","","","","","","","","","",""
"","audio-keyboard-response","92","703540","0.0-54.0-2.0","6883.100000008941","run_exp/static/audio/clip_20_q2.m4a","50","","","","","","","","","","","","","","","","","","","","","","",""
"","correct","93","706491","0.0-55.0-0.0","null","run_exp/static/audio/clip_18_correct.m4a","null","","","","","<div class='center'><p>That's correct!</p></div>","","","","","","","","","","","","","","","","","",""
"","html-keyboard-response","94","710015","0.0-55.0-1.0","3523.5999999940395","<div class='center'><p>That's correct!</p><p><b>[Press the space bar to continue]</b></p></div>","32","","","","","","","","","","","","","","","","","","","","","","",""
"","audio-keyboard-response","95","715827","0.0-55.0-2.0","5811.300000011921","run_exp/static/audio/clip_22_q3.m4a","50","","","","","","","","","","","","","","","","","","","","","","",""
"","correct","96","718778","0.0-56.0-0.0","null","run_exp/static/audio/clip_18_correct.m4a","null","","","","","<div class='center'><p>That's correct!</p></div>","","","","","","","","","","","","","","","","","",""
"","html-keyboard-response","97","719200","0.0-56.0-1.0","421.40000000596046","<div class='center'><p>That's correct!</p><p><b>[Press the space bar to continue]</b></p></div>","32","","","","","","","","","","","","","","","","","","","","","","",""
"","audio-keyboard-response","98","721053","0.0-56.0-2.0","1851.5","run_exp/static/audio/clip_24_q4.m4a","49","","","","","","","","","","","","","","","","","","","","","","",""
"","correct","99","724048","0.0-57.0-0.0","null","run_exp/static/audio/clip_18_correct.m4a","null","","","","","<div class='center'><p>That's correct!</p></div>","","","","","","","","","","","","","","","","","",""
"","html-keyboard-response","100","724449","0.0-57.0-1.0","400.30000001192093","<div class='center'><p>That's correct!</p><p><b>[Press the space bar to continue]</b></p></div>","32","","","","","","","","","","","","","","","","","","","","","","",""
"","q_all_corr","101","731429","0.0-58.0-0.0","null","run_exp/static/audio/clip_27_quiz_all_correct.m4a","null","","","","","<div class='center'><p>Good job! You’re now ready to move on to the real game!</p></div>","","","","","","","","","","","","","","","","","",""
"","html-keyboard-response","102","732007","0.0-58.0-1.0","576.7000000029802","<div class='center'><p>Good job! You’re now ready to move on to the real game!</p><p><b>[Press the space bar to continue]</b></p></div>","32","","","","","","","","","","","","","","","","","","","","","","",""
"","do_welcome","103","733512","0.0-59.0-0.0","null","","","","","","","","null","","","","","","","","","","","","","","","","",""
"","do_trial","104","738930","0.0-60.0-0.0","876.7999999970198","","","","","","","","49","1,1,0","0","highway","0","probe-164","0.6","0.3","0.1","1","","","","","","","",""
"","html-keyboard-response","105","739936","0.0-60.0-1.0","null","<p></p>","null","","","","","","","","","","","","","","","","","","","","","","",""
"","do_trial","106","746072","0.0-61.0-0.0","1592.9000000059605","","","","","","","","51","0,1,0","0","highway","1","probe-42","0.5644222899071941","0.26141453550433863","0.09095585238458462","0","","","","","","","",""
"","html-keyboard-response","107","747078","0.0-61.0-1.0","null","<p></p>","null","","","","","","","","","","","","","","","","","","","","","","",""
"","do_trial","108","752193","0.0-62.0-0.0","572","","","","","","","","51","1,0,0","0","highway","2","probe-40","0.5271418603048644","0.2558628319680026","0.12552234307059812","0","","","","","","","",""
"","html-keyboard-response","109","753196","0.0-62.0-1.0","null","<p></p>","null","","","","","","","","","","","","","","","","","","","","","","",""
"","do_trial","110","759141","0.0-63.0-0.0","1408.2999999970198","","","","","","","","49","0,0,0","0","highway","3","probe-25","0.5476410328941124","0.29573528287936707","0.1294294887150189","0","","","","","","","",""
"","html-keyboard-response","111","760145","0.0-63.0-1.0","null","<p></p>","null","","","","","","","","","","","","","","","","","","","","","","",""
"","do_trial","112","765100","0.0-64.0-0.0","412.1000000089407","","","","","","","","50","1,0,0","0","highway","4","probe-135","0.49736260128576876","0.3814255462969917","0.05525701710437658","0","","","","","","","",""
"","html-keyboard-response","113","766107","0.0-64.0-1.0","null","<p></p>","null","","","","","","","","","","","","","","","","","","","","","","",""
"","do_trial","114","771049","0.0-65.0-0.0","400.79999999701977","","","","","","","","49","1,1,1","0","highway","5","probe-58","0.5668421600659366","0.34401644602358594","0.14415023076465855","1","","","","","","","",""
"","html-keyboard-response","115","772056","0.0-65.0-1.0","null","<p></p>","null","","","","","","","","","","","","","","","","","","","","","","",""
"","do_trial","116","777528","0.0-66.0-0.0","927.5","","","","","","","","49","1,1,0","0","highway","6","probe-134","0.48397982952193885","0.3653292750909787","0.08838616242057194","1","","","","","","","",""
"","html-keyboard-response","117","778534","0.0-66.0-1.0","null","<p></p>","null","","","","","","","","","","","","","","","","","","","","","","",""
"","do_trial","118","783956","0.0-67.0-0.0","878.9000000059605","","","","","","","","49","1,0,1","0","highway","7","probe-127","0.47417534455739485","0.3168122744300994","0.16314967534329078","1","","","","","","","",""
"","html-keyboard-response","119","784962","0.0-67.0-1.0","null","<p></p>","null","","","","","","","","","","","","","","","","","","","","","","",""
"","do_trial","120","790173","0.0-68.0-0.0","667","","","","","","","","49","0,0,0","0","highway","8","probe-09","0.5141886232543977","0.2149562057911326","0.14572157438162317","0","","","","","","","",""
"","html-keyboard-response","121","791177","0.0-68.0-1.0","null","<p></p>","null","","","","","","","","","","","","","","","","","","","","","","",""
"","do_trial","122","796608","0.0-69.0-0.0","886.8999999910593","","","","","","","","50","1,0,0","0","highway","9","probe-226","0.5821489090111217","0.23745172005494408","0.06864141497661246","0","","","","","","","",""
"","html-keyboard-response","123","797614","0.0-69.0-1.0","null","<p></p>","null","","","","","","","","","","","","","","","","","","","","","","",""
"","do_trial","124","802888","0.0-70.0-0.0","734.1999999880791","","","","","","","","49","0,1,1","0","highway","10","probe-221","0.5995693042005267","0.4102738536056233","0.18059219212973368","0","","","","","","","",""
"","html-keyboard-response","125","803890","0.0-70.0-1.0","null","<p></p>","null","","","","","","","","","","","","","","","","","","","","","","",""
"","do_trial","126","809267","0.0-71.0-0.0","834.5","","","","","","","","49","1,1,0","0","highway","11","probe-68","0.5155783233732507","0.4286363918148232","0.09656209990616073","1","","","","","","","",""
"","html-keyboard-response","127","810268","0.0-71.0-1.0","null","<p></p>","null","","","","","","","","","","","","","","","","","","","","","","",""
"","do_trial","128","816253","0.0-72.0-0.0","1446.1000000089407","","","","","","","","51","1,1,0","0","highway","12","probe-75","0.6267267893345873","0.37127239758473773","0.13814606898432133","0","","","","","","","",""
"","html-keyboard-response","129","817259","0.0-72.0-1.0","null","<p></p>","null","","","","","","","","","","","","","","","","","","","","","","",""
"","do_trial","130","822523","0.0-73.0-0.0","722.6999999880791","","","","","","","","49","0,0,0","0","highway","13","probe-122","0.6247337451776753","0.2861949392999209","0.08827811657582482","0","","","","","","","",""
"","html-keyboard-response","131","823525","0.0-73.0-1.0","null","<p></p>","null","","","","","","","","","","","","","","","","","","","","","","",""
"","do_trial","132","828577","0.0-74.0-0.0","513.7999999970198","","","","","","","","49","0,0,0","0","highway","14","probe-33","0.481270848548195","0.23695343424851845","0.18124713326996847","0","","","","","","","",""
"","html-keyboard-response","133","829581","0.0-74.0-1.0","null","<p></p>","null","","","","","","","","","","","","","","","","","","","","","","",""
"","do_trial","134","834119","0.0-75.0-0.0","0.09999999403953552","","","","","","","","50","1,0,0","0","highway","15","probe-143","0.551417472853912","0.28515403361962294","0.16933563336148802","0","","","","","","","",""
"","html-keyboard-response","135","835121","0.0-75.0-1.0","null","<p></p>","null","","","","","","","","","","","","","","","","","","","","","","",""
"","do_trial","136","840997","0.0-76.0-0.0","1340.0999999940395","","","","","","","","51","1,0,0","0","highway","16","probe-229","0.6819380694219984","0.37612713167033157","0.10234831335136332","0","","","","","","","",""
"","html-keyboard-response","137","842003","0.0-76.0-1.0","null","<p></p>","null","","","","","","","","","","","","","","","","","","","","","","",""
"","do_trial","138","847066","0.0-77.0-0.0","526.5","","","","","","","","49","1,0,0","0","highway","17","probe-144","0.6908594615888837","0.37061145106370563","0.212317790622768","1","","","","","","","",""
"","html-keyboard-response","139","848072","0.0-77.0-1.0","null","<p></p>","null","","","","","","","","","","","","","","","","","","","","","","",""
"","do_trial","140","853471","0.0-78.0-0.0","858.0999999940395","","","","","","","","49","1,1,1","0","highway","18","probe-107","0.7377376671333642","0.3435419322016545","0.16135649527689835","1","","","","","","","",""
"","html-keyboard-response","141","854478","0.0-78.0-1.0","null","<p></p>","null","","","","","","","","","","","","","","","","","","","","","","",""
"","do_trial","142","859718","0.0-79.0-0.0","698.2999999970198","","","","","","","","49","1,0,1","0","highway","19","probe-148","0.6944622930694261","0.3523149404544196","0.12286123002527094","1","","","","","","","",""
"","html-keyboard-response","143","860722","0.0-79.0-1.0","null","<p></p>","null","","","","","","","","","","","","","","","","","","","","","","",""
"","do_trial","144","866034","0.0-80.0-0.0","775.2000000029802","","","","","","","","49","1,0,1","0","highway","20","probe-178","0.6897710379855057","0.3058299988095673","0.13097886823496066","1","","","","","","","",""
"","html-keyboard-response","145","867040","0.0-80.0-1.0","null","<p></p>","null","","","","","","","","","","","","","","","","","","","","","","",""
"","do_trial","146","872570","0.0-81.0-0.0","985.0999999940395","","","","","","","","49","0,0,0","0","highway","21","probe-55","0.7024424532617318","0.4406066632130596","0.21870826077197814","0","","","","","","","",""
"","html-keyboard-response","147","873572","0.0-81.0-1.0","null","<p></p>","null","","","","","","","","","","","","","","","","","","","","","","",""
"","do_trial","148","878877","0.0-82.0-0.0","763.3000000119209","","","","","","","","49","1,0,0","0","highway","22","probe-215","0.6461591985727115","0.478815224930621","0.18723629490772697","1","","","","","","","",""
"","html-keyboard-response","149","879883","0.0-82.0-1.0","null","<p></p>","null","","","","","","","","","","","","","","","","","","","","","","",""
"","do_trial","150","886276","0.0-83.0-0.0","1847.800000011921","","","","","","","","51","0,0,0","0","highway","23","probe-172","0.7104518792991499","0.381818620204383","0.05912283815350488","0","","","","","","","",""
"","html-keyboard-response","151","887282","0.0-83.0-1.0","null","<p></p>","null","","","","","","","","","","","","","","","","","","","","","","",""
"","do_trial","152","892418","0.0-84.0-0.0","593.6000000089407","","","","","","","","49","0,0,0","0","highway","24","probe-74","0.8186862953536067","0.3349503292887159","0.059734182323260006","0","","","","","","","",""
"","html-keyboard-response","153","893424","0.0-84.0-1.0","null","<p></p>","null","","","","","","","","","","","","","","","","","","","","","","",""
"","do_trial","154","898611","0.0-85.0-0.0","645","","","","","","","","50","0,0,0","0","highway","25","probe-183","0.575898963643553","0.26627210607682394","0.16798107577687355","0","","","","","","","",""
"","html-keyboard-response","155","899613","0.0-85.0-1.0","null","<p></p>","null","","","","","","","","","","","","","","","","","","","","","","",""
"","do_trial","156","904581","0.0-86.0-0.0","427.20000000298023","","","","","","","","49","0,0,0","0","highway","26","probe-89","0.6199288100381263","0.4785946165794161","0.08703675373865878","0","","","","","","","",""
"","html-keyboard-response","157","905585","0.0-86.0-1.0","null","<p></p>","null","","","","","","","","","","","","","","","","","","","","","","",""
"","do_trial","158","910705","0.0-87.0-0.0","575.2999999970198","","","","","","","","49","1,1,0","0","highway","27","probe-224","0.5887277435692669","0.30164501923226356","0.08267845608312877","1","","","","","","","",""
"","html-keyboard-response","159","911709","0.0-87.0-1.0","null","<p></p>","null","","","","","","","","","","","","","","","","","","","","","","",""
"","do_trial","160","917508","0.0-88.0-0.0","1255.7999999970198","","","","","","","","49","1,0,0","0","highway","28","probe-109","0.47681605534609717","0.24948705656793824","0.20363174526343764","1","","","","","","","",""
"","html-keyboard-response","161","918509","0.0-88.0-1.0","null","<p></p>","null","","","","","","","","","","","","","","","","","","","","","","",""
"","do_trial","162","923950","0.0-89.0-0.0","900.2999999970198","","","","","","","","49","0,1,0","0","highway","29","probe-121","0.48471313393448323","0.31045952926587467","0.15287856347909798","0","","","","","","","",""
"","html-keyboard-response","163","924956","0.0-89.0-1.0","null","<p></p>","null","","","","","","","","","","","","","","","","","","","","","","",""
"","do_bye","164","926461","0.0-90.0-0.0","null","","","","","","","","null","","","","","","","","","","","","","","","","",""
"","do_travel","165","932466","0.0-91.0-0.0","null","","","","","","","","null","","","","","","","","","","","","","","","","",""
"","do_welcome","166","933975","0.0-91.0-1.0","null","","","","","","","","null","","","","","","","","","","","","","","","","",""
"","do_trial","167","939777","0.0-92.0-0.0","1260.7999999970198","","","","","","","","50","1,0,0","1","city","30","probe-39","1","0.2977657018460191","0.26498286429366447","0","","","","","","","",""
"","html-keyboard-response","168","940783","0.0-92.0-1.0","null","<p></p>","null","","","","","","","","","","","","","","","","","","","","","","",""
"","do_trial","169","946163","0.0-93.0-0.0","841.2999999970198","","","","","","","","50","1,0,0","1","city","31","probe-182","1","0.20453681649978778","0.3349443007007886","0","","","","","","","",""
"","html-keyboard-response","170","947165","0.0-93.0-1.0","null","<p></p>","null","","","","","","","","","","","","","","","","","","","","","","",""
"","do_trial","171","952135","0.0-94.0-0.0","426.20000000298023","","","","","","","","51","1,0,0","1","city","32","probe-37","1","0.3597122710194646","0.14276155738477675","0","","","","","","","",""
"","html-keyboard-response","172","953139","0.0-94.0-1.0","null","<p></p>","null","","","","","","","","","","","","","","","","","","","","","","",""
"","do_trial","173","958173","0.0-95.0-0.0","489.79999999701977","","","","","","","","51","1,0,0","1","city","33","probe-136","0.9186858461612389","0.2218808361220204","0.07705763654003156","0","","","","","","","",""
"","html-keyboard-response","174","959176","0.0-95.0-1.0","null","<p></p>","null","","","","","","","","","","","","","","","","","","","","","","",""
"","do_trial","175","964163","0.0-96.0-0.0","446.8999999910593","","","","","","","","49","1,0,0","1","city","34","probe-152","0.8179187599020832","0.11183012071040838","0.06237966306484425","1","","","","","","","",""
"","html-keyboard-response","176","965169","0.0-96.0-1.0","null","<p></p>","null","","","","","","","","","","","","","","","","","","","","","","",""
"","do_trial","177","970265","0.0-97.0-0.0","551.5","","","","","","","","49","1,1,0","1","city","35","probe-212","0.7770177478076566","0.30636926909681467","0.07444543559396016","1","","","","","","","",""
"","html-keyboard-response","178","971272","0.0-97.0-1.0","null","<p></p>","null","","","","","","","","","","","","","","","","","","","","","","",""
"","do_trial","179","976624","0.0-98.0-0.0","808.5","","","","","","","","49","1,0,0","1","city","36","probe-207","0.8033320591971681","0.30396095841393034","0.09427229385923966","1","","","","","","","",""
"","html-keyboard-response","180","977630","0.0-98.0-1.0","null","<p></p>","null","","","","","","","","","","","","","","","","","","","","","","",""
"","do_trial","181","982757","0.0-99.0-0.0","585.7000000029802","","","","","","","","49","1,1,0","1","city","37","probe-227","0.7744772959104133","0.48285922176582474","0.148647602356484","1","","","","","","","",""
"","html-keyboard-response","182","983764","0.0-99.0-1.0","null","<p></p>","null","","","","","","","","","","","","","","","","","","","","","","",""
"","do_trial","183","988872","0.0-100.0-0.0","565.4000000059605","","","","","","","","49","0,0,0","1","city","38","probe-45","0.6663764748005591","0.31369790252313856","0.0586095376862331","0","","","","","","","",""
"","html-keyboard-response","184","989875","0.0-100.0-1.0","null","<p></p>","null","","","","","","","","","","","","","","","","","","","","","","",""
"","do_trial","185","994524","0.0-101.0-0.0","109.79999999701977","","","","","","","","49","1,0,1","1","city","39","probe-203","0.5470011278231042","0.28136605373104645","0.21040839072183454","1","","","","","","","",""
"","html-keyboard-response","186","995527","0.0-101.0-1.0","null","<p></p>","null","","","","","","","","","","","","","","","","","","","","","","",""
"","do_trial","187","1000639","0.0-102.0-0.0","570.3999999910593","","","","","","","","49","1,1,0","1","city","40","probe-71","0.5272945149040683","0.42732365408224904","0.3210818340204395","1","","","","","","","",""
"","html-keyboard-response","188","1001646","0.0-102.0-1.0","null","<p></p>","null","","","","","","","","","","","","","","","","","","","","","","",""
"","do_trial","189","1006928","0.0-103.0-0.0","744.3999999910593","","","","","","","","49","0,0,0","1","city","41","probe-26","0.300675978575883","0.4660152371142278","0.2730203074642104","0","","","","","","","",""
"","html-keyboard-response","190","1007935","0.0-103.0-1.0","null","<p></p>","null","","","","","","","","","","","","","","","","","","","","","","",""
"","do_trial","191","1013015","0.0-104.0-0.0","544.4000000059605","","","","","","","","49","0,1,1","1","city","42","probe-54","0.1390858870091873","0.3391768851110941","0.33525582949709193","0","","","","","","","",""
"","html-keyboard-response","192","1014021","0.0-104.0-1.0","null","<p></p>","null","","","","","","","","","","","","","","","","","","","","","","",""
"","do_trial","193","1019293","0.0-105.0-0.0","730.0999999940395","","","","","","","","50","0,0,1","1","city","43","probe-180","0.08432328164729146","0.24655343953622358","0.33548761661202087","0","","","","","","","",""
"","html-keyboard-response","194","1020295","0.0-105.0-1.0","null","<p></p>","null","","","","","","","","","","","","","","","","","","","","","","",""
"","do_trial","195","1025243","0.0-106.0-0.0","407.70000000298023","","","","","","","","51","0,1,0","1","city","44","probe-120","0.2581082792087161","0.20840258986341947","0.4784684914909469","0","","","","","","","",""
"","html-keyboard-response","196","1026246","0.0-106.0-1.0","null","<p></p>","null","","","","","","","","","","","","","","","","","","","","","","",""
"","do_trial","197","1031502","0.0-107.0-0.0","717.5999999940395","","","","","","","","49","0,0,1","1","city","45","probe-149","0.2601031887120072","0.15517768688057212","0.5637686119852069","0","","","","","","","",""
"","html-keyboard-response","198","1032503","0.0-107.0-1.0","null","<p></p>","null","","","","","","","","","","","","","","","","","","","","","","",""
"","do_trial","199","1037929","0.0-108.0-0.0","890.3999999910593","","","","","","","","49","0,0,1","1","city","46","probe-130","0.31659006812824714","0.1352883509215914","0.545364875083865","0","","","","","","","",""
"","html-keyboard-response","200","1038930","0.0-108.0-1.0","null","<p></p>","null","","","","","","","","","","","","","","","","","","","","","","",""
"","do_trial","201","1043970","0.0-109.0-0.0","497.5","","","","","","","","49","0,0,0","1","city","47","probe-228","0.2616228581369602","0.051231491396813045","0.5935235295289742","0","","","","","","","",""
"","html-keyboard-response","202","1044971","0.0-109.0-1.0","null","<p></p>","null","","","","","","","","","","","","","","","","","","","","","","",""
"","do_trial","203","1049835","0.0-110.0-0.0","330.5","","","","","","","","51","0,0,1","1","city","48","probe-12","0.26706670377484476","0.18580609788880556","0.6352401130208231","1","","","","","","","",""
"","html-keyboard-response","204","1050836","0.0-110.0-1.0","null","<p></p>","null","","","","","","","","","","","","","","","","","","","","","","",""
"","do_trial","205","1056215","0.0-111.0-0.0","843.7000000029802","","","","","","","","51","0,0,1","1","city","49","probe-209","0.3564552782094769","0.13265007291281922","0.4400835229634166","1","","","","","","","",""
"","html-keyboard-response","206","1057216","0.0-111.0-1.0","null","<p></p>","null","","","","","","","","","","","","","","","","","","","","","","",""
"","do_trial","207","1062421","0.0-112.0-0.0","671.7000000029802","","","","","","","","51","0,1,0","1","city","50","probe-83","0.20807058568157977","0.08692307639617954","0.44418805040285836","0","","","","","","","",""
"","html-keyboard-response","208","1063422","0.0-112.0-1.0","null","<p></p>","null","","","","","","","","","","","","","","","","","","","","","","",""
"","do_trial","209","1068124","0.0-113.0-0.0","168.5","","","","","","","","50","0,0,0","1","city","51","probe-61","0.29628021655645437","0.0633071537844557","0.4606029722620322","0","","","","","","","",""
"","html-keyboard-response","210","1069126","0.0-113.0-1.0","null","<p></p>","null","","","","","","","","","","","","","","","","","","","","","","",""
"","do_trial","211","1074566","0.0-114.0-0.0","907.7000000029802","","","","","","","","51","0,0,1","1","city","52","probe-24","0.3004050992780003","0.11641748273716357","0.6092942781979807","1","","","","","","","",""
"","html-keyboard-response","212","1075568","0.0-114.0-1.0","null","<p></p>","null","","","","","","","","","","","","","","","","","","","","","","",""
"","do_trial","213","1080677","0.0-115.0-0.0","571.1000000089407","","","","","","","","51","0,0,1","1","city","53","probe-41","0.20980290703658383","0.16491576550433426","0.6033807007542822","1","","","","","","","",""
"","html-keyboard-response","214","1081680","0.0-115.0-1.0","null","<p></p>","null","","","","","","","","","","","","","","","","","","","","","","",""
"","do_trial","215","1087114","0.0-116.0-0.0","898.2999999970198","","","","","","","","51","0,0,1","1","city","54","probe-116","0.18101948840563345","0.1389526464096869","0.6102183804731118","1","","","","","","","",""
"","html-keyboard-response","216","1088114","0.0-116.0-1.0","null","<p></p>","null","","","","","","","","","","","","","","","","","","","","","","",""
"","do_trial","217","1093464","0.0-117.0-0.0","817.9000000059605","","","","","","","","51","1,1,1","1","city","55","probe-76","0.10195489680423368","0.22019430025620715","0.5791513993277909","1","","","","","","","",""
"","html-keyboard-response","218","1094466","0.0-117.0-1.0","null","<p></p>","null","","","","","","","","","","","","","","","","","","","","","","",""
"","do_trial","219","1099705","0.0-118.0-0.0","706.3999999910593","","","","","","","","51","0,1,0","1","city","56","probe-97","0.11960755410324601","0.10716721642912458","0.5428929861551621","0","","","","","","","",""
"","html-keyboard-response","220","1100711","0.0-118.0-1.0","null","<p></p>","null","","","","","","","","","","","","","","","","","","","","","","",""
"","do_trial","221","1106544","0.0-119.0-0.0","1289.3999999910593","","","","","","","","51","0,1,1","1","city","57","probe-159","0.15342291782861933","0.12538851993723657","0.6137827621040153","1","","","","","","","",""
"","html-keyboard-response","222","1107550","0.0-119.0-1.0","null","<p></p>","null","","","","","","","","","","","","","","","","","","","","","","",""
"","do_trial","223","1112796","0.0-120.0-0.0","706.2999999970198","","","","","","","","51","0,0,1","1","city","58","probe-177","0.176266770784501","0.17578205645162434","0.5424853819646511","1","","","","","","","",""
"","html-keyboard-response","224","1113798","0.0-120.0-1.0","null","<p></p>","null","","","","","","","","","","","","","","","","","","","","","","",""
"","do_trial","225","1119723","0.0-121.0-0.0","1390.199999988079","","","","","","","","51","1,0,0","1","city","59","probe-188","0.2722330902254945","0.17032987332721733","0.5759906531075066","0","","","","","","","",""
"","html-keyboard-response","226","1120729","0.0-121.0-1.0","null","<p></p>","null","","","","","","","","","","","","","","","","","","","","","","",""
"","do_trial","227","1125824","0.0-122.0-0.0","550","","","","","","","","50","1,0,1","1","city","60","probe-171","0.21223046732461687","0.05893278344942624","0.6796896292321941","0","","","","","","","",""
"","html-keyboard-response","228","1126830","0.0-122.0-1.0","null","<p></p>","null","","","","","","","","","","","","","","","","","","","","","","",""
"","do_trial","229","1131803","0.0-123.0-0.0","431","","","","","","","","51","1,0,0","1","city","61","probe-104","0.10679045924361016","0.23652238843887233","0.8072756537214548","0","","","","","","","",""
"","html-keyboard-response","230","1132807","0.0-123.0-1.0","null","<p></p>","null","","","","","","","","","","","","","","","","","","","","","","",""
"","do_trial","231","1137804","0.0-124.0-0.0","452.5","","","","","","","","49","0,0,1","1","city","62","probe-208","0.19669750001488118","0.12138545311595511","0.7176264293815606","0","","","","","","","",""
"","html-keyboard-response","232","1138807","0.0-124.0-1.0","null","<p></p>","null","","","","","","","","","","","","","","","","","","","","","","",""
"","do_trial","233","1143738","0.0-125.0-0.0","390.29999999701977","","","","","","","","51","0,0,1","1","city","63","probe-169","0.06681081095750986","0.08458375203067198","0.6890104504601312","1","","","","","","","",""
"","html-keyboard-response","234","1144741","0.0-125.0-1.0","null","<p></p>","null","","","","","","","","","","","","","","","","","","","","","","",""
"","do_trial","235","1149882","0.0-126.0-0.0","598.2999999970198","","","","","","","","51","0,0,0","1","city","64","probe-21","0.3899740695718199","0.17839597752016265","0.6822058873726065","0","","","","","","","",""
"","html-keyboard-response","236","1150888","0.0-126.0-1.0","null","<p></p>","null","","","","","","","","","","","","","","","","","","","","","","",""
"","do_trial","237","1155910","0.0-127.0-0.0","485.09999999403954","","","","","","","","50","1,0,0","1","city","65","probe-05","0.4494175715291768","0.10458333098013935","0.5756077581976092","0","","","","","","","",""
"","html-keyboard-response","238","1156917","0.0-127.0-1.0","null","<p></p>","null","","","","","","","","","","","","","","","","","","","","","","",""
"","do_trial","239","1161513","0.0-128.0-0.0","57.20000000298023","","","","","","","","51","0,0,0","1","city","66","probe-17","0.3268154790828357","0.19372969942025417","0.5970005509717693","0","","","","","","","",""
"","html-keyboard-response","240","1162519","0.0-128.0-1.0","null","<p></p>","null","","","","","","","","","","","","","","","","","","","","","","",""
"","do_trial","241","1167069","0.0-129.0-0.0","8.700000002980232","","","","","","","","51","0,0,1","1","city","67","probe-46","0.22725008171645278","0.1115882844870702","0.6958976853772033","1","","","","","","","",""
"","html-keyboard-response","242","1168070","0.0-129.0-1.0","null","<p></p>","null","","","","","","","","","","","","","","","","","","","","","","",""
"","do_trial","243","1173048","0.0-130.0-0.0","435.20000000298023","","","","","","","","51","0,0,1","1","city","68","probe-201","0.16245254154909033","0.15008462212888998","0.7721282464758737","1","","","","","","","",""
"","html-keyboard-response","244","1174053","0.0-130.0-1.0","null","<p></p>","null","","","","","","","","","","","","","","","","","","","","","","",""
"","do_trial","245","1179816","0.0-131.0-0.0","1220","","","","","","","","51","0,0,0","1","city","69","probe-154","0.2769501112988057","0.12359879175199723","0.6364981568132277","0","","","","","","","",""
"","html-keyboard-response","246","1180820","0.0-131.0-1.0","null","<p></p>","null","","","","","","","","","","","","","","","","","","","","","","",""
"","do_bye","247","1182324","0.0-132.0-0.0","null","","","","","","","","null","","","","","","","","","","","","","","","","",""
"","do_travel","248","1188330","0.0-133.0-0.0","null","","","","","","","","null","","","","","","","","","","","","","","","","",""
"","do_welcome","249","1189836","0.0-133.0-1.0","null","","","","","","","","null","","","","","","","","","","","","","","","","",""
"","do_trial","250","1195324","0.0-134.0-0.0","949.5","","","","","","","","51","0,0,1","2","countryside","70","probe-179","0.2582997055269719","0.07546791018005047","1","1","","","","","","","",""
"","html-keyboard-response","251","1196328","0.0-134.0-1.0","null","<p></p>","null","","","","","","","","","","","","","","","","","","","","","","",""
"","do_trial","252","1202091","0.0-135.0-0.0","1218.7999999970198","","","","","","","","51","0,0,1","2","countryside","71","probe-77","0.44617664456239015","0.05337265087557638","1","1","","","","","","","",""
"","html-keyboard-response","253","1203098","0.0-135.0-1.0","null","<p></p>","null","","","","","","","","","","","","","","","","","","","","","","",""
"","do_trial","254","1208702","0.0-136.0-0.0","1063.7999999970198","","","","","","","","51","1,0,1","2","countryside","72","probe-29","0.38541343952008406","0.23142426879095954","0.8812683506651457","1","","","","","","","",""
"","html-keyboard-response","255","1209708","0.0-136.0-1.0","null","<p></p>","null","","","","","","","","","","","","","","","","","","","","","","",""
"","do_trial","256","1214782","0.0-137.0-0.0","530.7999999970198","","","","","","","","51","0,0,1","2","countryside","73","probe-102","0.3906476751673138","0.3488068902055464","0.8999050248310401","1","","","","","","","",""
"","html-keyboard-response","257","1215785","0.0-137.0-1.0","null","<p></p>","null","","","","","","","","","","","","","","","","","","","","","","",""
"","do_trial","258","1221026","0.0-138.0-0.0","699.2999999970198","","","","","","","","51","0,1,1","2","countryside","74","probe-35","0.3386216805388038","0.289033074959289","0.7179849390201277","1","","","","","","","",""
"","html-keyboard-response","259","1222031","0.0-138.0-1.0","null","<p></p>","null","","","","","","","","","","","","","","","","","","","","","","",""
"","do_trial","260","1227284","0.0-139.0-0.0","708.1000000089407","","","","","","","","51","1,0,1","2","countryside","75","probe-151","0.32731502229110887","0.2534522115888443","0.7265508294321732","1","","","","","","","",""
"","html-keyboard-response","261","1228285","0.0-139.0-1.0","null","<p></p>","null","","","","","","","","","","","","","","","","","","","","","","",""
"","do_trial","262","1233351","0.0-140.0-0.0","523.2000000029802","","","","","","","","51","0,0,1","2","countryside","76","probe-216","0.2813369642254218","0.16299484499895234","0.7296516082577875","1","","","","","","","",""
"","html-keyboard-response","263","1234357","0.0-140.0-1.0","null","<p></p>","null","","","","","","","","","","","","","","","","","","","","","","",""
"","do_trial","264","1239484","0.0-141.0-0.0","586.1000000089407","","","","","","","","51","0,0,0","2","countryside","77","probe-193","0.31572878882902233","0.06488039966635377","0.6824634568669353","0","","","","","","","",""
"","html-keyboard-response","265","1240490","0.0-141.0-1.0","null","<p></p>","null","","","","","","","","","","","","","","","","","","","","","","",""
"","do_trial","266","1245575","0.0-142.0-0.0","541.3999999910593","","","","","","","","50","0,0,1","2","countryside","78","probe-02","0.3507240202185563","0.06526617825958954","0.6879276297024981","0","","","","","","","",""
"","html-keyboard-response","267","1246578","0.0-142.0-1.0","null","<p></p>","null","","","","","","","","","","","","","","","","","","","","","","",""
"","do_trial","268","1251658","0.0-143.0-0.0","536.6999999880791","","","","","","","","49","0,0,0","2","countryside","79","probe-167","0.28730276163299484","0.1669480805999057","0.6887281474186667","0","","","","","","","",""
"","html-keyboard-response","269","1252663","0.0-143.0-1.0","null","<p></p>","null","","","","","","","","","","","","","","","","","","","","","","",""
"","do_trial","270","1257685","0.0-144.0-0.0","481.79999999701977","","","","","","","","51","0,0,1","2","countryside","80","probe-146","0.28190742987495104","0.2281268202230467","0.7528820063551228","1","","","","","","","",""
"","html-keyboard-response","271","1258691","0.0-144.0-1.0","null","<p></p>","null","","","","","","","","","","","","","","","","","","","","","","",""
"","do_trial","272","1263837","0.0-145.0-0.0","606","","","","","","","","51","0,0,1","2","countryside","81","probe-191","0.3910359878898853","0.2866320459049355","0.7236563265434864","1","","","","","","","",""
"","html-keyboard-response","273","1264839","0.0-145.0-1.0","null","<p></p>","null","","","","","","","","","","","","","","","","","","","","","","",""
"","do_trial","274","1269874","0.0-146.0-0.0","493.20000000298023","","","","","","","","51","1,1,0","2","countryside","82","probe-50","0.41396897505115887","0.24321195024975262","0.3712350189068654","0","","","","","","","",""
"","html-keyboard-response","275","1270876","0.0-146.0-1.0","null","<p></p>","null","","","","","","","","","","","","","","","","","","","","","","",""
"","do_trial","276","1276000","0.0-147.0-0.0","580","","","","","","","","51","0,0,0","2","countryside","83","probe-160","0.43349082866241","0.10597454778081807","0.22147743673709613","0","","","","","","","",""
"","html-keyboard-response","277","1277006","0.0-147.0-1.0","null","<p></p>","null","","","","","","","","","","","","","","","","","","","","","","",""
"","do_trial","278","1281968","0.0-148.0-0.0","419","","","","","","","","51","0,0,0","2","countryside","84","probe-131","0.6343063413369867","0.11954075106912995","0.23014803039521173","0","","","","","","","",""
"","html-keyboard-response","279","1282972","0.0-148.0-1.0","null","<p></p>","null","","","","","","","","","","","","","","","","","","","","","","",""
"","do_trial","280","1288038","0.0-149.0-0.0","523","","","","","","","","49","1,0,1","2","countryside","85","probe-168","0.5536180796769129","0.08847631373643976","0.2171401441747415","1","","","","","","","",""
"","html-keyboard-response","281","1289040","0.0-149.0-1.0","null","<p></p>","null","","","","","","","","","","","","","","","","","","","","","","",""
"","do_trial","282","1295132","0.0-150.0-0.0","1548.1000000089407","","","","","","","","49","1,0,1","2","countryside","86","probe-111","0.5711992521538389","0.13143624241411722","0.27574596946668406","1","","","","","","","",""
"","html-keyboard-response","283","1296135","0.0-150.0-1.0","null","<p></p>","null","","","","","","","","","","","","","","","","","","","","","","",""
"","do_trial","284","1301263","0.0-151.0-0.0","587.7000000029802","","","","","","","","49","1,0,0","2","countryside","87","probe-99","0.6305145536663035","0.32555914157337584","0.18262218095552754","1","","","","","","","",""
"","html-keyboard-response","285","1302269","0.0-151.0-1.0","null","<p></p>","null","","","","","","","","","","","","","","","","","","","","","","",""
"","do_trial","286","1307430","0.0-152.0-0.0","616.2999999970198","","","","","","","","49","0,1,0","2","countryside","88","probe-101","0.5864735013563724","0.36392808359002293","0.08564124709526509","0","","","","","","","",""
"","html-keyboard-response","287","1308432","0.0-152.0-1.0","null","<p></p>","null","","","","","","","","","","","","","","","","","","","","","","",""
"","do_trial","288","1313469","0.0-153.0-0.0","499.70000000298023","","","","","","","","49","1,0,0","2","countryside","89","probe-170","0.651312924373363","0.3316411067789752","0.14544403795994054","1","","","","","","","",""
"","html-keyboard-response","289","1314472","0.0-153.0-1.0","null","<p></p>","null","","","","","","","","","","","","","","","","","","","","","","",""
"","do_trial","290","1319854","0.0-154.0-0.0","845.6000000089407","","","","","","","","49","1,1,0","2","countryside","90","probe-19","0.5729923410402139","0.22905109810693397","0.07065377138806012","1","","","","","","","",""
"","html-keyboard-response","291","1320860","0.0-154.0-1.0","null","<p></p>","null","","","","","","","","","","","","","","","","","","","","","","",""
"","do_trial","292","1325956","0.0-155.0-0.0","552.5","","","","","","","","49","1,0,0","2","countryside","91","probe-189","0.7112599544598647","0.3039272042187281","0.11356554535605405","1","","","","","","","",""
"","html-keyboard-response","293","1326957","0.0-155.0-1.0","null","<p></p>","null","","","","","","","","","","","","","","","","","","","","","","",""
"","do_trial","294","1332397","0.0-156.0-0.0","902.5999999940395","","","","","","","","49","1,0,0","2","countryside","92","probe-08","0.6646379508477837","0.17871656129681796","0.1815098571214197","1","","","","","","","",""
"","html-keyboard-response","295","1333404","0.0-156.0-1.0","null","<p></p>","null","","","","","","","","","","","","","","","","","","","","","","",""
"","do_trial","296","1339101","0.0-157.0-0.0","1158.4000000059605","","","","","","","","49","0,1,0","2","countryside","93","probe-190","0.5918325412687331","0.1721780332450399","0.17366025579434347","0","","","","","","","",""
"","html-keyboard-response","297","1340103","0.0-157.0-1.0","null","<p></p>","null","","","","","","","","","","","","","","","","","","","","","","",""
"","do_trial","298","1345249","0.0-158.0-0.0","603.9000000059605","","","","","","","","49","1,1,1","2","countryside","94","probe-158","0.4466845824996588","0.2520221799357647","0.2873259164866398","1","","","","","","","",""
"","html-keyboard-response","299","1346255","0.0-158.0-1.0","null","<p></p>","null","","","","","","","","","","","","","","","","","","","","","","",""
"","do_trial","300","1351398","0.0-159.0-0.0","603.7999999970198","","","","","","","","49","1,0,0","2","countryside","95","probe-22","0.5363740842423481","0.1485548710035789","0.17346398302191865","1","","","","","","","",""
"","html-keyboard-response","301","1352400","0.0-159.0-1.0","null","<p></p>","null","","","","","","","","","","","","","","","","","","","","","","",""
"","do_trial","302","1358409","0.0-160.0-0.0","1465.199999988079","","","","","","","","49","1,0,0","2","countryside","96","probe-192","0.5265915952362091","0.168411916275994","0.3665980289906787","1","","","","","","","",""
"","html-keyboard-response","303","1359412","0.0-160.0-1.0","null","<p></p>","null","","","","","","","","","","","","","","","","","","","","","","",""
"","do_trial","304","1364632","0.0-161.0-0.0","678.7000000029802","","","","","","","","49","0,0,0","2","countryside","97","probe-200","0.6437249010786418","0.20768750542481706","0.17922170971275322","0","","","","","","","",""
"","html-keyboard-response","305","1365635","0.0-161.0-1.0","null","<p></p>","null","","","","","","","","","","","","","","","","","","","","","","",""
"","do_trial","306","1370773","0.0-162.0-0.0","593.1000000089407","","","","","","","","49","1,0,1","2","countryside","98","probe-128","0.655414745305301","0.25038639979972044","0.3170219003044084","1","","","","","","","",""
"","html-keyboard-response","307","1371779","0.0-162.0-1.0","null","<p></p>","null","","","","","","","","","","","","","","","","","","","","","","",""
"","do_trial","308","1377065","0.0-163.0-0.0","748.7999999970198","","","","","","","","49","0,0,0","2","countryside","99","probe-108","0.6353292242717647","0.20548578061943534","0.1614918794720886","0","","","","","","","",""
"","html-keyboard-response","309","1378071","0.0-163.0-1.0","null","<p></p>","null","","","","","","","","","","","","","","","","","","","","","","",""
"","do_trial","310","1383089","0.0-164.0-0.0","477.70000000298023","","","","","","","","50","0,0,0","2","countryside","100","probe-129","0.6495125597843712","0.22863632913032497","0.2539200561648259","0","","","","","","","",""
"","html-keyboard-response","311","1384093","0.0-164.0-1.0","null","<p></p>","null","","","","","","","","","","","","","","","","","","","","","","",""
"","do_trial","312","1389042","0.0-165.0-0.0","407.09999999403954","","","","","","","","50","1,0,0","2","countryside","101","probe-70","0.5473531950014743","0.2874393023443536","0.22899856112582254","0","","","","","","","",""
"","html-keyboard-response","313","1390044","0.0-165.0-1.0","null","<p></p>","null","","","","","","","","","","","","","","","","","","","","","","",""
"","do_trial","314","1395225","0.0-166.0-0.0","640.0999999940395","","","","","","","","51","0,1,0","2","countryside","102","probe-124","0.5534789288250174","0.31253200350122085","0.23090922570108105","0","","","","","","","",""
"","html-keyboard-response","315","1396230","0.0-166.0-1.0","null","<p></p>","null","","","","","","","","","","","","","","","","","","","","","","",""
"","do_trial","316","1401269","0.0-167.0-0.0","505.40000000596046","","","","","","","","49","1,1,1","2","countryside","103","probe-73","0.5447401432318241","0.33051457435090775","0.18551912097899853","1","","","","","","","",""
"","html-keyboard-response","317","1402276","0.0-167.0-1.0","null","<p></p>","null","","","","","","","","","","","","","","","","","","","","","","",""
"","do_trial","318","1407425","0.0-168.0-0.0","610","","","","","","","","49","0,0,1","2","countryside","104","probe-118","0.5544328054489454","0.22051251991221485","0.18891954449508916","0","","","","","","","",""
"","html-keyboard-response","319","1408430","0.0-168.0-1.0","null","<p></p>","null","","","","","","","","","","","","","","","","","","","","","","",""
"","do_trial","320","1414236","0.0-169.0-0.0","1268.2000000029802","","","","","","","","49","0,0,0","2","countryside","105","probe-156","0.6267709194818657","0.19934936572847953","0.06556039087110492","0","","","","","","","",""
"","html-keyboard-response","321","1415242","0.0-169.0-1.0","null","<p></p>","null","","","","","","","","","","","","","","","","","","","","","","",""
"","do_trial","322","1420248","0.0-170.0-0.0","463.5","","","","","","","","51","1,0,0","2","countryside","106","probe-38","0.6911130623184939","0.2735698812972199","0.11170051460896334","0","","","","","","","",""
"","html-keyboard-response","323","1421255","0.0-170.0-1.0","null","<p></p>","null","","","","","","","","","","","","","","","","","","","","","","",""
"","do_trial","324","1426162","0.0-171.0-0.0","364.5","","","","","","","","50","1,0,0","2","countryside","107","probe-106","0.6335833274238142","0.25358348408665066","0.24461005845994827","0","","","","","","","",""
"","html-keyboard-response","325","1427164","0.0-171.0-1.0","null","<p></p>","null","","","","","","","","","","","","","","","","","","","","","","",""
"","do_trial","326","1432050","0.0-172.0-0.0","341.40000000596046","","","","","","","","49","0,1,0","2","countryside","108","probe-18","0.4545329304751371","0.37940535977984274","0.27102094105565777","0","","","","","","","",""
"","html-keyboard-response","327","1433053","0.0-172.0-1.0","null","<p></p>","null","","","","","","","","","","","","","","","","","","","","","","",""
"","do_trial","328","1438001","0.0-173.0-0.0","403","","","","","","","","51","1,0,0","2","countryside","109","probe-225","0.53274599313755","0.40667294519981284","0.07840534098752124","0","","","","","","","",""
"","html-keyboard-response","329","1439005","0.0-173.0-1.0","null","<p></p>","null","","","","","","","","","","","","","","","","","","","","","","",""
"","do_bye","330","1440512","0.0-174.0-0.0","null","","","","","","","","null","","","","","","","","","","","","","","","","",""
"","do_travel","331","1446519","0.0-175.0-0.0","null","","","","","","","","null","","","","","","","","","","","","","","","","",""
"","do_welcome","332","1448028","0.0-175.0-1.0","null","","","","","","","","null","","","","","","","","","","","","","","","","",""
"","do_trial","333","1453640","0.0-176.0-0.0","1069.5","","","","","","","","49","1,0,0","3","forest","110","probe-140","1","0.4984195213321613","0.30247756994625535","1","","","","","","","",""
"","html-keyboard-response","334","1454644","0.0-176.0-1.0","null","<p></p>","null","","","","","","","","","","","","","","","","","","","","","","",""
"","do_trial","335","1459855","0.0-177.0-0.0","673.0999999940395","","","","","","","","49","1,1,0","3","forest","111","probe-15","1","0.39186977226304237","0.19510548366876246","1","","","","","","","",""
"","html-keyboard-response","336","1460860","0.0-177.0-1.0","null","<p></p>","null","","","","","","","","","","","","","","","","","","","","","","",""
"","do_trial","337","1465998","0.0-178.0-0.0","598.7000000029802","","","","","","","","49","1,0,0","3","forest","112","probe-162","0.93624432291887","0.2230363245463007","0.07920447751581623","1","","","","","","","",""
"","html-keyboard-response","338","1467005","0.0-178.0-1.0","null","<p></p>","null","","","","","","","","","","","","","","","","","","","","","","",""
"","do_trial","339","1472309","0.0-179.0-0.0","764.1000000089407","","","","","","","","49","1,0,0","3","forest","113","probe-28","0.79685012071053","0.28420967177564765","0.16479730354529118","1","","","","","","","",""
"","html-keyboard-response","340","1473315","0.0-179.0-1.0","null","<p></p>","null","","","","","","","","","","","","","","","","","","","","","","",""
"","do_trial","341","1478678","0.0-180.0-0.0","822.2999999970198","","","","","","","","49","1,1,0","3","forest","114","probe-06","0.5705556787566353","0.4269631818151749","0.055089555261725404","1","","","","","","","",""
"","html-keyboard-response","342","1479681","0.0-180.0-1.0","null","<p></p>","null","","","","","","","","","","","","","","","","","","","","","","",""
"","do_trial","343","1484851","0.0-181.0-0.0","626","","","","","","","","49","1,0,0","3","forest","115","probe-103","0.6711051376071946","0.17379117603147073","0.12044308883809753","1","","","","","","","",""
"","html-keyboard-response","344","1485854","0.0-181.0-1.0","null","<p></p>","null","","","","","","","","","","","","","","","","","","","","","","",""
"","do_trial","345","1491287","0.0-182.0-0.0","889","","","","","","","","49","0,0,0","3","forest","116","probe-142","0.7423569898041912","0.14471444400616654","0.18153634327709978","0","","","","","","","",""
"","html-keyboard-response","346","1492291","0.0-182.0-1.0","null","<p></p>","null","","","","","","","","","","","","","","","","","","","","","","",""
"","do_trial","347","1497941","0.0-183.0-0.0","1108.5","","","","","","","","51","1,1,0","3","forest","117","probe-36","0.5550573039468419","0.20714447652011395","0.19251597583965363","0","","","","","","","",""
"","html-keyboard-response","348","1498947","0.0-183.0-1.0","null","<p></p>","null","","","","","","","","","","","","","","","","","","","","","","",""
"","do_trial","349","1503958","0.0-184.0-0.0","466.6000000089407","","","","","","","","50","1,0,0","3","forest","118","probe-105","0.6117940329763599","0.11196108644076792","0.13651382445724747","0","","","","","","","",""
"","html-keyboard-response","350","1504964","0.0-184.0-1.0","null","<p></p>","null","","","","","","","","","","","","","","","","","","","","","","",""
"","do_trial","351","1509906","0.0-185.0-0.0","397.90000000596046","","","","","","","","50","1,0,0","3","forest","119","probe-218","0.6483527725166548","0.06725829446703348","0.09517194827278819","0","","","","","","","",""
"","html-keyboard-response","352","1510913","0.0-185.0-1.0","null","<p></p>","null","","","","","","","","","","","","","","","","","","","","","","",""
"","do_trial","353","1516881","0.0-186.0-0.0","1423.1000000089407","","","","","","","","49","1,0,0","3","forest","120","probe-174","0.6819874549715469","0.14001841955369945","0.062354175964209196","1","","","","","","","",""
"","html-keyboard-response","354","1517885","0.0-186.0-1.0","null","<p></p>","null","","","","","","","","","","","","","","","","","","","","","","",""
"","do_trial","355","1523140","0.0-187.0-0.0","712.1000000089407","","","","","","","","49","1,0,0","3","forest","121","probe-173","0.7154537715923669","0.18625831392086004","0.098250674454933","1","","","","","","","",""
"","html-keyboard-response","356","1524146","0.0-187.0-1.0","null","<p></p>","null","","","","","","","","","","","","","","","","","","","","","","",""
"","do_trial","357","1529980","0.0-188.0-0.0","1294.2999999970198","","","","","","","","49","1,0,0","3","forest","122","probe-113","0.44945469633659796","0.2982621445692147","0.24794292321518954","1","","","","","","","",""
"","html-keyboard-response","358","1530982","0.0-188.0-1.0","null","<p></p>","null","","","","","","","","","","","","","","","","","","","","","","",""
"","do_trial","359","1536753","0.0-189.0-0.0","1230","","","","","","","","49","1,0,0","3","forest","123","probe-51","0.507589452129043","0.45170026445581635","0.11027056572864574","1","","","","","","","",""
"","html-keyboard-response","360","1537757","0.0-189.0-1.0","null","<p></p>","null","","","","","","","","","","","","","","","","","","","","","","",""
"","do_trial","361","1543352","0.0-190.0-0.0","1052.1000000089407","","","","","","","","49","0,1,0","3","forest","124","probe-65","0.46704389788448425","0.5328590822903769","0.09022271737060722","0","","","","","","","",""
"","html-keyboard-response","362","1544356","0.0-190.0-1.0","null","<p></p>","null","","","","","","","","","","","","","","","","","","","","","","",""
"","do_trial","363","1549554","0.0-191.0-0.0","653.7999999970198","","","","","","","","49","1,0,1","3","forest","125","probe-132","0.3327862888196077","0.6087899692191081","0.10453265983546262","1","","","","","","","",""
"","html-keyboard-response","364","1550560","0.0-191.0-1.0","null","<p></p>","null","","","","","","","","","","","","","","","","","","","","","","",""
"","do_trial","365","1555677","0.0-192.0-0.0","574.1000000089407","","","","","","","","49","0,0,0","3","forest","126","probe-110","0.479013223377017","0.5133348547933274","0.06351909742801894","0","","","","","","","",""
"","html-keyboard-response","366","1556680","0.0-192.0-1.0","null","<p></p>","null","","","","","","","","","","","","","","","","","","","","","","",""
"","do_trial","367","1562461","0.0-193.0-0.0","1242.699999988079","","","","","","","","49","0,1,0","3","forest","127","probe-119","0.3780691241779577","0.6577750702093558","0.07218946602351617","0","","","","","","","",""
"","html-keyboard-response","368","1563463","0.0-193.0-1.0","null","<p></p>","null","","","","","","","","","","","","","","","","","","","","","","",""
"","do_trial","369","1568310","0.0-194.0-0.0","308.29999999701977","","","","","","","","51","1,0,0","3","forest","128","probe-163","0.25576623987960895","0.6242643789608792","0.1509474332328781","0","","","","","","","",""
"","html-keyboard-response","370","1569316","0.0-194.0-1.0","null","<p></p>","null","","","","","","","","","","","","","","","","","","","","","","",""
"","do_trial","371","1574183","0.0-195.0-0.0","328.8999999910593","","","","","","","","51","0,1,0","3","forest","129","probe-133","0.1747782353366869","0.7223774521231867","0.10286727808686533","0","","","","","","","",""
"","html-keyboard-response","372","1575184","0.0-195.0-1.0","null","<p></p>","null","","","","","","","","","","","","","","","","","","","","","","",""
"","do_trial","373","1580037","0.0-196.0-0.0","310.79999999701977","","","","","","","","50","1,1,0","3","forest","130","probe-11","0.16991523564746785","0.6607103789638317","0.17901960707397982","1","","","","","","","",""
"","html-keyboard-response","374","1581044","0.0-196.0-1.0","null","<p></p>","null","","","","","","","","","","","","","","","","","","","","","","",""
"","do_trial","375","1586255","0.0-197.0-0.0","668.0999999940395","","","","","","","","50","0,1,0","3","forest","131","probe-63","0.18283010285324397","0.6895157506595124","0.10270130103689588","1","","","","","","","",""
"","html-keyboard-response","376","1587262","0.0-197.0-1.0","null","<p></p>","null","","","","","","","","","","","","","","","","","","","","","","",""
"","do_trial","377","1592752","0.0-198.0-0.0","948","","","","","","","","50","0,1,0","3","forest","132","probe-185","0.293327922722947","0.7244176558553599","0.1308948591735905","1","","","","","","","",""
"","html-keyboard-response","378","1593757","0.0-198.0-1.0","null","<p></p>","null","","","","","","","","","","","","","","","","","","","","","","",""
"","do_trial","379","1599232","0.0-199.0-0.0","931.2999999970198","","","","","","","","50","0,0,0","3","forest","133","probe-100","0.20598574688559745","0.7453099809725375","0.16206927311251967","0","","","","","","","",""
"","html-keyboard-response","380","1600237","0.0-199.0-1.0","null","<p></p>","null","","","","","","","","","","","","","","","","","","","","","","",""
"","do_trial","381","1605829","0.0-200.0-0.0","1052.5","","","","","","","","50","1,1,0","3","forest","134","probe-175","0.3647335137221518","0.5598011239667371","0.09200085785478283","1","","","","","","","",""
"","html-keyboard-response","382","1606836","0.0-200.0-1.0","null","<p></p>","null","","","","","","","","","","","","","","","","","","","","","","",""
"","do_trial","383","1611880","0.0-201.0-0.0","500.79999999701977","","","","","","","","50","0,1,0","3","forest","135","probe-114","0.1469342948750721","0.45101140950504864","0.14025544493662245","1","","","","","","","",""
"","html-keyboard-response","384","1612887","0.0-201.0-1.0","null","<p></p>","null","","","","","","","","","","","","","","","","","","","","","","",""
"","do_trial","385","1617901","0.0-202.0-0.0","470.59999999403954","","","","","","","","50","0,1,0","3","forest","136","probe-84","0.28657427583505835","0.4627152022332083","0.09374084715215512","1","","","","","","","",""
"","html-keyboard-response","386","1618903","0.0-202.0-1.0","null","<p></p>","null","","","","","","","","","","","","","","","","","","","","","","",""
"","do_trial","387","1623922","0.0-203.0-0.0","476","","","","","","","","50","1,0,0","3","forest","137","probe-47","0.5049998079473629","0.40099808867719483","0.0914795012671947","0","","","","","","","",""
"","html-keyboard-response","388","1624929","0.0-203.0-1.0","null","<p></p>","null","","","","","","","","","","","","","","","","","","","","","","",""
"","do_trial","389","1629794","0.0-204.0-0.0","322.29999999701977","","","","","","","","49","0,1,1","3","forest","138","probe-217","0.43844930515601876","0.407855259902048","0.10237193296181796","0","","","","","","","",""
"","html-keyboard-response","390","1630801","0.0-204.0-1.0","null","<p></p>","null","","","","","","","","","","","","","","","","","","","","","","",""
"","do_trial","391","1635783","0.0-205.0-0.0","438.29999999701977","","","","","","","","50","0,1,0","3","forest","139","probe-44","0.22704324903510503","0.5169653764952019","0.09611852536681387","1","","","","","","","",""
"","html-keyboard-response","392","1636789","0.0-205.0-1.0","null","<p></p>","null","","","","","","","","","","","","","","","","","","","","","","",""
"","do_trial","393","1641828","0.0-206.0-0.0","494.70000000298023","","","","","","","","50","1,0,0","3","forest","140","probe-206","0.301876026478621","0.7219399002285528","0.12162639009534523","0","","","","","","","",""
"","html-keyboard-response","394","1642834","0.0-206.0-1.0","null","<p></p>","null","","","","","","","","","","","","","","","","","","","","","","",""
"","do_trial","395","1647871","0.0-207.0-0.0","492.59999999403954","","","","","","","","50","0,1,0","3","forest","141","probe-166","0.37598307928045105","0.7436916964229237","0.07406599037590392","1","","","","","","","",""
"","html-keyboard-response","396","1648878","0.0-207.0-1.0","null","<p></p>","null","","","","","","","","","","","","","","","","","","","","","","",""
"","do_trial","397","1654567","0.0-208.0-0.0","1147.3999999910593","","","","","","","","50","0,1,0","3","forest","142","probe-14","0.31609310409512636","0.6887938782245635","0.14473966140662203","1","","","","","","","",""
"","html-keyboard-response","398","1655574","0.0-208.0-1.0","null","<p></p>","null","","","","","","","","","","","","","","","","","","","","","","",""
"","do_trial","399","1660560","0.0-209.0-0.0","442.09999999403954","","","","","","","","50","0,0,0","3","forest","143","probe-181","0.34527184731506344","0.5971707289589425","0.13794487712714987","0","","","","","","","",""
"","html-keyboard-response","400","1661567","0.0-209.0-1.0","null","<p></p>","null","","","","","","","","","","","","","","","","","","","","","","",""
"","do_trial","401","1666718","0.0-210.0-0.0","607","","","","","","","","50","0,0,0","3","forest","144","probe-31","0.3320052587498266","0.6875212492704741","0.07222981646744861","0","","","","","","","",""
"","html-keyboard-response","402","1667724","0.0-210.0-1.0","null","<p></p>","null","","","","","","","","","","","","","","","","","","","","","","",""
"","do_trial","403","1672818","0.0-211.0-0.0","553.5","","","","","","","","50","0,1,0","3","forest","145","probe-79","0.42201141022529925","0.6217260268665504","0.1627156312214389","1","","","","","","","",""
"","html-keyboard-response","404","1673825","0.0-211.0-1.0","null","<p></p>","null","","","","","","","","","","","","","","","","","","","","","","",""
"","do_trial","405","1679094","0.0-212.0-0.0","728.7999999970198","","","","","","","","50","1,0,1","3","forest","146","probe-92","0.3284083386357691","0.7625594011359755","0.28257274073000826","0","","","","","","","",""
"","html-keyboard-response","406","1680100","0.0-212.0-1.0","null","<p></p>","null","","","","","","","","","","","","","","","","","","","","","","",""
"","do_trial","407","1685167","0.0-213.0-0.0","524.7999999970198","","","","","","","","51","1,1,1","3","forest","147","probe-30","0.20712793347958744","0.6990395521570396","0.16423133263171727","1","","","","","","","",""
"","html-keyboard-response","408","1686173","0.0-213.0-1.0","null","<p></p>","null","","","","","","","","","","","","","","","","","","","","","","",""
"","do_trial","409","1691460","0.0-214.0-0.0","744.8999999910593","","","","","","","","51","0,0,0","3","forest","148","probe-153","0.2542508387779923","0.5547786515237334","0.20754193140089655","0","","","","","","","",""
"","html-keyboard-response","410","1692463","0.0-214.0-1.0","null","<p></p>","null","","","","","","","","","","","","","","","","","","","","","","",""
"","do_trial","411","1697741","0.0-215.0-0.0","734.2999999970198","","","","","","","","51","0,0,0","3","forest","149","probe-80","0.3216461531654182","0.5921650281696504","0.18522147690468774","0","","","","","","","",""
"","html-keyboard-response","412","1698743","0.0-215.0-1.0","null","<p></p>","null","","","","","","","","","","","","","","","","","","","","","","",""
"","do_bye","413","1700248","0.0-216.0-0.0","null","","","","","","","","null","","","","","","","","","","","","","","","","",""
"","do_travel","414","1706255","0.0-217.0-0.0","null","","","","","","","","null","","","","","","","","","","","","","","","","",""
"","do_welcome","415","1707762","0.0-217.0-1.0","null","","","","","","","","null","","","","","","","","","","","","","","","","",""
"","do_trial","416","1713682","0.0-218.0-0.0","1385.699999988079","","","","","","","","50","0,1,0","4","mountain","150","probe-145","0.38842941039217366","1","0.20767567775521648","1","","","","","","","",""
"","html-keyboard-response","417","1714688","0.0-218.0-1.0","null","<p></p>","null","","","","","","","","","","","","","","","","","","","","","","",""
"","do_trial","418","1720248","0.0-219.0-0.0","1020.5999999940395","","","","","","","","50","0,1,0","4","mountain","151","probe-16","0.2563758140850391","1","0.2712417452946338","1","","","","","","","",""
"","html-keyboard-response","419","1721253","0.0-219.0-1.0","null","<p></p>","null","","","","","","","","","","","","","","","","","","","","","","",""
"","do_trial","420","1726215","0.0-220.0-0.0","424.20000000298023","","","","","","","","50","0,1,0","4","mountain","152","probe-62","0.33113573366360527","0.9415341621584985","0.20451268695131042","1","","","","","","","",""
"","html-keyboard-response","421","1727217","0.0-220.0-1.0","null","<p></p>","null","","","","","","","","","","","","","","","","","","","","","","",""
"","do_trial","422","1732859","0.0-221.0-0.0","1098.8999999910593","","","","","","","","50","0,1,1","4","mountain","153","probe-60","0.3973223556022312","0.858503531579733","0.220599051382586","1","","","","","","","",""
"","html-keyboard-response","423","1733864","0.0-221.0-1.0","null","<p></p>","null","","","","","","","","","","","","","","","","","","","","","","",""
"","do_trial","424","1738917","0.0-222.0-0.0","512.9000000059605","","","","","","","","50","1,1,0","4","mountain","154","probe-78","0.38522689607087673","0.8110874630744129","0.22160203083873822","1","","","","","","","",""
"","html-keyboard-response","425","1739923","0.0-222.0-1.0","null","<p></p>","null","","","","","","","","","","","","","","","","","","","","","","",""
"","do_trial","426","1745039","0.0-223.0-0.0","573.2000000029802","","","","","","","","50","0,1,0","4","mountain","155","probe-94","0.37713638364328445","0.7056939763815058","0.1617422369727794","1","","","","","","","",""
"","html-keyboard-response","427","1746045","0.0-223.0-1.0","null","<p></p>","null","","","","","","","","","","","","","","","","","","","","","","",""
"","do_trial","428","1751140","0.0-224.0-0.0","550.2999999970198","","","","","","","","50","0,1,0","4","mountain","156","probe-48","0.32428357408250796","0.5832463024966673","0.13798312962147524","1","","","","","","","",""
"","html-keyboard-response","429","1752144","0.0-224.0-1.0","null","<p></p>","null","","","","","","","","","","","","","","","","","","","","","","",""
"","do_trial","430","1757096","0.0-225.0-0.0","411.29999999701977","","","","","","","","50","0,0,0","4","mountain","157","probe-01","0.3249067495222699","0.6504006550370534","0.05710961198039786","0","","","","","","","",""
"","html-keyboard-response","431","1758100","0.0-225.0-1.0","null","<p></p>","null","","","","","","","","","","","","","","","","","","","","","","",""
"","do_trial","432","1763273","0.0-226.0-0.0","636","","","","","","","","50","0,1,0","4","mountain","158","probe-138","0.3056736183298144","0.5521890535808375","0.10371813753613833","1","","","","","","","",""
"","html-keyboard-response","433","1764275","0.0-226.0-1.0","null","<p></p>","null","","","","","","","","","","","","","","","","","","","","","","",""
"","do_trial","434","1769642","0.0-227.0-0.0","830.8999999910593","","","","","","","","50","1,0,1","4","mountain","159","probe-187","0.39155387438251266","0.4667075687650402","0.1048339461128648","0","","","","","","","",""
"","html-keyboard-response","435","1770648","0.0-227.0-1.0","null","<p></p>","null","","","","","","","","","","","","","","","","","","","","","","",""
"","do_trial","436","1776568","0.0-228.0-0.0","1378.2999999970198","","","","","","","","50","0,0,0","4","mountain","160","probe-165","0.4565414743334519","0.4898125303470445","0.16421264560066717","0","","","","","","","",""
"","html-keyboard-response","437","1777574","0.0-228.0-1.0","null","<p></p>","null","","","","","","","","","","","","","","","","","","","","","","",""
"","do_trial","438","1782498","0.0-229.0-0.0","387.70000000298023","","","","","","","","49","0,1,0","4","mountain","161","probe-53","0.37408419623717926","0.5915356551413136","0.3019017681382858","0","","","","","","","",""
"","html-keyboard-response","439","1783502","0.0-229.0-1.0","null","<p></p>","null","","","","","","","","","","","","","","","","","","","","","","",""
"","do_trial","440","1788216","0.0-230.0-0.0","179.79999999701977","","","","","","","","49","1,1,1","4","mountain","162","probe-69","0.4194443014028278","0.3975332753066864","0.35607477999641063","1","","","","","","","",""
"","html-keyboard-response","441","1789222","0.0-230.0-1.0","null","<p></p>","null","","","","","","","","","","","","","","","","","","","","","","",""
"","do_trial","442","1794391","0.0-231.0-0.0","627.3000000119209","","","","","","","","49","0,0,1","4","mountain","163","probe-202","0.7295682201488356","0.24328435334069262","0.31067647741494836","0","","","","","","","",""
"","html-keyboard-response","443","1795394","0.0-231.0-1.0","null","<p></p>","null","","","","","","","","","","","","","","","","","","","","","","",""
"","do_trial","444","1800774","0.0-232.0-0.0","841.5","","","","","","","","51","0,1,1","4","mountain","164","probe-211","0.6615053355559585","0.146932353285812","0.4091974465254788","1","","","","","","","",""
"","html-keyboard-response","445","1801778","0.0-232.0-1.0","null","<p></p>","null","","","","","","","","","","","","","","","","","","","","","","",""
"","do_trial","446","1807394","0.0-233.0-0.0","1073.5","","","","","","","","51","1,0,0","4","mountain","165","probe-199","0.600603518440522","0.16254847154637414","0.2880713190384783","0","","","","","","","",""
"","html-keyboard-response","447","1808400","0.0-233.0-1.0","null","<p></p>","null","","","","","","","","","","","","","","","","","","","","","","",""
"","do_trial","448","1813570","0.0-234.0-0.0","626.7000000029802","","","","","","","","51","1,0,0","4","mountain","166","probe-23","0.6737658017171698","0.09512364063721243","0.3490490755809345","0","","","","","","","",""
"","html-keyboard-response","449","1814574","0.0-234.0-1.0","null","<p></p>","null","","","","","","","","","","","","","","","","","","","","","","",""
"","do_trial","450","1819959","0.0-235.0-0.0","845.3999999910593","","","","","","","","50","1,0,1","4","mountain","167","probe-95","0.5801174732243289","0.05947797988780417","0.22183371102817304","0","","","","","","","",""
"","html-keyboard-response","451","1820960","0.0-235.0-1.0","null","<p></p>","null","","","","","","","","","","","","","","","","","","","","","","",""
"","do_trial","452","1826357","0.0-236.0-0.0","855.3000000119209","","","","","","","","50","1,0,0","4","mountain","168","probe-66","0.6923123161453231","0.15146014328359172","0.29110717390423324","0","","","","","","","",""
"","html-keyboard-response","453","1827360","0.0-236.0-1.0","null","<p></p>","null","","","","","","","","","","","","","","","","","","","","","","",""
"","do_trial","454","1831984","0.0-237.0-0.0","81.19999998807907","","","","","","","","49","1,1,1","4","mountain","169","probe-85","0.6580090724701545","0.18920950521157728","0.26183712681137417","1","","","","","","","",""
"","html-keyboard-response","455","1832987","0.0-237.0-1.0","null","<p></p>","null","","","","","","","","","","","","","","","","","","","","","","",""
"","do_trial","456","1838615","0.0-238.0-0.0","1089.6000000089407","","","","","","","","49","1,0,0","4","mountain","170","probe-126","0.6796393258027792","0.166155078107129","0.10600515106404786","1","","","","","","","",""
"","html-keyboard-response","457","1839617","0.0-238.0-1.0","null","<p></p>","null","","","","","","","","","","","","","","","","","","","","","","",""
"","do_trial","458","1845147","0.0-239.0-0.0","992.5","","","","","","","","49","1,0,0","4","mountain","171","probe-10","0.7001039637360426","0.178023255088009","0.23290509446508195","1","","","","","","","",""
"","html-keyboard-response","459","1846151","0.0-239.0-1.0","null","<p></p>","null","","","","","","","","","","","","","","","","","","","","","","",""
"","do_trial","460","1851972","0.0-240.0-0.0","1276.4000000059605","","","","","","","","49","1,0,0","4","mountain","172","probe-123","0.6331570888530392","0.1874218597784204","0.13101529346395455","1","","","","","","","",""
"","html-keyboard-response","461","1852973","0.0-240.0-1.0","null","<p></p>","null","","","","","","","","","","","","","","","","","","","","","","",""
"","do_trial","462","1858076","0.0-241.0-0.0","559.2000000029802","","","","","","","","49","0,1,0","4","mountain","173","probe-230","0.807241603606784","0.14469287446672205","0.26036089148233466","0","","","","","","","",""
"","html-keyboard-response","463","1859083","0.0-241.0-1.0","null","<p></p>","null","","","","","","","","","","","","","","","","","","","","","","",""
"","do_trial","464","1864711","0.0-242.0-0.0","1084.5","","","","","","","","49","1,1,1","4","mountain","174","probe-139","0.926729085093516","0.070380611082305","0.31909333689359193","1","","","","","","","",""
"","html-keyboard-response","465","1865715","0.0-242.0-1.0","null","<p></p>","null","","","","","","","","","","","","","","","","","","","","","","",""
"","do_trial","466","1870693","0.0-243.0-0.0","433.20000000298023","","","","","","","","49","1,0,1","4","mountain","175","probe-186","0.7798453916825011","0.12447341140946908","0.39666379536022045","1","","","","","","","",""
"","html-keyboard-response","467","1871699","0.0-243.0-1.0","null","<p></p>","null","","","","","","","","","","","","","","","","","","","","","","",""
"","do_trial","468","1876899","0.0-244.0-0.0","658","","","","","","","","49","0,0,0","4","mountain","176","probe-27","0.6782766239944972","0.07670166820346579","0.35278226571290583","0","","","","","","","",""
"","html-keyboard-response","469","1877901","0.0-244.0-1.0","null","<p></p>","null","","","","","","","","","","","","","","","","","","","","","","",""
"","do_trial","470","1882482","0.0-245.0-0.0","42","","","","","","","","49","1,1,0","4","mountain","177","probe-98","0.6959766496575419","0.07276110871277673","0.09976100264157517","1","","","","","","","",""
"","html-keyboard-response","471","1883484","0.0-245.0-1.0","null","<p></p>","null","","","","","","","","","","","","","","","","","","","","","","",""
"","do_trial","472","1888506","0.0-246.0-0.0","483.69999998807907","","","","","","","","49","1,0,0","4","mountain","178","probe-210","0.6163812450100483","0.08501393675724149","0.08054077926216088","1","","","","","","","",""
"","html-keyboard-response","473","1889507","0.0-246.0-1.0","null","<p></p>","null","","","","","","","","","","","","","","","","","","","","","","",""
