"success","trial_type","trial_index","time_elapsed","internal_node_id","rt","stimulus","key_press","subject_id","response","choice_outcomes","context_n","context_img_id","trial_n","probe_img_id","pR_red","pR_white","pR_black","outcome","is_valid","image_to_show","probed_trial","probed_context","correct"
"true","fullscreen","0","145738","0.0-0.0","","","","","","","","","","","","","","","","","","",""
"","pavlovia","1","145742","0.0-1.0","","","","","","","","","","","","","","","","","","",""
"","html-keyboard-response","2","146932","0.0-2.0","1188.3150000358","<div class='center'><p>Welcome! This experiment will last ~1 hour. In this experiment, you are the head captain of a pirate ship traveling around the world to different places. You will complete several different tasks during this experiment. Here is an overview of these tasks:</p><br><p>1. Tutorial and quiz</p><p>2. Pick a pirate game in 6 different places</p><p>3. Pick a pirate game and memory game</p><p>4. Final questions and payment</p><br><p>If you complete the entire experiment, you will receive $15 and a possible bonus payment.</p><p><b>[Press the space bar to begin the tutorial]</b></p></div>","32","5ee95e0e8737a0304baac70a","","","","","","","","","","","","","","",""
"","html-keyboard-response","3","147542","0.0-3.0","609.6750000724569","<div class='center'><p>You are the head captain of a pirate ship.</p><p> The pirates on your ship rob other ships as they leave the marketplace port.</p> These ships have just sold all their goods at the marketplace, so they have lots and lots of gold on them.</p><p><img src='run_exp/static/images/ship_center.png' height='400'></p><p><b>[Press the space bar to continue]</b></p></div>","32","","","","","","","","","","","","","","","",""
"","html-keyboard-response","4","148043","0.0-4.0","500.25499996263534","<div class='center'><p>As the head captain, you do not have to rob any ships yourself.</p><p>You get to choose which pirate you want to rob the next ship. </p><p>If they are successful at robbing the ship, then you will get gold coins.</p><p> If they are not successful, then you will get no gold coins.</p><p> The more coins you collect, the more bonus money you will win. So, choose your pirate wisely.</p><p><img src='run_exp/static/images/goal.png' height='400'></p><p><b>[Press the space bar to continue]</b></p><div>","32","","","","","","","","","","","","","","","",""
"","html-keyboard-response","5","149357","0.0-5.0","1312.5649999128655","<div class='center'><p>Even the most skilled pirate will not be able to rob EVERY ship.</p><p> Some ships will have very strong defenses against attacks.</p><p> For example, blue beard, here,  is very good at robbing ships.</p><p> You can press the <b>‘1’</b> button on the keyboard to choose him.</p><p> Try choosing him 10 times to see how often he is successful at robbing ships. </p><p><img src='run_exp/static/images/blue.png' height='500'></p></div>","49","","","","","","","","","","","","","","","",""
"","html-keyboard-response","6","150859","0.0-6.0","null","<br><br><br><br><p><img src='run_exp/static/images/blue_win.png' height='500'></p>","null","","","","","","","","","","","","","","","",""
"","html-keyboard-response","7","151325","0.0-7.0","465.570000000298","<br><br><br><br><p><img src='run_exp/static/images/blue.png' height='500'></p>","49","","","","","","","","","","","","","","","",""
"","html-keyboard-response","8","152831","0.0-8.0","null","<br><br><br><br><p><img src='run_exp/static/images/blue_win.png' height='500'></p>","null","","","","","","","","","","","","","","","",""
"","html-keyboard-response","9","153268","0.0-9.0","436.6949999239296","<br><br><br><br><p><img src='run_exp/static/images/blue.png' height='500'></p>","49","","","","","","","","","","","","","","","",""
"","html-keyboard-response","10","154770","0.0-10.0","null","<br><br><br><br><p><img src='run_exp/static/images/blue_win.png' height='500'></p>","null","","","","","","","","","","","","","","","",""
"","html-keyboard-response","11","155046","0.0-11.0","275.290000019595","<br><br><br><br><p><img src='run_exp/static/images/blue.png' height='500'></p>","49","","","","","","","","","","","","","","","",""
"","html-keyboard-response","12","156552","0.0-12.0","null","<br><br><br><br><p><img src='run_exp/static/images/blue_no_win.png' height='500'></p>","null","","","","","","","","","","","","","","","",""
"","html-keyboard-response","13","156938","0.0-13.0","385.234999936074","<br><br><br><br><p><img src='run_exp/static/images/blue.png' height='500'></p>","49","","","","","","","","","","","","","","","",""
"","html-keyboard-response","14","158444","0.0-14.0","null","<br><br><br><br><p><img src='run_exp/static/images/blue_win.png' height='500'></p>","null","","","","","","","","","","","","","","","",""
"","html-keyboard-response","15","158746","0.0-15.0","301.36500007938594","<br><br><br><br><p><img src='run_exp/static/images/blue.png' height='500'></p>","49","","","","","","","","","","","","","","","",""
"","html-keyboard-response","16","160252","0.0-16.0","null","<br><br><br><br><p><img src='run_exp/static/images/blue_win.png' height='500'></p>","null","","","","","","","","","","","","","","","",""
"","html-keyboard-response","17","160494","0.0-17.0","241.6599999414757","<br><br><br><br><p><img src='run_exp/static/images/blue.png' height='500'></p>","49","","","","","","","","","","","","","","","",""
"","html-keyboard-response","18","161999","0.0-18.0","null","<br><br><br><br><p><img src='run_exp/static/images/blue_win.png' height='500'></p>","null","","","","","","","","","","","","","","","",""
"","html-keyboard-response","19","162312","0.0-19.0","312.5750001054257","<br><br><br><br><p><img src='run_exp/static/images/blue.png' height='500'></p>","49","","","","","","","","","","","","","","","",""
"","html-keyboard-response","20","163816","0.0-20.0","null","<br><br><br><br><p><img src='run_exp/static/images/blue_no_win.png' height='500'></p>","null","","","","","","","","","","","","","","","",""
"","html-keyboard-response","21","164134","0.0-21.0","317.84500007051975","<br><br><br><br><p><img src='run_exp/static/images/blue.png' height='500'></p>","49","","","","","","","","","","","","","","","",""
"","html-keyboard-response","22","165641","0.0-22.0","null","<br><br><br><br><p><img src='run_exp/static/images/blue_win.png' height='500'></p>","null","","","","","","","","","","","","","","","",""
"","html-keyboard-response","23","165893","0.0-23.0","251.84499996248633","<br><br><br><br><p><img src='run_exp/static/images/blue.png' height='500'></p>","49","","","","","","","","","","","","","","","",""
"","html-keyboard-response","24","167397","0.0-24.0","null","<br><br><br><br><p><img src='run_exp/static/images/blue_win.png' height='500'></p>","null","","","","","","","","","","","","","","","",""
"","html-keyboard-response","25","168188","0.0-25.0","790.5049999244511","<div class='center'><p> See, he was able to rob the ship most of the time but not every time. </p><p><b>[Press the space bar to continue]</b></p></div>","32","","","","","","","","","","","","","","","",""
"","html-keyboard-response","26","169230","0.0-26.0","1040.5099999625236","<div class='center'><p>In the game, you will get to choose which of three pirates you want to rob the next ship. <p>Press the <b>‘1’</b> button on your keyboard to pick the pirate with the red beard.</p><p> Press <b>‘2’</b> to pick the pirate with the white beard.</p><p> Press <b>‘3’</b> to pick the pirate with the black beard.</p><p>Try picking a pirate now!</p><p><img src='run_exp/static/images/all_pirates.png' height='500'></p></div>","49","","","","","","","","","","","","","","","",""
"","html-keyboard-response","27","170473","0.0-27.0-0.0","1241.2799999583513","<div class='center'><p>This pirate was successful at robbing the ship!</p><p><img src='run_exp/static/images/red_win.png' height='500'></p><p><b>[Press the space bar to continue]</b></p></div>","32","","","","","","","","","","","","","","","",""
"","html-keyboard-response","28","171734","0.0-27.0-1.0","1260.4649999411777","<div class='center'><p>Now try choosing another</p><p><img src='run_exp/static/images/all_pirates.png' height='500'></p></div>","49","","","","","","","","","","","","","","","",""
"","html-keyboard-response","29","172781","0.0-28.0-0.0","1046.0149999707937","<div class='center'><p>This pirate was not successful at robbing the ship!</p><p><img src='run_exp/static/images/red_no_win.png' height='500'></p><p><b>[Press the space bar to continue]</b></p></div>","32","","","","","","","","","","","","","","","",""
"","html-keyboard-response","30","175698","0.0-29.0-0.0","2915.945000015199","<div class='center'><p>You’ll stop at these 6 places on your journey.</p><p><img src='run_exp/static/images/all_contexts.png' height='500'></p><p><b>[Press the space bar to continue]</b></p></div>","32","","","","","","","","","","","","","","","",""
"","html-keyboard-response","31","184014","0.0-29.0-1.0","8315.699999919161","<div class='center'><p>How good a pirate is at robbing ships will depend on the current place.</p><p> Some pirates will have been to the place before, and will have more experience robbing ships there.</p><p>So, they will be more successful at stealing gold and bringing it back to you.</p><p><b>[Press the space bar to continue]</b></p></div>","32","","","","","","","","","","","","","","","",""
"","html-keyboard-response","32","218959","0.0-29.0-2.0","34943.48999997601","<div class='center'><p>How successful a pirate is at robbing ships can also change in a place.<p> Ships may hear about the pirates coming and will improve their defenses. This may make it more difficult to rob them.</p><p> Ships may also grow lazy and will lower their defenses. This may make it easier to rob them.</p><br><p>Things are always changing on the high seas! So, try your best to pay attention!</p><p><img src='run_exp/static/images/contingency.png' height='500'></p><p><b>[Press the space bar to continue]</b></p></div>","32","","","","","","","","","","","","","","","",""
"","html-keyboard-response","33","228041","0.0-29.0-3.0","9081.254999968223","<div class='center'><p>Once you choose a pirate to rob a ship, you’ll be shown the ship they are robbing.</p><p>The ship will have a picture of the item they sold at the marketplace. Try your best to remember the ship and where you saw the ship.</p><p> You’ll have to remember this for later, and remembering this correctly will help you win more bonus money!</p><p>You can remember the ship by remembering the item they sold at the marketplace. A helpful strategy is to try to come up with a story of the ship’s item interacting with the scene.</p><p> For example, a ship might have sold travel mugs and you could imagine walking through the city sipping coffee from a travel mug. Or imagine an apple falling from a tree in the forest.</p><p><img src='run_exp/static/images/example_probe.png' height='500'></p><p><b>[Press the space bar to continue]</b></p></div>","32","","","","","","","","","","","","","","","",""
"","html-keyboard-response","34","230369","0.0-29.0-4.0","2327.099999994971","<div class='center'><p>If you don’t make your choice fast enough, you’ll have to wait a few seconds before you can make another one. You can’t win more gold. You just have to sit and wait.</p><p><img src='run_exp/static/images/hurry_up.png' height='500'></p><p><b>[Press the space bar to continue]</b></p></div>","32","","","","","","","","","","","","","","","",""
"","html-keyboard-response","35","232382","0.0-29.0-5.0","2013.245000038296","<div class='center'><p>Again, you have two important things to do: </p><b><p> 1. Pick the pirate who you think will be most successful at robbing the next ship.</p></b><b><p> 2. Remember where a pirate robbed a ship.</p> </b><p>Both are important in determining how much bonus money you’ll win.</p><br><p>Let’s try a practice game. The game will start by showing you the pirates. First pick a pirate using the <b> 1, 2, 3 </b> buttons on your keyboard. When you are shown a ship, try to remember the place you’re in by making up a story.</p><p> You only have 3 seconds to pick a pirate, so please make a choice quickly! If you are too slow, you’ll have to wait a bit during the time out.</p><p> Don’t feel rushed, but please do try to make a choice every time.</p><p>How good a pirate is at robbing a ship will change depending on the place they are in and how good the defenses are of the ship.</p> <p>This is just a practice game, so you’re not playing for money. </p><p>You’ll receive a bag which may or may not contain gold coins.</p><p> In the real game, though, you’ll be able to see whether or not you received the gold coins.</p><p> Good luck, remember press <b>'1'</b> to choose red beard, <b>'2'</b> to choose white beard, and <b>'3'</b> to choose black beard</p><p><b>[Press the space bar to begin the practice game]</b></p></div>","32","","","","","","","","","","","","","","","",""
"","do_trial_prac","36","238445","0.0-29.0-6.0","549.1649999748915","","","","49","","","","","","","","","","","","","",""
"","do_trial_prac","37","244358","0.0-29.0-7.0","402.30000007431954","","","","49","","","","","","","","","","","","","",""
"","do_trial_prac","38","250925","0.0-29.0-8.0","1057.325000059791","","","","49","","","","","","","","","","","","","",""
"","do_trial_prac","39","256827","0.0-29.0-9.0","395.0549999717623","","","","49","","","","","","","","","","","","","",""
"","do_trial_prac","40","262776","0.0-29.0-10.0","440.24999998509884","","","","49","","","","","","","","","","","","","",""
"","html-keyboard-response","41","265637","0.0-29.0-11.0","2860.6549999676645","<div class='center'><p>Great job on the practice game!</p><p> Now, you will be asked you some true or false questions to make sure you really understand the rules of the game.</p><p> Press <b>'1'</b> on the keyboard for true and press <b>'2'</b> for false.</p><p><b>[Press the space bar to begin the quiz]</b></p></div>","32","","","","","","","","","","","","","","","",""
"","html-keyboard-response","42","266291","0.0-29.0-12.0","652.4900000076741","<div class='center'><p>You win bonus money by making choices as fast as possible.</p><p>Press 1 for true and press  2 for false.</p></div>","49","","","","","","","","","","","","","","","",""
"","html-keyboard-response","43","267239","0.0-30.0-0.0","947.0499999588355","<br><br><br><br><p>That’s incorrect! You win bonus money by collecting as many gold coins as possible!</p><p><b>[press the space bar to continue with the quiz]</b></p>","32","","","","","","","","","","","","","","","",""
"","html-keyboard-response","44","268159","0.0-30.0-1.0","919.385000015609","<div class='center'><p>You press the <b>‘3’</b> button on the keyboard to choose the red bearded pirate? </p><p>Press 1 for true and press  2 for false.</p></div>","49","","","","","","","","","","","","","","","",""
"","html-keyboard-response","45","268578","0.0-31.0-0.0","418.38000004645437","<br><br><br><br><p>That’s incorrect! You press the <b>‘1’<b> button to choose the red bearded pirate!</p><p><b>[press the space bar to continue with the quiz]</b></p>","32","","","","","","","","","","","","","","","",""
"","html-keyboard-response","46","269016","0.0-31.0-1.0","437.60499998461455","<div class='center'><p>A pirate will always be equally successful at robbing ships in each place</p><p>Press 1 for true and press  2 for false.</p></div>","49","","","","","","","","","","","","","","","",""
"","html-keyboard-response","47","269389","0.0-32.0-0.0","371.90499994903803","<br><br><br><br><p>That’s incorrect! Pirates will be successful in different places.!</p><p><b>[press the space bar to continue with the quiz]</b></p>","32","","","","","","","","","","","","","","","",""
"","html-keyboard-response","48","269683","0.0-32.0-1.0","293.49499999079853","<div class='center'><p>You should remember the place where a pirate robbed a ship.</p><p>Press 1 for true and press  2 for false.</p></div>","49","","","","","","","","","","","","","","","",""
"","html-keyboard-response","49","270157","0.0-33.0-0.0","473.6900000134483","<br><br><br><br><p>That's correct!</p> <p><b>[press the space bar to continue with the quiz]</b></p>","32","","","","","","","","","","","","","","","",""
"","html-keyboard-response","50","271003","0.0-34.0-0.0","844.9450000189245","<br><br><br><br><p>Oops, you missed some questions. Now that you’ve heard the correct answers. Try the quiz again! If you fail the quiz too many times, you won’t be able to do the experiment. </p> <p><br>[press the space bar to repeat the quiz]</br></p>","32","","","","","","","","","","","","","","","",""
"","html-keyboard-response","51","271565","0.0-34.0-1.0","561.4700000733137","<div class='center'><p>You win bonus money by making choices as fast as possible.</p><p>Press 1 for true and press  2 for false.</p></div>","50","","","","","","","","","","","","","","","",""
"","html-keyboard-response","52","271800","0.0-35.0-0.0","234.36000000219792","<br><br><br><br><p>That's correct!</p> <p><b>[press the space bar to continue with the quiz]</b></p>","32","","","","","","","","","","","","","","","",""
"","html-keyboard-response","53","272181","0.0-35.0-1.0","380.159999942407","<div class='center'><p>You press the <b>‘3’</b> button on the keyboard to choose the red bearded pirate? </p><p>Press 1 for true and press  2 for false.</p></div>","50","","","","","","","","","","","","","","","",""
"","html-keyboard-response","54","272425","0.0-36.0-0.0","244.07500005327165","<br><br><br><br><p>That's correct!</p> <p><b>[press the space bar to continue with the quiz]</b></p>","32","","","","","","","","","","","","","","","",""
"","html-keyboard-response","55","272792","0.0-36.0-1.0","365.60000001918525","<div class='center'><p>A pirate will always be equally successful at robbing ships in each place</p><p>Press 1 for true and press  2 for false.</p></div>","50","","","","","","","","","","","","","","","",""
"","html-keyboard-response","56","273027","0.0-37.0-0.0","234.33999996632338","<br><br><br><br><p>That's correct!</p> <p><b>[press the space bar to continue with the quiz]</b></p>","32","","","","","","","","","","","","","","","",""
"","html-keyboard-response","57","273330","0.0-37.0-1.0","302.1500000031665","<div class='center'><p>You should remember the place where a pirate robbed a ship.</p><p>Press 1 for true and press  2 for false.</p></div>","49","","","","","","","","","","","","","","","",""
"","html-keyboard-response","58","273628","0.0-38.0-0.0","287.6450000330806","<br><br><br><br><p>That's correct!</p> <p><b>[press the space bar to continue with the quiz]</b></p>","32","","","","","","","","","","","","","","","",""
"","html-keyboard-response","59","274167","0.0-39.0-0.0","537.8999999957159","<br><br><br><br><p>Good job! You’re now ready to move on to the real game!</p> <p><br>[press the space bar to begin!]</br></p>","32","","","","","","","","","","","","","","","",""
"","do_welcome","60","276175","0.0-40.0-0.0","null","","","","null","","","","","","","","","","","","","",""
"","do_trial","61","282334","0.0-41.0-0.0","604.120000032708","","","","49","1,0,0","1","coast","0","probe-58","1","0.4","0.1","1","","","","",""
"","do_trial","62","288277","0.0-42.0-0.0","392.33500009868294","","","","49","1,0,0","1","coast","1","probe-224","1","0.40498799647195993","0.2249383277831602","1","","","","",""
"","do_trial","63","294172","0.0-43.0-0.0","345.4749999800697","","","","49","1,0,1","1","coast","2","probe-38","1","0.4281778244502204","0.1855947089018479","1","","","","",""
"","do_trial","64","300111","0.0-44.0-0.0","393.65999994333833","","","","49","1,0,1","1","coast","3","probe-31","1","0.4057224261940234","0.272506662902317","1","","","","",""
"","do_trial","65","306135","0.0-45.0-0.0","473.824999993667","","","","49","1,0,0","1","coast","4","probe-154","0.9499579631550364","0.4203276502072975","0.05608212314386053","1","","","","",""
"","do_trial","66","312280","0.0-46.0-0.0","596.64000000339","","","","49","1,0,0","1","coast","5","probe-122","0.8738686372396791","0.4232056454732","0.07465393852863039","1","","","","",""
"","do_trial","67","318245","0.0-47.0-0.0","413.9899999136105","","","","49","1,1,1","1","coast","6","probe-198","0.8542597315404743","0.4300887184912391","0.19180865595477628","1","","","","",""
"","do_trial","68","324295","0.0-48.0-0.0","502.47499998658895","","","","49","1,0,0","1","coast","7","probe-32","0.8920355199125772","0.5408098777462936","0.08963504437156612","1","","","","",""
"","do_trial","69","330455","0.0-49.0-0.0","600.1900000264868","","","","49","1,0,0","1","coast","8","probe-144","0.909226381646905","0.5358152768091256","0.05439653063626073","1","","","","",""
"","do_trial","70","336705","0.0-50.0-0.0","702.6499999919906","","","","49","1,0,0","1","coast","9","probe-109","0.8204091584282932","0.5562344038392925","0.2188770357761851","1","","","","",""
"","do_trial","71","342945","0.0-51.0-0.0","688.0200000014156","","","","49","1,0,0","1","coast","10","probe-138","0.7170990372026765","0.6630646772254489","0.14196622077367316","1","","","","",""
"","do_trial","72","349127","0.0-52.0-0.0","633.2499999552965","","","","49","1,1,0","1","coast","11","probe-120","0.6004448126916881","0.9051529892763494","0.11554692746654853","1","","","","",""
"","do_trial","73","355145","0.0-53.0-0.0","468.73999992385507","","","","49","0,1,0","1","coast","12","probe-221","0.4851885914666319","0.9421894251788743","0.29977629571779507","0","","","","",""
"","do_trial","74","361064","0.0-54.0-0.0","370.82500010728836","","","","49","0,0,1","1","coast","13","probe-149","0.4248820421951569","0.7862259626297131","0.28882960900638227","0","","","","",""
"","do_trial","75","367028","0.0-55.0-0.0","417.98500006552786","","","","50","1,1,0","1","coast","14","probe-136","0.4386564158701778","0.7051450802262176","0.09759232284400567","1","","","","",""
"","do_trial","76","372952","0.0-56.0-0.0","376.82000000495464","","","","50","1,1,0","1","coast","15","probe-97","0.3709551216349481","0.8911225175610309","0.17990820241428446","1","","","","",""
"","do_trial","77","378842","0.0-57.0-0.0","340.8950000302866","","","","50","1,1,0","1","coast","16","probe-81","0.379656273185182","0.9388193768568227","0.09422881314772999","1","","","","",""
"","do_trial","78","384732","0.0-58.0-0.0","341.67999995406717","","","","50","0,1,0","1","coast","17","probe-236","0.31733540340746774","0.7822693430550376","0.10306653278083056","1","","","","",""
"","do_trial","79","390688","0.0-59.0-0.0","407.89500006940216","","","","50","0,1,0","1","coast","18","probe-74","0.4615494389606413","0.882071551364948","0.13871515983746316","1","","","","",""
"","do_trial","80","396622","0.0-60.0-0.0","384.5199999632314","","","","50","1,1,0","1","coast","19","probe-186","0.5504541994509495","0.8570118151303278","0.07979668699304168","1","","","","",""
"","do_trial","81","402562","0.0-61.0-0.0","391.9649999588728","","","","50","0,1,0","1","coast","20","probe-02","0.4443686046639157","0.8460789689412438","0.09910639212068625","1","","","","",""
"","do_trial","82","408447","0.0-62.0-0.0","335.88999998755753","","","","50","0,0,0","1","coast","21","probe-72","0.40590583520572454","0.8895963703333568","0.10583736731133465","0","","","","",""
"","do_trial","83","414377","0.0-63.0-0.0","383.7499999208376","","","","50","0,1,0","1","coast","22","probe-152","0.3775396269253019","0.8427367613373509","0.3312150242516492","1","","","","",""
"","do_trial","84","420466","0.0-64.0-0.0","539.6750000072643","","","","50","1,1,0","1","coast","23","probe-116","0.42517852241184223","0.9178037407823433","0.2374183820402783","1","","","","",""
"","do_trial","85","426364","0.0-65.0-0.0","344.92499998304993","","","","50","0,0,0","1","coast","24","probe-190","0.32063420853985086","0.9354954851747006","0.32041862244054115","0","","","","",""
"","do_trial","86","432337","0.0-66.0-0.0","424.07499998807907","","","","50","1,1,0","1","coast","25","probe-08","0.4170812656275979","0.9482080620699178","0.25367909716892767","1","","","","",""
"","do_trial","87","438209","0.0-67.0-0.0","319.92499995976686","","","","50","0,1,0","1","coast","26","probe-110","0.46862398542833494","0.8699904023285474","0.2028339691667506","1","","","","",""
"","do_trial","88","444214","0.0-68.0-0.0","454.7749999910593","","","","50","1,1,0","1","coast","27","probe-234","0.5508304201177834","0.8403899027476881","0.08922589001320055","1","","","","",""
"","do_trial","89","450100","0.0-69.0-0.0","340.5150000471622","","","","50","1,1,0","1","coast","28","probe-15","0.5114413851005658","0.7569706426938055","0.1636728015324729","1","","","","",""
"","do_trial","90","456010","0.0-70.0-0.0","360.82500009797513","","","","50","0,1,0","1","coast","29","probe-80","0.4696167855536417","0.9044907289820157","0.13776456024850794","1","","","","",""
"","do_trial","91","461908","0.0-71.0-0.0","351.0799999348819","","","","50","1,1,0","1","coast","30","probe-193","0.6067147816303143","0.9183136195842236","0.15564997020719717","1","","","","",""
"","do_trial","92","467876","0.0-72.0-0.0","421.0800000000745","","","","50","1,0,0","1","coast","31","probe-233","0.5408454417277442","0.8586558416224661","0.14001165557757955","0","","","","",""
"","do_trial","93","473793","0.0-73.0-0.0","367.824999964796","","","","50","0,1,0","1","coast","32","probe-36","0.3942770340549358","0.887793147357548","0.19789849239552312","1","","","","",""
"","do_trial","94","479857","0.0-74.0-0.0","512.5700000207871","","","","50","1,1,0","1","coast","33","probe-18","0.5318155511078603","0.9181594211702371","0.12257515526639023","1","","","","",""
"","do_trial","95","485940","0.0-75.0-0.0","535.219999961555","","","","50","0,0,0","1","coast","34","probe-114","0.558864511392363","0.8241658418591119","0.10909464794806129","0","","","","",""
"","do_trial","96","492316","0.0-76.0-0.0","827.8100000461563","","","","50","1,1,0","1","coast","35","probe-222","0.49471871390420535","0.7719357863232108","0.06617784136943378","1","","","","",""
"","do_trial","97","498259","0.0-77.0-0.0","396.0499999811873","","","","50","0,1,0","1","coast","36","probe-26","0.41971062057043235","0.8247243398446586","0.09546281505690059","1","","","","",""
"","do_trial","98","504495","0.0-78.0-0.0","686.0099999466911","","","","50","0,1,0","1","coast","37","probe-166","0.519304448734596","0.9039823866910784","0.10654649898162885","1","","","","",""
"","do_trial","99","510595","0.0-79.0-0.0","551.2599999783561","","","","50","0,1,0","1","coast","38","probe-41","0.5772425429937279","0.9220771577341781","0.15849812898445179","1","","","","",""
"","do_trial","100","516515","0.0-80.0-0.0","373.81500005722046","","","","50","0,1,0","1","coast","39","probe-173","0.5898516867662424","0.9046914520971885","0.057857751202945396","1","","","","",""
"","do_bye","101","518520","0.0-81.0-0.0","null","","","","null","","","","","","","","","","","","","",""
"","do_travel","102","530526","0.0-82.0-0.0","null","","","","null","","","","","","","","","","","","","",""
"","do_welcome","103","532532","0.0-82.0-1.0","null","","","","null","","","","","","","","","","","","","",""
"","do_trial","104","538784","0.0-83.0-0.0","701.4799999305978","","","","50","0,1,0","2","highway","40","probe-208","0.4835973730763037","1","0.07404732161738103","1","","","","",""
"","do_trial","105","544745","0.0-84.0-0.0","414.6900000050664","","","","50","1,1,0","2","highway","41","probe-142","0.5350993299108175","1","0.05410826368701356","1","","","","",""
"","do_trial","106","550607","0.0-85.0-0.0","312.6250000204891","","","","50","0,1,0","2","highway","42","probe-66","0.39561319077209545","1","0.09046876995258515","1","","","","",""
"","do_trial","107","556627","0.0-86.0-0.0","468.98000000510365","","","","50","0,1,0","2","highway","43","probe-56","0.3204057462279","1","0.10757722811845304","1","","","","",""
"","do_trial","108","563274","0.0-87.0-0.0","1097.9499999666587","","","","50","1,0,0","2","highway","44","probe-146","0.36626609258488074","0.8253565995571223","0.050597112933425684","0","","","","",""
"","do_trial","109","569194","0.0-88.0-0.0","366.5099999634549","","","","50","0,1,0","2","highway","45","probe-151","0.3477844783818671","0.926337930812029","0.12747420214664038","1","","","","",""
"","do_trial","110","575140","0.0-89.0-0.0","396.9400000059977","","","","50","1,1,0","2","highway","46","probe-141","0.311038267037775","0.8646921599136874","0.14835407940351308","1","","","","",""
"","do_trial","111","581090","0.0-90.0-0.0","397.0899999840185","","","","50","0,1,0","2","highway","47","probe-51","0.17464527702155475","0.842718842317899","0.1782638929403244","1","","","","",""
"","do_trial","112","587157","0.0-91.0-0.0","518.4349999763072","","","","50","0,1,0","2","highway","48","probe-101","0.2559183529513226","0.9496028300365662","0.2544526142672156","1","","","","",""
"","do_trial","113","593221","0.0-92.0-0.0","515.625","","","","50","0,1,0","2","highway","49","probe-68","0.22616268765265524","0.938388922432183","0.11224299784681911","1","","","","",""
"","do_trial","114","599167","0.0-93.0-0.0","395.6250000046566","","","","50","1,1,0","2","highway","50","probe-50","0.6037503184790148","0.7395685376815547","0.24154772016531215","1","","","","",""
"","do_trial","115","605212","0.0-94.0-0.0","495.9700000472367","","","","51","0,0,0","2","highway","51","probe-54","0.6029915042451011","0.564522767577619","0.32960163410236604","0","","","","",""
"","do_trial","116","611048","0.0-95.0-0.0","286.91499994602054","","","","51","1,0,0","2","highway","52","probe-27","0.8068626806366359","0.5063490244388725","0.4085070608613188","0","","","","",""
"","do_trial","117","617058","0.0-96.0-0.0","459.4149999320507","","","","49","1,1,0","2","highway","53","probe-39","0.8236770893223603","0.6337053178894044","0.3742902436374725","1","","","","",""
"","do_trial","118","623020","0.0-97.0-0.0","415.33999994862825","","","","49","1,1,0","2","highway","54","probe-127","0.8365826039346383","0.6426265116958619","0.259775914011907","1","","","","",""
"","do_trial","119","628987","0.0-98.0-0.0","415.50000000279397","","","","49","1,0,0","2","highway","55","probe-223","0.9356204460439199","0.6104751048343324","0.12100706540754363","1","","","","",""
"","do_trial","120","634904","0.0-99.0-0.0","366.6549999034032","","","","49","1,0,0","2","highway","56","probe-153","0.9473106682756124","0.6228701920522779","0.14324785240364027","1","","","","",""
"","do_trial","121","641271","0.0-100.0-0.0","820.3500000527129","","","","49","1,1,0","2","highway","57","probe-73","0.9376117190492184","0.4086187269851121","0.2841114768874376","1","","","","",""
"","do_trial","122","647270","0.0-101.0-0.0","450.3549999790266","","","","49","0,0,0","2","highway","58","probe-09","0.9374647366849327","0.4603419155658985","0.21534493244075192","0","","","","",""
"","do_trial","123","653577","0.0-102.0-0.0","750.7200000109151","","","","49","1,0,1","2","highway","59","probe-57","0.8289453431005116","0.41340243083055167","0.21642964165064402","1","","","","",""
"","do_trial","124","659515","0.0-103.0-0.0","390.19499998539686","","","","50","1,0,0","2","highway","60","probe-62","0.9285528023730376","0.3832974393459961","0.20956079205266298","0","","","","",""
"","do_trial","125","665423","0.0-104.0-0.0","358.2199999364093","","","","49","1,0,0","2","highway","61","probe-176","0.8231889242352013","0.36167866541338123","0.20619894212817097","1","","","","",""
"","do_trial","126","671927","0.0-105.0-0.0","954.8450000584126","","","","49","1,0,1","2","highway","62","probe-126","0.7991229242948628","0.3153618507322853","0.26646102474021865","1","","","","",""
"","do_trial","127","678425","0.0-106.0-0.0","948.3799999579787","","","","49","1,0,0","2","highway","63","probe-78","0.7653161749012466","0.27612652727744014","0.2500235396405292","1","","","","",""
"","do_trial","128","684519","0.0-107.0-0.0","547.0399999758229","","","","49","1,0,0","2","highway","64","probe-98","0.7816073203262659","0.45216020498029474","0.21116392922474908","1","","","","",""
"","do_trial","129","690450","0.0-108.0-0.0","379.32499998714775","","","","49","1,0,0","2","highway","65","probe-185","0.7842742450675697","0.45808895535976873","0.10969856541571965","1","","","","",""
"","do_trial","130","696583","0.0-109.0-0.0","583.7700000265613","","","","49","1,0,0","2","highway","66","probe-131","0.8788494547048694","0.4538193453504292","0.11316354399946954","1","","","","",""
"","do_trial","131","702638","0.0-110.0-0.0","508.5650000255555","","","","49","1,1,0","2","highway","67","probe-162","0.8630414498028725","0.4805015522278918","0.13429448591196444","1","","","","",""
"","do_trial","132","708585","0.0-111.0-0.0","396.87499997671694","","","","49","1,1,0","2","highway","68","probe-93","0.8595430650886695","0.4796109588113059","0.09796463710450766","1","","","","",""
"","do_trial","133","714627","0.0-112.0-0.0","493.2449999032542","","","","49","0,0,0","2","highway","69","probe-88","0.7729392323044951","0.4477552611690488","0.06899943582297606","0","","","","",""
"","do_trial","134","720764","0.0-113.0-0.0","590.485000051558","","","","49","1,1,0","2","highway","70","probe-19","0.8344133653100887","0.32295756547657484","0.09343366273891683","1","","","","",""
"","do_trial","135","727602","0.0-114.0-0.0","1289.8800000548363","","","","49","1,0,0","2","highway","71","probe-157","0.9129286987725063","0.2701366482688468","0.11798878451250831","1","","","","",""
"","do_trial","136","733582","0.0-115.0-0.0","433.8550000684336","","","","49","1,0,0","2","highway","72","probe-239","0.7505640376591275","0.2663623552366754","0.06017943650978159","1","","","","",""
"","do_trial","137","739468","0.0-116.0-0.0","338.05999998003244","","","","49","1,1,0","2","highway","73","probe-165","0.7013821726239451","0.33266745359348177","0.13279333311817101","1","","","","",""
"","do_trial","138","745366","0.0-117.0-0.0","348.8250001100823","","","","49","1,0,0","2","highway","74","probe-230","0.8369975375456643","0.3297680622537586","0.14086392818525503","1","","","","",""
"","do_trial","139","751272","0.0-118.0-0.0","357.3300000280142","","","","49","1,0,0","2","highway","75","probe-201","0.807702998592588","0.4263717099838008","0.07716188616666103","1","","","","",""
"","do_trial","140","757609","0.0-119.0-0.0","786.7949999636039","","","","49","1,0,0","2","highway","76","probe-07","0.8902233138009003","0.3443926885249154","0.0961857890172991","1","","","","",""
"","do_trial","141","763505","0.0-120.0-0.0","345.28500004671514","","","","49","1,0,0","2","highway","77","probe-71","0.9215157720924042","0.2444501699186469","0.079780167140687","1","","","","",""
"","do_trial","142","769618","0.0-121.0-0.0","561.7649999912828","","","","49","1,0,0","2","highway","78","probe-100","0.8123818554991076","0.29246238582453493","0.16018318267087658","1","","","","",""
"","do_trial","143","776619","0.0-122.0-0.0","1451.7000000923872","","","","49","1,0,0","2","highway","79","probe-181","0.8083748642092319","0.33306532820108475","0.1268012491898882","1","","","","",""
"","do_bye","144","778628","0.0-123.0-0.0","null","","","","null","","","","","","","","","","","","","",""
"","do_travel","145","790637","0.0-124.0-0.0","null","","","","null","","","","","","","","","","","","","",""
"","do_welcome","146","792645","0.0-124.0-1.0","null","","","","null","","","","","","","","","","","","","",""
"","do_trial","147","799676","0.0-125.0-0.0","1479.619999998249","","","","49","1,0,0","3","mountain","80","probe-84","1","0.5206158431805388","0.23708306463827553","1","","","","",""
"","do_trial","148","805601","0.0-126.0-0.0","377.48999998439103","","","","49","1,0,1","3","mountain","81","probe-202","1","0.37039563554235505","0.18511341861327182","1","","","","",""
"","do_trial","149","811589","0.0-127.0-0.0","440.4050000011921","","","","49","1,0,0","3","mountain","82","probe-92","1","0.3269054731565772","0.1462541536833031","1","","","","",""
"","do_trial","150","817974","0.0-128.0-0.0","834.6599999349564","","","","49","1,1,0","3","mountain","83","probe-86","1","0.40373749809454346","0.14378807394492069","1","","","","",""
"","do_trial","151","823983","0.0-129.0-0.0","457.7049999497831","","","","49","1,0,0","3","mountain","84","probe-172","0.861420273731948","0.4833331198565599","0.1357064630194797","1","","","","",""
"","do_trial","152","830477","0.0-130.0-0.0","948.4350000275299","","","","49","1,1,0","3","mountain","85","probe-159","0.8976958509326818","0.46338185207323657","0.07313670824499538","1","","","","",""
"","do_trial","153","836427","0.0-131.0-0.0","404.0149999782443","","","","49","0,0,0","3","mountain","86","probe-105","0.8072831472028841","0.5364660817917336","0.08576065859252686","0","","","","",""
"","do_trial","154","842226","0.0-132.0-0.0","252.50500009860843","","","","49","1,0,0","3","mountain","87","probe-135","0.9458441836569719","0.3749259422339425","0.16028181841868935","1","","","","",""
"","do_trial","155","848382","0.0-133.0-0.0","604.9749999074265","","","","49","0,1,0","3","mountain","88","probe-16","0.8639437066532881","0.5105030335389981","0.10039977056894075","0","","","","",""
"","do_trial","156","854162","0.0-134.0-0.0","234.70499995164573","","","","49","1,0,0","3","mountain","89","probe-139","0.8369667395055232","0.4444292086069545","0.09608508357032591","1","","","","",""
"","do_trial","157","860676","0.0-135.0-0.0","959.5650000264868","","","","51","1,1,0","3","mountain","90","probe-11","0.6322197673023023","0.6588465418979828","0.08143071289051829","0","","","","",""
"","do_trial","158","866527","0.0-136.0-0.0","300.6900000618771","","","","51","0,0,0","3","mountain","91","probe-129","0.5724303760867115","0.638718196467454","0.09191466719451764","0","","","","",""
"","do_trial","159","872434","0.0-137.0-0.0","359.27999997511506","","","","51","1,1,0","3","mountain","92","probe-205","0.6646548226183311","0.6776006071282893","0.06433208272308627","0","","","","",""
"","do_trial","160","878335","0.0-138.0-0.0","353.8399999961257","","","","51","0,1,0","3","mountain","93","probe-13","0.5855005704160395","0.7719035977461775","0.09871326492654481","0","","","","",""
"","do_trial","161","884340","0.0-139.0-0.0","456.0449999989942","","","","49","1,1,0","3","mountain","94","probe-218","0.4544898345749906","0.8210728815128502","0.19644494793637307","1","","","","",""
"","do_trial","162","890550","0.0-140.0-0.0","661.7199999745935","","","","49","1,1,0","3","mountain","95","probe-55","0.4667877467228464","0.9181430157170624","0.14165308903216237","1","","","","",""
"","do_trial","163","896476","0.0-141.0-0.0","377.69499991554767","","","","49","1,1,0","3","mountain","96","probe-134","0.28066382378080895","0.8841895643444442","0.15008223618133432","1","","","","",""
"","do_trial","164","902402","0.0-142.0-0.0","378.16000008024275","","","","49","0,1,0","3","mountain","97","probe-160","0.29809565756543466","0.9302205847391908","0.11070322672585463","0","","","","",""
"","do_trial","165","908227","0.0-143.0-0.0","276.68499993160367","","","","49","1,1,0","3","mountain","98","probe-192","0.38102476241943906","0.8499774689095533","0.17024829058155266","1","","","","",""
"","do_trial","166","914162","0.0-144.0-0.0","382.80999998096377","","","","49","0,0,0","3","mountain","99","probe-89","0.26687988681905145","0.898630840117357","0.09429056983076177","0","","","","",""
"","do_trial","167","920111","0.0-145.0-0.0","397.0650000264868","","","","49","1,1,0","3","mountain","100","probe-33","0.3895408748109422","0.9007779721231675","0.1588852304913915","1","","","","",""
"","do_trial","168","925958","0.0-146.0-0.0","295.39500002283603","","","","49","0,0,0","3","mountain","101","probe-164","0.43693591381354313","0.8194199665602376","0.08007593657681594","0","","","","",""
"","do_trial","169","931945","0.0-147.0-0.0","437.0800000615418","","","","50","0,1,0","3","mountain","102","probe-161","0.4466455049675347","0.764649992760531","0.07747752640775403","1","","","","",""
"","do_trial","170","937893","0.0-148.0-0.0","397.01000007335097","","","","50","0,1,0","3","mountain","103","probe-79","0.5928086951473434","0.8924265763731498","0.0698954173922426","1","","","","",""
"","do_trial","171","943831","0.0-149.0-0.0","384.5449999207631","","","","50","1,1,0","3","mountain","104","probe-209","0.5010644140386706","0.9293094893167689","0.07640568662675061","1","","","","",""
"","do_trial","172","950007","0.0-150.0-0.0","593.0200000293553","","","","50","1,1,0","3","mountain","105","probe-210","0.46467182452340633","0.8485600912351697","0.07616633506756491","1","","","","",""
"","do_trial","173","956095","0.0-151.0-0.0","537.5699999276549","","","","50","0,1,0","3","mountain","106","probe-168","0.4041194230509131","0.7618827958620495","0.10668897724065707","1","","","","",""
"","do_trial","174","962456","0.0-152.0-0.0","809.1700000222772","","","","50","0,1,1","3","mountain","107","probe-40","0.2828869003059711","0.7357202556132808","0.05027265007384445","1","","","","",""
"","do_trial","175","968533","0.0-153.0-0.0","529.2749999789521","","","","50","0,1,0","3","mountain","108","probe-132","0.430623195464699","0.8304709704680502","0.117261480821276","1","","","","",""
"","do_trial","176","974683","0.0-154.0-0.0","601.6999999992549","","","","50","0,1,1","3","mountain","109","probe-90","0.2762959816671092","0.814255116854944","0.1385373630992485","1","","","","",""
"","do_trial","177","980727","0.0-155.0-0.0","493.3400000445545","","","","50","0,1,0","3","mountain","110","probe-106","0.4114435380259451","0.86346654666833","0.09340018885553375","1","","","","",""
"","do_trial","178","986994","0.0-156.0-0.0","715.7149999402463","","","","50","1,1,1","3","mountain","111","probe-174","0.4615387036863418","0.9123586786922812","0.14671875523242447","1","","","","",""
"","do_trial","179","993090","0.0-157.0-0.0","548.1400000862777","","","","50","1,1,0","3","mountain","112","probe-150","0.35702801638567605","0.9226392476706182","0.11589654861993035","1","","","","",""
"","do_trial","180","999329","0.0-158.0-0.0","691.2650000303984","","","","50","0,1,0","3","mountain","113","probe-117","0.4176212567704944","0.9487743918520163","0.2782362523755863","1","","","","",""
"","do_trial","181","1005477","0.0-159.0-0.0","600.2500000176951","","","","50","0,1,0","3","mountain","114","probe-35","0.6196246729414019","0.9444548700768464","0.09104246734149983","1","","","","",""
"","do_trial","182","1011553","0.0-160.0-0.0","529.7599999466911","","","","50","1,1,0","3","mountain","115","probe-195","0.6200491592111814","0.9052595388663411","0.10159640774372955","1","","","","",""
"","do_trial","183","1017944","0.0-161.0-0.0","838.2249999558553","","","","50","0,1,0","3","mountain","116","probe-225","0.5475370971539945","0.9145101752009595","0.12064601709403448","1","","","","",""
"","do_trial","184","1024272","0.0-162.0-0.0","780.9000000124797","","","","50","0,1,0","3","mountain","117","probe-06","0.5913903476222891","0.9147573201188602","0.06688818971937179","1","","","","",""
"","do_trial","185","1030899","0.0-163.0-0.0","1074.3250000523403","","","","50","1,1,0","3","mountain","118","probe-29","0.5340586862942365","0.8831580221117638","0.11969274014298989","1","","","","",""
"","do_trial","186","1036970","0.0-164.0-0.0","521.210000035353","","","","50","1,1,0","3","mountain","119","probe-231","0.5111888406369427","0.8493483609809626","0.07046154557459774","1","","","","",""
"","do_bye","187","1038977","0.0-165.0-0.0","null","","","","null","","","","","","","","","","","","","",""
"","do_travel","188","1050984","0.0-166.0-0.0","null","","","","null","","","","","","","","","","","","","",""
"","do_welcome","189","1052989","0.0-166.0-1.0","null","","","","null","","","","","","","","","","","","","",""
"","do_trial","190","1059972","0.0-167.0-0.0","1431.2449999852106","","","","49","0,1,0","4","forest","120","probe-52","0.507143487951147","1","0.05271205726968455","0","","","","",""
"","do_trial","191","1065865","0.0-168.0-0.0","342.27999998256564","","","","49","1,1,1","4","forest","121","probe-219","0.37631741613718284","1","0.1392109230017265","1","","","","",""
"","do_trial","192","1072836","0.0-169.0-0.0","1420.78499996569","","","","50","0,1,1","4","forest","122","probe-130","0.30299705428682394","1","0.18301027949798493","1","","","","",""
"","do_trial","193","1078711","0.0-170.0-0.0","326.7200000118464","","","","50","0,1,0","4","forest","123","probe-47","0.32343993598753057","1","0.2812526891729896","1","","","","",""
"","do_trial","194","1084818","0.0-171.0-0.0","563.0550000350922","","","","50","0,0,0","4","forest","124","probe-203","0.5486306241008481","0.9156541007279297","0.08248629140762936","0","","","","",""
"","do_trial","195","1091621","0.0-172.0-0.0","1255.3800001041964","","","","50","1,1,0","4","forest","125","probe-189","0.5775775878178641","0.7697122216700337","0.09133846769837688","1","","","","",""
"","do_trial","196","1097677","0.0-173.0-0.0","505.57999999728054","","","","50","0,1,0","4","forest","126","probe-133","0.4724715301567162","0.8480081069822917","0.05446621517921683","1","","","","",""
"","do_trial","197","1103709","0.0-174.0-0.0","485.33499997574836","","","","50","0,1,0","4","forest","127","probe-206","0.4164320315572674","0.7696710716465216","0.06351390818006161","1","","","","",""
"","do_trial","198","1109745","0.0-175.0-0.0","487.3399999924004","","","","50","1,1,0","4","forest","128","probe-115","0.4279675687425808","0.7245505251486991","0.19631774931282503","1","","","","",""
"","do_trial","199","1115921","0.0-176.0-0.0","626.215000054799","","","","50","0,1,0","4","forest","129","probe-64","0.35684973513362467","0.837559489697613","0.22854348442251812","1","","","","",""
"","do_trial","200","1121947","0.0-177.0-0.0","475.31000000890344","","","","50","1,0,0","4","forest","130","probe-200","0.5335991341975906","0.42969975873451205","0.15748387530683647","0","","","","",""
"","do_trial","201","1128077","0.0-178.0-0.0","584.8049999913201","","","","50","1,0,1","4","forest","131","probe-145","0.6727237132824534","0.3522300850891633","0.31717699566564433","0","","","","",""
"","do_trial","202","1134088","0.0-179.0-0.0","462.67499995883554","","","","49","1,0,0","4","forest","132","probe-184","0.8092481191404847","0.23227572846989955","0.5474690402795597","1","","","","",""
"","do_trial","203","1140256","0.0-180.0-0.0","616.9400000944734","","","","49","1,0,0","4","forest","133","probe-158","0.810305502636838","0.05342726416558259","0.38803288752548687","1","","","","",""
"","do_trial","204","1146099","0.0-181.0-0.0","295.2150000492111","","","","49","0,0,0","4","forest","134","probe-182","0.8850395594060982","0.06942355159930998","0.47471923110798736","0","","","","",""
"","do_trial","205","1152189","0.0-182.0-0.0","538.9549999963492","","","","49","0,0,0","4","forest","135","probe-48","0.887504513207155","0.11738846167948422","0.5585050206629714","0","","","","",""
"","do_trial","206","1158250","0.0-183.0-0.0","514.1999999759719","","","","49","1,0,0","4","forest","136","probe-99","0.9371947102932484","0.05404006875971704","0.45560509197438515","1","","","","",""
"","do_trial","207","1164393","0.0-184.0-0.0","592.865000013262","","","","51","1,0,1","4","forest","137","probe-24","0.885511743878606","0.07374904619117671","0.3902991181898605","1","","","","",""
"","do_trial","208","1170922","0.0-185.0-0.0","980.4149999981746","","","","51","1,0,1","4","forest","138","probe-194","0.929889333090359","0.300640697441257","0.29639110631088555","1","","","","",""
"","do_trial","209","1177461","0.0-186.0-0.0","987.4500000150874","","","","51","1,0,1","4","forest","139","probe-23","0.8426894536093859","0.26455674387699124","0.21367025337164613","1","","","","",""
"","do_trial","210","1183538","0.0-187.0-0.0","529.1549999965355","","","","51","1,0,0","4","forest","140","probe-118","0.925493211171445","0.27162301339923656","0.1630424578342816","0","","","","",""
"","do_trial","211","1189806","0.0-188.0-0.0","724.0100000053644","","","","51","1,0,1","4","forest","141","probe-235","0.8310240327801627","0.12923022049663715","0.18028145263628567","1","","","","",""
"","do_trial","212","1195732","0.0-189.0-0.0","382.3100000154227","","","","50","1,0,0","4","forest","142","probe-113","0.7280016550405333","0.10623382241153106","0.22651125765205596","0","","","","",""
"","do_trial","213","1201802","0.0-190.0-0.0","522.510000038892","","","","50","0,1,1","4","forest","143","probe-213","0.7327412081931266","0.18986175058792767","0.25350715712805927","1","","","","",""
"","do_trial","214","1208524","0.0-191.0-0.0","1172.9899999918416","","","","49","0,1,1","4","forest","144","probe-43","0.6304388548052662","0.10941075197265282","0.4312328167680128","0","","","","",""
"","do_trial","215","1214417","0.0-192.0-0.0","346.5549999382347","","","","49","0,0,0","4","forest","145","probe-147","0.7587871547246422","0.06417406754929109","0.3617461821430665","0","","","","",""
"","do_trial","216","1220546","0.0-193.0-0.0","579.0650000562891","","","","49","1,0,0","4","forest","146","probe-143","0.6290789158014838","0.075084956013286","0.3112683585499083","1","","","","",""
"","do_trial","217","1226449","0.0-194.0-0.0","355.06500001065433","","","","49","0,0,0","4","forest","147","probe-179","0.7692764727571978","0.08438149605747194","0.30637493331670634","0","","","","",""
"","do_trial","218","1232266","0.0-195.0-0.0","266.4199999999255","","","","50","1,0,1","4","forest","148","probe-187","0.908523198153125","0.12005952078992058","0.4759283763032585","0","","","","",""
"","do_trial","219","1238042","0.0-196.0-0.0","229.15499994996935","","","","50","1,0,0","4","forest","149","probe-102","0.9204834333114369","0.05126677009005944","0.38631410050090176","0","","","","",""
"","do_trial","220","1243929","0.0-197.0-0.0","337.0949999662116","","","","51","1,0,0","4","forest","150","probe-214","0.8683023990095018","0.1390229489545334","0.3563796896619488","0","","","","",""
"","do_trial","221","1249891","0.0-198.0-0.0","411.7349999723956","","","","51","1,0,0","4","forest","151","probe-204","0.8878318908923624","0.19501523254650488","0.30220829712613945","0","","","","",""
"","do_trial","222","1255791","0.0-199.0-0.0","349.3699999526143","","","","51","1,0,0","4","forest","152","probe-124","0.7084935970597336","0.25539734587675655","0.2785881860985803","0","","","","",""
"","do_trial","223","1261634","0.0-200.0-0.0","296.91999999340624","","","","49","1,0,0","4","forest","153","probe-111","0.7298661189644535","0.16960168713183468","0.21911296292216914","1","","","","",""
"","do_trial","224","1267737","0.0-201.0-0.0","552.3850000463426","","","","49","1,1,0","4","forest","154","probe-226","0.7543653605343354","0.18786229545717276","0.18408481490993794","1","","","","",""
"","do_trial","225","1273630","0.0-202.0-0.0","346.9899999909103","","","","49","1,0,0","4","forest","155","probe-155","0.8308335678913562","0.12220904911501318","0.11357087704986964","1","","","","",""
"","do_trial","226","1279705","0.0-203.0-0.0","525.1550000393763","","","","49","1,0,0","4","forest","156","probe-128","0.8216756317174736","0.09988981692508173","0.2903496753582647","1","","","","",""
"","do_trial","227","1285787","0.0-204.0-0.0","531.2799999956042","","","","49","0,0,0","4","forest","157","probe-199","0.8088165166183133","0.12761408176802708","0.22723381964634193","0","","","","",""
"","do_trial","228","1291733","0.0-205.0-0.0","399.32999992743134","","","","49","1,0,0","4","forest","158","probe-148","0.8147454919954217","0.1015832408597354","0.2949315543343176","1","","","","",""
"","do_trial","229","1298046","0.0-206.0-0.0","764.7100000176579","","","","49","1,0,1","4","forest","159","probe-96","0.9376286982060879","0.15021974196664184","0.31031595604680884","1","","","","",""
"","do_bye","230","1300051","0.0-207.0-0.0","null","","","","null","","","","","","","","","","","","","",""
"","do_travel","231","1312056","0.0-208.0-0.0","null","","","","null","","","","","","","","","","","","","",""
"","do_welcome","232","1314065","0.0-208.0-1.0","null","","","","null","","","","","","","","","","","","","",""
"","do_trial","233","1320770","0.0-209.0-0.0","1152.8699999907985","","","","49","1,0,0","5","countryside","160","probe-215","1","0.08855424550489949","0.2731991789741497","1","","","","",""
"","do_trial","234","1326702","0.0-210.0-0.0","384.0150000760332","","","","49","1,1,0","5","countryside","161","probe-163","1","0.25415640649612226","0.2754811618217729","1","","","","",""
"","do_trial","235","1332573","0.0-211.0-0.0","321.33000006433576","","","","49","1,0,1","5","countryside","162","probe-137","1","0.2649025246563949","0.3122613847822909","1","","","","",""
"","do_trial","236","1338469","0.0-212.0-0.0","346.8200000934303","","","","49","1,0,1","5","countryside","163","probe-171","1","0.07420786581828027","0.2445691487086307","1","","","","",""
"","do_trial","237","1344389","0.0-213.0-0.0","373.21999995037913","","","","49","0,1,1","5","countryside","164","probe-12","0.8690812512120857","0.20718079542840762","0.36729228057742996","0","","","","",""
"","do_trial","238","1350313","0.0-214.0-0.0","374.1800000425428","","","","49","1,0,0","5","countryside","165","probe-112","0.8631804252240433","0.1530891127413718","0.44982028507026756","1","","","","",""
"","do_trial","239","1356412","0.0-215.0-0.0","547.664999961853","","","","49","1,0,1","5","countryside","166","probe-14","0.7460000074237405","0.2519919938262428","0.5077776843592071","1","","","","",""
"","do_trial","240","1362884","0.0-216.0-0.0","924.0100000752136","","","","49","1,1,1","5","countryside","167","probe-119","0.849131130940161","0.30157060118751977","0.5215791379089463","1","","","","",""
"","do_trial","241","1369119","0.0-217.0-0.0","684.9650000222027","","","","49","1,0,1","5","countryside","168","probe-178","0.9454698541207281","0.22071697691762718","0.5079335874044031","1","","","","",""
"","do_trial","242","1375400","0.0-218.0-0.0","731.2849999871105","","","","49","1,0,0","5","countryside","169","probe-69","0.9069626174129092","0.14881520841546939","0.408622489174001","1","","","","",""
"","do_trial","243","1381406","0.0-219.0-0.0","456.9749999791384","","","","49","1,0,1","5","countryside","170","probe-237","0.7526182148632724","0.13688360270560385","0.6904801118384464","1","","","","",""
"","do_trial","244","1387529","0.0-220.0-0.0","573.4250000678003","","","","49","1,0,1","5","countryside","171","probe-191","0.6975931292365181","0.12490172297296073","0.6528701878735779","1","","","","",""
"","do_trial","245","1393900","0.0-221.0-0.0","819.2300000227988","","","","49","1,0,1","5","countryside","172","probe-170","0.3849786514692014","0.1223678404029543","0.7922573254522262","1","","","","",""
"","do_trial","246","1399985","0.0-222.0-0.0","537.6049999613315","","","","49","0,0,1","5","countryside","173","probe-22","0.37936828835720543","0.18147773350777294","0.870097493024612","0","","","","",""
"","do_trial","247","1405931","0.0-223.0-0.0","396.65999996941537","","","","49","0,0,1","5","countryside","174","probe-94","0.3535100453348358","0.25876096848374075","0.9119766388982775","0","","","","",""
"","do_trial","248","1411970","0.0-224.0-0.0","489.27000002004206","","","","50","0,0,1","5","countryside","175","probe-212","0.2979795560520955","0.21693023299864198","0.8656529989857822","0","","","","",""
"","do_trial","249","1417834","0.0-225.0-0.0","320.84499998018146","","","","51","0,0,0","5","countryside","176","probe-197","0.43719082429777784","0.05391725107402815","0.8560956011961867","0","","","","",""
"","do_trial","250","1423732","0.0-226.0-0.0","349.70000002067536","","","","51","1,1,1","5","countryside","177","probe-140","0.46470891798156727","0.15166802043124814","0.8989716752863197","1","","","","",""
"","do_trial","251","1429869","0.0-227.0-0.0","587.2600000584498","","","","51","1,0,1","5","countryside","178","probe-211","0.40161093084348154","0.1177691681274121","0.942352164271912","1","","","","",""
"","do_trial","252","1435973","0.0-228.0-0.0","556.8200000561774","","","","51","0,0,1","5","countryside","179","probe-125","0.3518355326260073","0.06185405281285304","0.9441884015809541","1","","","","",""
"","do_trial","253","1442018","0.0-229.0-0.0","494.8349999031052","","","","51","1,0,1","5","countryside","180","probe-240","0.4352339993069161","0.15863590716439444","0.677794079527409","1","","","","",""
"","do_trial","254","1448148","0.0-230.0-0.0","583.2800000207499","","","","51","1,0,1","5","countryside","181","probe-232","0.42693597750154133","0.17710489981574554","0.7584548327193008","1","","","","",""
"","do_trial","255","1454467","0.0-231.0-0.0","770.5299999797717","","","","51","0,0,0","5","countryside","182","probe-60","0.5493295371912991","0.10002061209290522","0.7461639942184866","0","","","","",""
"","do_trial","256","1460426","0.0-232.0-0.0","411.52000008150935","","","","51","1,0,1","5","countryside","183","probe-217","0.5706511478746532","0.1415378572393917","0.7881073474129392","1","","","","",""
"","do_trial","257","1466416","0.0-233.0-0.0","441.29999994765967","","","","51","0,1,0","5","countryside","184","probe-175","0.5592274395788696","0.22626228782629212","0.9428107368915923","0","","","","",""
"","do_trial","258","1472506","0.0-234.0-0.0","543.8549999380484","","","","51","0,0,1","5","countryside","185","probe-76","0.4000439296309245","0.32470481407525303","0.9169531755363352","1","","","","",""
"","do_trial","259","1478415","0.0-235.0-0.0","362.36000002827495","","","","51","0,0,1","5","countryside","186","probe-75","0.43194810942742545","0.20138357715749727","0.9085292867193272","1","","","","",""
"","do_trial","260","1484336","0.0-236.0-0.0","373.3099999371916","","","","51","1,0,1","5","countryside","187","probe-30","0.4865860773030804","0.05683731896968641","0.9347777030484369","1","","","","",""
"","do_trial","261","1490333","0.0-237.0-0.0","445.6299999728799","","","","51","1,0,1","5","countryside","188","probe-183","0.548325710099014","0.20370610995515878","0.75561794605234","1","","","","",""
"","do_trial","262","1496291","0.0-238.0-0.0","410.5700000654906","","","","51","0,0,1","5","countryside","189","probe-103","0.42908722420142065","0.20909653809802556","0.8974293758099287","1","","","","",""
"","do_trial","263","1502181","0.0-239.0-0.0","340.09499999228865","","","","51","0,0,1","5","countryside","190","probe-169","0.5018568380123732","0.19452660674586933","0.871498137720168","1","","","","",""
"","do_trial","264","1508276","0.0-240.0-0.0","544.9849999276921","","","","51","1,0,1","5","countryside","191","probe-17","0.4416993406457461","0.063028823214643","0.9002532580733442","1","","","","",""
"","do_trial","265","1514196","0.0-241.0-0.0","373.96500003524125","","","","51","1,0,1","5","countryside","192","probe-44","0.37683199959486213","0.20043471856295328","0.871512917878316","1","","","","",""
"","do_trial","266","1520179","0.0-242.0-0.0","429.5050000073388","","","","51","0,0,1","5","countryside","193","probe-82","0.3455206695972853","0.17941012913958113","0.8510754998436627","1","","","","",""
"","do_trial","267","1526137","0.0-243.0-0.0","407.69499994348735","","","","51","1,0,0","5","countryside","194","probe-207","0.42825257736138456","0.25254217551457325","0.7542017757809698","0","","","","",""
"","do_trial","268","1532048","0.0-244.0-0.0","362.239999929443","","","","51","0,0,1","5","countryside","195","probe-04","0.418373574265526","0.06977715804587843","0.9050444322743966","1","","","","",""
"","do_trial","269","1538133","0.0-245.0-0.0","532.8499999595806","","","","51","0,0,0","5","countryside","196","probe-196","0.24480202103163398","0.13182712661570176","0.7780884922425042","0","","","","",""
"","do_trial","270","1544139","0.0-246.0-0.0","457.4950000969693","","","","51","0,1,1","5","countryside","197","probe-61","0.14692114893955208","0.1393214145640483","0.8541012548482881","1","","","","",""
"","do_trial","271","1550025","0.0-247.0-0.0","337.12999999988824","","","","51","0,1,0","5","countryside","198","probe-87","0.16555752817220154","0.20605081509392403","0.8412686267573957","0","","","","",""
"","do_trial","272","1555930","0.0-248.0-0.0","352.4900000775233","","","","51","0,0,0","5","countryside","199","probe-91","0.37224341451099874","0.2345567367996697","0.8109894857546985","0","","","","",""
"","do_bye","273","1557937","0.0-249.0-0.0","null","","","","null","","","","","","","","","","","","","",""
"","do_travel","274","1569940","0.0-250.0-0.0","null","","","","null","","","","","","","","","","","","","",""
"","do_welcome","275","1571945","0.0-250.0-1.0","null","","","","null","","","","","","","","","","","","","",""
"","do_trial","276","1576595","0.0-251.0-0.0","1099.155000061728","","","","49","0,0,1","6","blank","200","null","0.404104118670628","0.20362032441158925","1","0","","","","",""
"","do_trial","277","1580448","0.0-252.0-0.0","304.82499999925494","","","","49","1,0,1","6","blank","201","null","0.46445656783548284","0.19961202772646452","1","1","","","","",""
"","do_trial","278","1584293","0.0-253.0-0.0","297.9449999984354","","","","49","1,0,1","6","blank","202","null","0.5366842788926224","0.14569812558647305","1","1","","","","",""
"","do_trial","279","1588187","0.0-254.0-0.0","349.0599999204278","","","","49","1,1,1","6","blank","203","null","0.4353403049829818","0.11186540644961931","1","1","","","","",""
"","do_trial","280","1592065","0.0-255.0-0.0","330.2599999587983","","","","50","0,0,1","6","blank","204","null","0.27072911428845436","0.13890531032276368","0.8736232992534929","0","","","","",""
"","do_trial","281","1595984","0.0-256.0-0.0","370.60000002384186","","","","49","0,0,0","6","blank","205","null","0.32753545082296415","0.07143752334830732","0.8855412133398015","0","","","","",""
"","do_trial","282","1599848","0.0-257.0-0.0","315.4199999989942","","","","51","0,0,1","6","blank","206","null","0.5211311636671958","0.13594879102549023","0.892334817887803","1","","","","",""
"","do_trial","283","1603717","0.0-258.0-0.0","323.3600000385195","","","","50","1,1,1","6","blank","207","null","0.47803771306182335","0.10817298020788428","0.9287240180551527","1","","","","",""
"","do_trial","284","1607540","0.0-259.0-0.0","274.4100000709295","","","","49","1,0,1","6","blank","208","null","0.49146004127124526","0.09630845704056575","0.8946478194088462","1","","","","",""
"","do_trial","285","1611368","0.0-260.0-0.0","274.2749999742955","","","","51","1,1,1","6","blank","209","null","0.3786325368205798","0.18117217231969335","0.9094664473048103","1","","","","",""
"","do_trial","286","1615300","0.0-261.0-0.0","384.42499993834645","","","","51","0,1,0","6","blank","210","null","0.21728560308915776","0.5657216773496301","0.634267297199014","0","","","","",""
"","do_trial","287","1619173","0.0-262.0-0.0","326.2999999569729","","","","51","0,1,0","6","blank","211","null","0.33140269059674327","0.6870381254304568","0.34051828057481665","0","","","","",""
"","do_trial","288","1623048","0.0-263.0-0.0","325.94499993138015","","","","51","1,1,0","6","blank","212","null","0.4781266716060298","0.7573588185112959","0.25646464095844074","0","","","","",""
"","do_trial","289","1627229","0.0-264.0-0.0","628.4300000406802","","","","51","1,1,0","6","blank","213","null","0.35301792345155975","0.7233303305221626","0.21404914325581095","0","","","","",""
"","do_trial","290","1631290","0.0-265.0-0.0","511.4049999974668","","","","51","0,1,1","6","blank","214","null","0.34501482061653216","0.7892425421245911","0.2350306742777122","1","","","","",""
"","do_trial","291","1635533","0.0-266.0-0.0","694.3200000096112","","","","51","1,1,1","6","blank","215","null","0.4792238351745008","0.8185781154890109","0.23764088728387656","1","","","","",""
"","do_trial","292","1639620","0.0-267.0-0.0","539.5299999509007","","","","51","1,1,0","6","blank","216","null","0.4629009521751916","0.870000868932254","0.18504523837282466","0","","","","",""
"","do_trial","293","1643694","0.0-268.0-0.0","526.9400000106543","","","","49","1,1,0","6","blank","217","null","0.4082615021199358","0.9496983098551998","0.061727937234861696","1","","","","",""
"","do_trial","294","1647804","0.0-269.0-0.0","563.6849999427795","","","","50","0,1,0","6","blank","218","null","0.5068859663394043","0.8498689575235353","0.10736394173926594","1","","","","",""
"","do_trial","295","1651659","0.0-270.0-0.0","306.3299999339506","","","","49","1,1,0","6","blank","219","null","0.5267910574302677","0.8862308494438105","0.0857484444703884","1","","","","",""
"","do_trial","296","1655692","0.0-271.0-0.0","486.45500000566244","","","","49","1,1,0","6","blank","220","null","0.37126692405037487","0.8403121028624289","0.1817589583214836","1","","","","",""
"","do_trial","297","1659317","0.0-272.0-0.0","76.79500000085682","","","","49","0,1,0","6","blank","221","null","0.3424185522258733","0.7643526169756218","0.166955481813439","0","","","","",""
"","do_trial","298","1664075","0.0-273.0-0.0","1212.7449999097735","","","","50","1,1,0","6","blank","222","null","0.251989641617053","0.9395474277763565","0.14260185085454785","1","","","","",""
"","do_trial","299","1668073","0.0-274.0-0.0","448.9449999528006","","","","51","0,1,1","6","blank","223","null","0.4062448337996846","0.8807288802057122","0.21680397714922145","1","","","","",""
"","do_trial","300","1672610","0.0-275.0-0.0","988.6399999959394","","","","49","1,1,0","6","blank","224","null","0.6437947416255215","0.9439207599215056","0.20923595001774672","1","","","","",""
"","do_trial","301","1676562","0.0-276.0-0.0","404.5600000536069","","","","50","1,1,0","6","blank","225","null","0.5455819714027662","0.9224396921289666","0.2668476883113713","1","","","","",""
"","do_trial","302","1680782","0.0-277.0-0.0","674.1500000935048","","","","51","0,1,0","6","blank","226","null","0.5693774283569689","0.8639647176106812","0.05468432470385595","0","","","","",""
"","do_trial","303","1684847","0.0-278.0-0.0","502.8200000524521","","","","50","1,1,0","6","blank","227","null","0.5149978027697176","0.9404313004000369","0.1560601467991809","1","","","","",""
"","do_trial","304","1688897","0.0-279.0-0.0","505.2849999628961","","","","50","0,1,0","6","blank","228","null","0.5296641072059322","0.8459518147505513","0.086752196534135","1","","","","",""
"","do_trial","305","1693060","0.0-280.0-0.0","617.204999900423","","","","50","1,1,0","6","blank","229","null","0.5282456499420032","0.7939200212663218","0.16254332177379915","1","","","","",""
"","do_trial","306","1696998","0.0-281.0-0.0","393.3850000612438","","","","50","0,1,0","6","blank","230","null","0.5777160041370138","0.8186186548570767","0.09807217459696574","1","","","","",""
"","do_trial","307","1700908","0.0-282.0-0.0","365.69999996572733","","","","50","0,1,0","6","blank","231","null","0.44404538290344675","0.9182670188720381","0.12841101248491335","1","","","","",""
"","do_trial","308","1705073","0.0-283.0-0.0","616.3400000659749","","","","50","0,1,0","6","blank","232","null","0.40623082330422544","0.9114997797948827","0.12786086415999848","1","","","","",""
"","do_trial","309","1708987","0.0-284.0-0.0","367.22999997437","","","","50","0,1,0","6","blank","233","null","0.23216183399829188","0.8258991572471831","0.06223688248770347","1","","","","",""
"","do_trial","310","1713180","0.0-285.0-0.0","646.8350000213832","","","","50","1,0,0","6","blank","234","null","0.3347974297944934","0.8224774804910309","0.22045673264884802","0","","","","",""
"","do_trial","311","1717123","0.0-286.0-0.0","399.3750000372529","","","","50","1,1,0","6","blank","235","null","0.35147686145017204","0.9014286164416543","0.14703581147175865","1","","","","",""
"","do_trial","312","1721865","0.0-287.0-0.0","1196.570000029169","","","","50","0,0,0","6","blank","236","null","0.4277083692149073","0.8337746675106646","0.14920405263569655","0","","","","",""
"","do_trial","313","1725900","0.0-288.0-0.0","490.40999996941537","","","","50","1,1,0","6","blank","237","null","0.45266422868615225","0.8346710868371612","0.09633921206896835","1","","","","",""
"","do_trial","314","1729961","0.0-289.0-0.0","515.4349999502301","","","","50","1,1,0","6","blank","238","null","0.556834832776732","0.9172796078812422","0.10803558558263845","1","","","","",""
"","do_trial","315","1733851","0.0-290.0-0.0","343.07499998249114","","","","50","0,1,0","6","blank","239","null","0.49957099007752","0.8523775558583765","0.05148548290184117","1","","","","",""
"","do_bye","316","1735855","0.0-291.0-0.0","null","","","","null","","","","","","","","","","","","","",""
"","html-keyboard-response","317","1741883","0.0-291.0-1.0","6026.370000094175","<div class='center'><p>You may take a break now!</p><p> Stretch for a little bit. Get a glass of water.</p><p> You have two minutes to rest. Then, the game will automatically move on.</p><p>If you’d like to get started on the second half of the experiment sooner, then press the <b>space bar</b></p></div>","32","","","","","","","","","","","","","","","",""
"","html-keyboard-response","318","1746720","0.0-291.0-2.0","4836.750000016764","<div class='center'><p>You’ve arrived at the final destination of your journey! Unfortunately, it’s very foggy out, so you won’t be able to see it in the distance like in previous places you've visited.</p><p>You’ll still be deciding which pirates you want to rob ships. However, because of the fog you also won’t be able to see the ship in the distance. </p><p><b>[Press the space bar to continue]</b></p></div>","32","","","","","","","","","","","","","","","",""
"","html-keyboard-response","319","1761397","0.0-291.0-3.0","14675.180000020191","<div class='center'><p> Sometimes you’ll be asked if you’ve seen a ship before. You will use the 5, 6, 7, 8 buttons on your keyboard to respond. </p><p> If you definitely did not the ship, pick the the big red thumbs down by pressing <b>5</b>.</p><p> If you don’t think you saw it but aren’t sure, then pick the small red thumbs down by pressing <b>6</b>.</p><p> If you think you might have seen it, then pick the small green thumbs up by pressing <b>7</b>.</p><p> If you definitely did see this ship before, then pick the big thumb green thumbs up by pressing <b>8</b>.</p><p> If you remember correctly, then you’ll get a gold coin!</p><p><b>[Press the space bar to begin the next phase of the experiment]</b></p><p><img src='run_exp/static/images/example_recog_trial.png' height='500'></p></div>","32","","","","","","","","","","","","","","","",""
"","do_trial","320","1767449","0.0-292.0-0.0","null","","","","null","0,1,0","6","blank","240","null","0.5324485389371388","1","0.08390544672579653","","","","","",""
"","do_recog","321","1771625","0.0-293.0-0.0","2667.0000000158325","","","","53","","","","241","probe-250","","","","","0","[object Object]","null","null","1"
"","do_trial","322","1776075","0.0-294.0-0.0","899.449999909848","","","","49","0,1,0","6","blank","242","null","0.33934941595627566","0.8780093738107375","0.120439535080885","0","","","","",""
"","do_trial","323","1779895","0.0-295.0-0.0","274.6000000042841","","","","50","0,1,0","6","blank","243","null","0.34531242246778193","0.8810234120906014","0.11992168250259853","1","","","","",""
"","do_recog","324","1783603","0.0-296.0-0.0","2200.7250000024214","","","","53","","","","244","probe-21","","","","","1","[object Object]","209","5","0"
"","do_trial","325","1787879","0.0-297.0-0.0","726.7449999926612","","","","51","1,1,0","6","blank","245","null","0.32302778255417935","0.8819060755072771","0.07094585613798154","0","","","","",""
"","do_trial","326","1791710","0.0-298.0-0.0","283.5100000957027","","","","50","1,1,0","6","blank","246","null","0.5220182660708836","0.9155742320587661","0.08681324916418813","1","","","","",""
"","do_trial","327","1795689","0.0-299.0-0.0","429.21500001102686","","","","49","1,1,0","6","blank","247","null","0.513686290658407","0.906050191583485","0.17043522673742548","1","","","","",""
"","do_recog","328","1799106","0.0-300.0-0.0","1908.8100000517443","","","","55","","","","248","probe-86","","","","","1","[object Object]","83","2","1"
"","do_trial","329","1803268","0.0-301.0-0.0","613.634999957867","","","","50","0,1,0","6","blank","249","null","0.49525214046483124","0.9433771383115016","0.22859758858581572","1","","","","",""
"","do_recog","330","1806273","0.0-302.0-0.0","1497.8700000792742","","","","55","","","","250","probe-69","","","","","1","[object Object]","169","4","1"
"","do_trial","331","1810538","0.0-303.0-0.0","713.9050000114366","","","","49","0,1,0","6","blank","251","null","0.42908146104943645","0.9013456104257671","0.0623115116836558","0","","","","",""
"","do_recog","332","1813591","0.0-304.0-0.0","1543.79499994684","","","","55","","","","252","probe-84","","","","","1","[object Object]","80","2","1"
"","do_trial","333","1817672","0.0-305.0-0.0","529.1000000433996","","","","50","1,1,0","6","blank","253","null","0.5096561922675824","0.9043217534840925","0.06580736171496102","1","","","","",""
"","do_trial","334","1821667","0.0-306.0-0.0","446.6500000562519","","","","51","0,1,1","6","blank","254","null","0.4831454551055039","0.9289687325538191","0.07812807872510269","1","","","","",""
"","do_recog","335","1824322","0.0-307.0-0.0","1146.5450000250712","","","","55","","","","255","probe-167","","","","","1","[object Object]","208","5","1"
"","do_trial","336","1828440","0.0-308.0-0.0","570.3950000461191","","","","50","0,0,0","6","blank","256","null","0.29898776499334384","0.7401205145039227","0.3258061559963201","0","","","","",""
"","do_recog","337","1831558","0.0-309.0-0.0","1610.3600000496954","","","","53","","","","257","probe-115","","","","","1","[object Object]","128","3","0"
"","do_trial","338","1835447","0.0-310.0-0.0","342.4000000813976","","","","51","0,1,1","6","blank","258","null","0.20037371197720913","0.6567117094691364","0.6145109008558121","1","","","","",""
"","do_recog","339","1838243","0.0-311.0-0.0","1284.745000069961","","","","55","","","","259","probe-203","","","","","1","[object Object]","124","3","1"
"","do_trial","340","1842269","0.0-312.0-0.0","478.66000002250075","","","","51","0,0,1","6","blank","260","null","0.2706770253850355","0.3670421211637475","0.8446016120323523","1","","","","",""
"","do_recog","341","1844887","0.0-313.0-0.0","1109.0450000483543","","","","55","","","","261","probe-25","","","","","1","[object Object]","201","5","1"
"","do_trial","342","1848785","0.0-314.0-0.0","349.0349999628961","","","","50","0,0,1","6","blank","262","null","0.1800056540565614","0.446686585750968","0.8604280564077191","0","","","","",""
"","do_recog","343","1851373","0.0-315.0-0.0","1077.7699999744073","","","","55","","","","263","probe-135","","","","","1","[object Object]","87","2","1"
"","do_trial","344","1855550","0.0-316.0-0.0","627.1249999990687","","","","51","1,0,1","6","blank","264","null","0.06736821321939049","0.3631844418496922","0.8838217139048941","1","","","","",""
"","do_trial","345","1859793","0.0-317.0-0.0","696.5750000672415","","","","51","1,1,1","6","blank","265","null","0.07912503392526835","0.5363901675194476","0.8891228093538617","1","","","","",""
"","do_trial","346","1863976","0.0-318.0-0.0","635.8649999601766","","","","50","0,0,1","6","blank","266","null","0.21286523263078927","0.4671053431740512","0.9292535147186247","0","","","","",""
"","do_recog","347","1868262","0.0-319.0-0.0","2776.190000004135","","","","55","","","","267","probe-112","","","","","1","[object Object]","165","4","1"
"","do_trial","348","1872359","0.0-320.0-0.0","547.5700000533834","","","","51","0,0,0","6","blank","268","null","0.1141822433498151","0.5861756031336673","0.8610958334384248","0","","","","",""
"","do_recog","349","1875483","0.0-321.0-0.0","1615.9650000045076","","","","55","","","","269","probe-68","","","","","1","[object Object]","49","1","1"
"","do_trial","350","1879722","0.0-322.0-0.0","693.7199999811128","","","","50","0,1,1","6","blank","270","null","0.12325392712860815","0.4362923306852721","0.7534943016259997","1","","","","",""
"","do_trial","351","1883704","0.0-323.0-0.0","433.07499994989485","","","","50","0,0,0","6","blank","271","null","0.05687997489381414","0.2585817576438306","0.8826265257785965","0","","","","",""
"","do_recog","352","1886609","0.0-324.0-0.0","1398.1599999824539","","","","55","","","","272","probe-177","","","","","1","[object Object]","204","5","1"
"","do_trial","353","1890743","0.0-325.0-0.0","586.3599999574944","","","","49","0,0,1","6","blank","273","null","0.06392253703242065","0.30748422963189576","0.870850159277782","0","","","","",""
"","do_trial","354","1894606","0.0-326.0-0.0","316.79000006988645","","","","51","1,0,1","6","blank","274","null","0.16281643915843277","0.3125677398295635","0.9246108723445754","1","","","","",""
"","do_recog","355","1897545","0.0-327.0-0.0","1428.3449999056756","","","","55","","","","275","probe-247","","","","","0","[object Object]","null","null","0"
"","do_trial","356","1901471","0.0-328.0-0.0","376.4499999815598","","","","51","1,0,1","6","blank","276","null","0.2779530234189687","0.28438072263178504","0.8998859723361297","1","","","","",""
"","do_trial","357","1905572","0.0-329.0-0.0","554.4400000944734","","","","51","0,0,0","6","blank","277","null","0.26031443354933403","0.2687479460656358","0.8180914013053412","0","","","","",""
"","do_trial","358","1909468","0.0-330.0-0.0","342.5849999766797","","","","50","0,1,0","6","blank","278","null","0.31744394101333145","0.23677408872660935","0.9210272938593497","1","","","","",""
"","do_recog","359","1912610","0.0-331.0-0.0","1631.085000000894","","","","53","","","","279","probe-246","","","","","0","[object Object]","null","null","1"
"","do_trial","360","1916765","0.0-332.0-0.0","604.700000025332","","","","49","0,0,1","6","blank","280","null","0.1485942581839639","0.257542052667335","0.8920033297153458","0","","","","",""
"","do_recog","361","1919745","0.0-333.0-0.0","1469.7249999735504","","","","55","","","","281","probe-56","","","","","1","[object Object]","43","1","1"
"","do_trial","362","1923814","0.0-334.0-0.0","520.3050000127405","","","","50","0,0,1","6","blank","282","null","0.07316999865313928","0.18353653116052498","0.9346665087310649","0","","","","",""
"","do_recog","363","1926894","0.0-335.0-0.0","1570.4200000036508","","","","55","","","","283","probe-10","","","","","1","[object Object]","206","5","1"
"","do_trial","364","1930721","0.0-336.0-0.0","277.5149999652058","","","","50","0,1,1","6","blank","284","null","0.06292944704322728","0.37368555745890775","0.8813316960091404","1","","","","",""
"","do_trial","365","1935156","0.0-337.0-0.0","888.9750000089407","","","","51","0,0,0","6","blank","285","null","0.16266896254367746","0.37059949829072","0.9358182417777948","0","","","","",""
"","do_trial","366","1938940","0.0-338.0-0.0","237.4050000216812","","","","49","0,1,1","6","blank","286","null","0.10636459757177569","0.32536798151236107","0.8993326267262717","0","","","","",""
"","do_recog","367","1943209","0.0-339.0-0.0","2760.4049999499694","","","","55","","","","287","probe-52","","","","","1","[object Object]","120","3","1"
"","do_trial","368","1947638","0.0-340.0-0.0","876.7900000093505","","","","51","0,0,1","6","blank","288","null","0.259579565334776","0.328096412637762","1","1","","","","",""
"","do_trial","369","1951840","0.0-341.0-0.0","652.6399999856949","","","","51","0,1,1","6","blank","289","null","0.19107883010823737","0.39772017574364377","0.8580948760414507","1","","","","",""
"","do_trial","370","1955778","0.0-342.0-0.0","390.3400000417605","","","","51","0,0,1","6","blank","290","null","0.18248194589951086","0.3719631290822599","0.9154914325047239","1","","","","",""
"","do_trial","371","1959885","0.0-343.0-0.0","559.1499999864027","","","","51","0,0,1","6","blank","291","null","0.11534564649375079","0.262486023632738","0.899621414094759","1","","","","",""
"","do_recog","372","1963273","0.0-344.0-0.0","1876.4550000196323","","","","55","","","","292","probe-133","","","","","1","[object Object]","126","3","1"
"","do_trial","373","1967540","0.0-345.0-0.0","715.8699999563396","","","","50","0,0,1","6","blank","293","null","0.10324283363536338","0.33977686589509754","0.8628055624348947","0","","","","",""
"","do_recog","374","1970712","0.0-346.0-0.0","1661.119999946095","","","","55","","","","294","probe-202","","","","","1","[object Object]","81","2","1"
"","do_trial","375","1975022","0.0-347.0-0.0","763.5949999094009","","","","51","0,0,1","6","blank","295","null","0.057475038607848895","0.3690027437719953","0.8653788697481273","1","","","","",""
"","do_recog","376","1978073","0.0-348.0-0.0","1542.215000023134","","","","55","","","","296","probe-256","","","","","0","[object Object]","null","null","0"
"","do_trial","377","1982047","0.0-349.0-0.0","425.58999999891967","","","","49","0,1,1","6","blank","297","null","0.1115863300344776","0.4656056364304783","0.9010905972972407","0","","","","",""
"","do_trial","378","1985972","0.0-350.0-0.0","375.95999997574836","","","","50","0,0,1","6","blank","298","null","0.1715944182110605","0.4989793573023796","0.850134154013366","0","","","","",""
"","do_trial","379","1990112","0.0-351.0-0.0","592.5999999744818","","","","51","0,1,1","6","blank","299","null","0.12877102474840296","0.5056168395125947","0.8783356799379272","1","","","","",""
"","do_trial","380","1994484","0.0-352.0-0.0","824.0900000091642","","","","51","0,1,1","6","blank","300","null","0.08183234234340564","0.47450878784767925","0.9108983367692735","1","","","","",""
"","do_trial","381","1998678","0.0-353.0-0.0","643.404999980703","","","","51","0,0,0","6","blank","301","null","0.11769514445954306","0.4372764872376761","0.8535410356617286","0","","","","",""
"","do_trial","382","2003240","0.0-354.0-0.0","1013.9250000938773","","","","49","0,1,1","6","blank","302","null","0.20649943606656349","0.3631666090473957","0.7928729633333673","0","","","","",""
"","do_recog","383","2006676","0.0-355.0-0.0","1927.1749999606982","","","","55","","","","303","probe-257","","","","","0","[object Object]","null","null","0"
"","do_trial","384","2010717","0.0-356.0-0.0","489.4900000654161","","","","50","1,1,0","6","blank","304","null","0.2667969443488958","0.4225118459182411","0.5404888356247909","1","","","","",""
"","do_recog","385","2013706","0.0-357.0-0.0","1480.8500000508502","","","","55","","","","305","probe-146","","","","","1","[object Object]","44","1","1"
"","do_trial","386","2017930","0.0-358.0-0.0","678.9649999700487","","","","50","0,1,0","6","blank","306","null","0.4039960925730729","0.6636294635775437","0.48398404023683855","1","","","","",""
"","do_recog","387","2020839","0.0-359.0-0.0","1400.5249999463558","","","","55","","","","307","probe-12","","","","","1","[object Object]","164","4","1"
"","do_trial","388","2024896","0.0-360.0-0.0","509.6950000151992","","","","51","0,0,0","6","blank","308","null","0.1321822972322846","0.8714956927568187","0.4808322538288208","0","","","","",""
"","do_recog","389","2027973","0.0-361.0-0.0","1567.4550000112504","","","","55","","","","309","probe-137","","","","","1","[object Object]","162","4","1"
"","do_trial","390","2032360","0.0-362.0-0.0","841.8049999745563","","","","49","0,1,1","6","blank","310","null","0.1018083813267539","0.8262063873461942","0.41511514190491516","0","","","","",""
"","do_recog","391","2036330","0.0-363.0-0.0","2460.0050000008196","","","","55","","","","311","probe-119","","","","","1","[object Object]","167","4","1"
"","do_trial","392","2040498","0.0-364.0-0.0","617.8749999962747","","","","51","0,1,1","6","blank","312","null","0.12714083457463204","0.8553220183925323","0.4905667153928579","1","","","","",""
"","do_recog","393","2043647","0.0-365.0-0.0","1642.214999999851","","","","55","","","","313","probe-219","","","","","1","[object Object]","121","3","1"
"","do_trial","394","2047832","0.0-366.0-0.0","633.8649999815971","","","","51","0,1,1","6","blank","314","null","0.2674221022132901","0.6705207412984331","0.37897734932225147","1","","","","",""
"","do_trial","395","2051781","0.0-367.0-0.0","399.87500000279397","","","","51","1,1,0","6","blank","315","null","0.06389990550777737","0.7639715766597399","0.2733147651502761","0","","","","",""
"","do_trial","396","2055767","0.0-368.0-0.0","437.4149999348447","","","","49","0,1,1","6","blank","316","null","0.13426210414816922","0.697910001206612","0.4382187080581036","0","","","","",""
"","do_trial","397","2059837","0.0-369.0-0.0","522.6150000235066","","","","50","0,1,1","6","blank","317","null","0.17290671336347532","0.8118517729255704","0.556845406954394","1","","","","",""
"","do_trial","398","2063732","0.0-370.0-0.0","347.5999999791384","","","","51","0,1,1","6","blank","318","null","0.28785321974094585","0.8621508991376219","0.400351106187482","1","","","","",""
"","do_trial","399","2067725","0.0-371.0-0.0","445.37500001024455","","","","50","0,1,1","6","blank","319","null","0.2046595889433211","0.93529915950979","0.3823959850790145","1","","","","",""
"","do_recog","400","2070593","0.0-372.0-0.0","1358.3249999210238","","","","55","","","","320","probe-151","","","","","1","[object Object]","45","1","1"
"","do_trial","401","2075028","0.0-373.0-0.0","886.7049999535084","","","","49","0,1,0","6","blank","321","null","0.08866005697042352","0.936027553872284","0.4060720059373017","0","","","","",""
"","do_recog","402","2077884","0.0-374.0-0.0","1345.7349999807775","","","","55","","","","322","probe-121","","","","","1","[object Object]","205","5","1"
"","do_trial","403","2082321","0.0-375.0-0.0","890.9500000299886","","","","50","0,1,0","6","blank","323","null","0.1576150630808336","0.8358372535601671","0.43671976909022936","1","","","","",""
"","do_trial","404","2086281","0.0-376.0-0.0","408.5099999792874","","","","51","0,1,0","6","blank","324","null","0.12420242516397828","0.8813019675616057","0.32255182588879827","0","","","","",""
"","do_recog","405","2089319","0.0-377.0-0.0","1526.8449999857694","","","","55","","","","325","probe-159","","","","","1","[object Object]","85","2","1"
"","do_trial","406","2094064","0.0-378.0-0.0","1197.3899999866262","","","","49","1,1,0","6","blank","326","null","0.22135869360108856","0.8115688365128708","0.24108541004388684","1","","","","",""
"","do_trial","407","2098253","0.0-379.0-0.0","638.4300000499934","","","","50","0,1,0","6","blank","327","null","0.21449103671523426","0.8514041882367649","0.38019759002242787","1","","","","",""
"","do_trial","408","2102180","0.0-380.0-0.0","372.8750000009313","","","","49","0,1,0","6","blank","328","null","0.28257513778894755","0.8388615769326642","0.40970431522498935","0","","","","",""
"","do_recog","409","2105603","0.0-381.0-0.0","1912.8750000381842","","","","55","","","","329","probe-142","","","","","1","[object Object]","41","1","1"
"","do_trial","410","2109940","0.0-382.0-0.0","789.0650000190362","","","","51","1,1,0","6","blank","330","null","0.24677136866354066","0.82895389954884","0.29274223515813264","0","","","","",""
"","do_trial","411","2113900","0.0-383.0-0.0","410.55000002961606","","","","50","0,1,1","6","blank","331","null","0.09403544122883123","1","0.37301499610819117","1","","","","",""
"","do_trial","412","2117800","0.0-384.0-0.0","354.3749999953434","","","","49","0,1,0","6","blank","332","null","0.14939221965440896","0.8454976182662252","0.3750782204392634","0","","","","",""
"","do_trial","413","2122010","0.0-385.0-0.0","661.8299999972805","","","","50","1,1,0","6","blank","333","null","0.07828253433063094","0.7846456466287088","0.27852891261534896","1","","","","",""
"","do_recog","414","2125053","0.0-386.0-0.0","1535.730000003241","","","","55","","","","334","probe-49","","","","","1","[object Object]","200","5","1"
"","do_trial","415","2129078","0.0-387.0-0.0","476.0249999817461","","","","50","0,1,0","6","blank","335","null","0.07844728290525528","0.7893751763802115","0.245928768464752","1","","","","",""
"","do_recog","416","2131924","0.0-388.0-0.0","1337.8950000042096","","","","55","","","","336","probe-172","","","","","1","[object Object]","84","2","1"
"","do_trial","417","2136435","0.0-389.0-0.0","961.7999999318272","","","","51","1,0,0","6","blank","337","null","0.15465892771126133","0.7065613305250346","0.378888094623898","0","","","","",""
"","do_recog","418","2139156","0.0-390.0-0.0","1211.684999987483","","","","55","","","","338","probe-178","","","","","1","[object Object]","168","4","1"
"","do_trial","419","2143780","0.0-391.0-0.0","1076.299999956973","","","","49","0,1,1","6","blank","339","null","0.13949086510495065","0.7320278209665024","0.350671743756968","0","","","","",""
"","do_trial","420","2148544","0.0-392.0-0.0","1216.0499999299645","","","","50","1,0,0","6","blank","340","null","0.18265378290621676","0.637038812368571","0.4496461491417003","0","","","","",""
"","do_recog","421","2151325","0.0-393.0-0.0","1272.7700000395998","","","","55","","","","341","probe-64","","","","","1","[object Object]","129","3","1"
"","do_trial","422","2155232","0.0-394.0-0.0","358.08999999426305","","","","51","0,1,1","6","blank","342","null","0.10218231608303706","0.8571726891959424","0.4652344504429662","1","","","","",""
"","do_recog","423","2158169","0.0-395.0-0.0","1425.7099999813363","","","","55","","","","343","probe-51","","","","","1","[object Object]","47","1","1"
"","do_trial","424","2162111","0.0-396.0-0.0","391.4199999999255","","","","50","0,1,0","6","blank","344","null","0.1615201445785743","0.71565359190273","0.3746654513994211","1","","","","",""
"","do_recog","425","2164970","0.0-397.0-0.0","1346.8599999323487","","","","55","","","","345","probe-66","","","","","1","[object Object]","42","1","1"
"","do_trial","426","2169346","0.0-398.0-0.0","826.1999998940155","","","","49","0,1,1","6","blank","346","null","0.09931318102371664","0.8802161921919616","0.43891401931314206","0","","","","",""
"","do_trial","427","2173849","0.0-399.0-0.0","954.4349999632686","","","","50","0,1,0","6","blank","347","null","0.3344428818564258","0.47020667011724165","0.3531927742404756","1","","","","",""
"","do_trial","428","2177833","0.0-400.0-0.0","434.07999991904944","","","","50","1,0,0","6","blank","348","null","0.4539018140653264","0.2938146965635713","0.3391872406839271","0","","","","",""
"","do_recog","429","2180486","0.0-401.0-0.0","1144.6299999952316","","","","55","","","","349","probe-16","","","","","1","[object Object]","88","2","1"
"","do_trial","430","2184507","0.0-402.0-0.0","470.5100000137463","","","","51","1,0,1","6","blank","350","null","0.6216180794755526","0.22878668626668702","0.4326273225569479","1","","","","",""
"","do_recog","431","2188655","0.0-403.0-0.0","2638.139999937266","","","","53","","","","351","probe-139","","","","","1","[object Object]","89","2","0"
"","do_trial","432","2192506","0.0-404.0-0.0","304.14000002201647","","","","51","1,0,0","6","blank","352","null","0.6834347713926274","0.07294615864997987","0.4901668591808269","0","","","","",""
"","do_recog","433","2195136","0.0-405.0-0.0","1123.8649999722838","","","","55","","","","353","probe-163","","","","","1","[object Object]","161","4","1"
"","do_trial","434","2199074","0.0-406.0-0.0","385.63999999314547","","","","50","1,0,0","6","blank","354","null","0.7694217631508218","0.16924528237065958","0.3648264514539959","0","","","","",""
"","do_trial","435","2203115","0.0-407.0-0.0","492.339999997057","","","","49","1,0,0","6","blank","355","null","0.7669162437865117","0.07332897597846973","0.30395253988110976","1","","","","",""
"","do_trial","436","2207353","0.0-408.0-0.0","689.7650000173599","","","","49","1,0,1","6","blank","356","null","0.8861211077218802","0.1087380671222547","0.16418767426581612","1","","","","",""
"","do_trial","437","2211417","0.0-409.0-0.0","519.1650000633672","","","","49","0,0,0","6","blank","357","null","0.8753842612587112","0.1349587957543654","0.27739588117909636","0","","","","",""
"","do_trial","438","2215638","0.0-410.0-0.0","675.385000067763","","","","49","0,0,0","6","blank","358","null","0.9389244936112544","0.11399397710426185","0.3835981709321658","0","","","","",""
"","do_recog","439","2219017","0.0-411.0-0.0","1872.0000000903383","","","","53","","","","359","probe-206","","","","","1","[object Object]","127","3","0"
"","do_trial","440","2222895","0.0-412.0-0.0","327.27500004693866","","","","50","1,0,0","6","blank","360","null","0.9007828135184894","0.07496905688897709","0.3337546467556307","0","","","","",""
"","do_trial","441","2226807","0.0-413.0-0.0","365.21499999798834","","","","49","1,0,0","6","blank","361","null","0.8287495793581693","0.1207025810556688","0.25435874503271183","1","","","","",""
"","do_trial","442","2230917","0.0-414.0-0.0","560.8200000133365","","","","51","1,1,0","6","blank","362","null","0.9014440826811749","0.14608881677554456","0.34802772321711545","0","","","","",""
"","do_recog","443","2234380","0.0-415.0-0.0","1954.5950000174344","","","","53","","","","363","probe-47","","","","","1","[object Object]","123","3","0"
"","do_trial","444","2238412","0.0-416.0-0.0","481.95000004488975","","","","51","1,1,0","6","blank","364","null","0.9375586428913053","0.15934594791880033","0.4721951438532351","0","","","","",""
"","do_trial","445","2242481","0.0-417.0-0.0","518.2450000429526","","","","51","1,0,1","6","blank","365","null","0.7930742692134388","0.07712685983209246","0.38578461035884276","1","","","","",""
"","do_recog","446","2245362","0.0-418.0-0.0","1372.0850000390783","","","","54","","","","366","probe-101","","","","","1","[object Object]","48","1","0"
"","do_trial","447","2249671","0.0-419.0-0.0","760.370000032708","","","","51","0,0,0","6","blank","367","null","0.8577879615638182","0.07005262424159615","0.35918520080056565","0","","","","",""
"","do_trial","448","2253496","0.0-420.0-0.0","276.21999999973923","","","","50","1,0,1","6","blank","368","null","0.8537628621933074","0.07898687358213081","0.3302843396720129","0","","","","",""
"","do_trial","449","2257446","0.0-421.0-0.0","400.9949999162927","","","","51","1,0,0","6","blank","369","null","0.8833723157693605","0.05024654815897478","0.36944842118557497","0","","","","",""
"","do_trial","450","2261329","0.0-422.0-0.0","336.2649999326095","","","","49","1,0,0","6","blank","370","null","0.9179685990328545","0.09828648133237017","0.24454413368444675","1","","","","",""
"","do_recog","451","2264501","0.0-423.0-0.0","1664.1850000014529","","","","55","","","","371","probe-130","","","","","1","[object Object]","122","3","1"
"","do_trial","452","2268812","0.0-424.0-0.0","763.7000000104308","","","","49","1,0,0","6","blank","372","null","0.7800174971729728","0.12703837764495785","0.35857894907187904","1","","","","",""
"","do_recog","453","2272179","0.0-425.0-0.0","1860.5949999764562","","","","56","","","","373","probe-171","","","","","1","[object Object]","163","4","1"
"","do_trial","454","2276508","0.0-426.0-0.0","777.5149999652058","","","","49","1,0,1","6","blank","374","null","0.8449442778190027","0.0567538613245826","0.33077320503284774","1","","","","",""
"","do_trial","455","2280396","0.0-427.0-0.0","340.85999999661","","","","49","1,0,0","6","blank","375","null","1","0.15771248737932583","0.41095148277805976","1","","","","",""
"","do_recog","456","2283066","0.0-428.0-0.0","1161.3549999892712","","","","56","","","","376","probe-105","","","","","1","[object Object]","86","2","1"
"","do_trial","457","2287005","0.0-429.0-0.0","389.5949999568984","","","","49","1,0,0","6","blank","377","null","0.943440322465686","0.101390927396674","0.30956108127687304","1","","","","",""
"","do_recog","458","2289525","0.0-430.0-0.0","1012.0800000149757","","","","56","","","","378","probe-227","","","","","1","[object Object]","203","5","1"
"","do_trial","459","2293570","0.0-431.0-0.0","494.7499999543652","","","","49","1,0,0","6","blank","379","null","0.9046875081838214","0.16357007260782136","0.22402606234258504","1","","","","",""
"","do_recog","460","2296014","0.0-432.0-0.0","933.9349999791011","","","","56","","","","380","probe-92","","","","","1","[object Object]","82","2","1"
"","do_trial","461","2300024","0.0-433.0-0.0","462.5700000906363","","","","49","1,0,0","6","blank","381","null","0.7632485721017932","0.24014980651542459","0.4361073329200425","1","","","","",""
"","do_trial","462","2304454","0.0-434.0-0.0","882.4299999978393","","","","49","1,1,0","6","blank","382","null","0.8676919988038486","0.10310673554999054","0.470216877398575","1","","","","",""
"","do_trial","463","2308494","0.0-435.0-0.0","493.7299999874085","","","","49","1,1,1","6","blank","383","null","0.9311152632140689","0.19634683195411548","0.42228529056868735","1","","","","",""
"","do_trial","464","2312478","0.0-436.0-0.0","436.3599999342114","","","","49","1,0,0","6","blank","384","null","0.8538176045638243","0.16351828280600894","0.5780353390114015","1","","","","",""
"","do_trial","465","2316404","0.0-437.0-0.0","379.4449999695644","","","","49","1,0,0","6","blank","385","null","0.8097292105480487","0.0695300464884506","0.39808456796363273","1","","","","",""
"","do_recog","466","2319115","0.0-438.0-0.0","1201.1649999767542","","","","56","","","","386","probe-14","","","","","1","[object Object]","166","4","1"
"","do_trial","467","2323013","0.0-439.0-0.0","346.9150000018999","","","","51","0,0,0","6","blank","387","null","0.865013699012233","0.12266118412479092","0.4721845804053059","0","","","","",""
"","do_trial","468","2327276","0.0-440.0-0.0","716.7500000214204","","","","51","0,0,1","6","blank","388","null","0.5765712728526423","0.08552207322300151","0.45095849470960614","1","","","","",""
"","do_trial","469","2331330","0.0-441.0-0.0","507.28000001981854","","","","50","1,0,1","6","blank","389","null","0.4404367924074829","0.5381098073021424","0.48344260657904714","0","","","","",""
"","do_trial","470","2335158","0.0-442.0-0.0","281.14500001538545","","","","49","0,0,1","6","blank","390","null","0.23689676818577313","0.6965581515236374","0.5153258120100694","0","","","","",""
"","do_trial","471","2338964","0.0-443.0-0.0","261.0950000816956","","","","51","0,1,0","6","blank","391","null","0.27447270992927003","0.8967256215149341","0.4261144374502543","0","","","","",""
"","do_trial","472","2342813","0.0-444.0-0.0","299.7800000011921","","","","51","0,1,0","6","blank","392","null","0.13671409937033904","0.8702653246365694","0.32749855669529626","0","","","","",""
"","do_recog","473","2345436","0.0-445.0-0.0","1112.9049999872223","","","","56","","","","393","probe-215","","","","","1","[object Object]","160","4","1"
"","do_trial","474","2349355","0.0-446.0-0.0","371.94999994244426","","","","50","0,1,0","6","blank","394","null","0.06609938053515445","0.9460677947487129","0.26337167235752523","1","","","","",""
"","do_recog","475","2351846","0.0-447.0-0.0","980.9100000420585","","","","56","","","","395","probe-03","","","","","1","[object Object]","202","5","1"
"","do_trial","476","2355805","0.0-448.0-0.0","411.9349999818951","","","","50","0,1,0","6","blank","396","null","0.12632941640058395","0.8119465135223166","0.21741789386209306","1","","","","",""
"","do_recog","477","2358981","0.0-449.0-0.0","1667.4999999813735","","","","56","","","","397","probe-70","","","","","1","[object Object]","207","5","1"
