"success","trial_type","trial_index","time_elapsed","internal_node_id","rt","stimulus","key_press","subject_id","response","choice_outcomes","context_n","context_img_id","trial_n","probe_img_id","pR_red","pR_white","pR_black","outcome","is_valid","image_to_show","probed_trial","probed_context","correct"
"true","fullscreen","0","2871","0.0-0.0","","","","","","","","","","","","","","","","","","",""
"","pavlovia","1","2874","0.0-1.0","","","","","","","","","","","","","","","","","","",""
"","html-keyboard-response","2","23268","0.0-2.0","20392.599999904633","<div class='center'><p>Welcome! This experiment will last ~1 hour. In this experiment, you are the head captain of a pirate ship traveling around the world to different places. You will complete several different tasks during this experiment. Here is an overview of these tasks:</p><br><p>1. Tutorial and quiz</p><p>2. Pick a pirate game in 6 different places</p><p>3. Pick a pirate game and memory game</p><p>4. Final questions and payment</p><br><p>If you complete the entire experiment, you will receive $15 and a possible bonus payment.</p><p><b>[Press the space bar to begin the tutorial]</b></p></div>","32","614222fe31c51d3c300a3e8c","","","","","","","","","","","","","","",""
"","html-keyboard-response","3","29996","0.0-3.0","6727","<div class='center'><p>You are the head captain of a pirate ship.</p><p> Your pirates rob other ships as they leave the marketplace port.</p> These ships have just sold all their goods at the marketplace, so they have lots and lots of gold on them.</p><p><img src='run_exp/static/images/ship_center.png' height='400'></p><p><b>[Press the space bar to continue]</b></p></div>","32","","","","","","","","","","","","","","","",""
"","html-keyboard-response","4","40076","0.0-4.0","10079.200000286102","<div class='center'><p>As the head captain, you do not have to rob any ships yourself.</p><p>You get to choose which pirate you want to rob the next ship. </p><p>If they are successful at robbing the ship, then you will get gold coins.</p><p> If they are not successful, then you will get no gold coins.</p><p> The more coins you collect, the more bonus money you will win. So, choose your pirate wisely.</p><p><img src='run_exp/static/images/goal.png' height='400'></p><p><b>[Press the space bar to continue]</b></p><div>","32","","","","","","","","","","","","","","","",""
"","html-keyboard-response","5","48891","0.0-5.0","8814.900000095367","<div class='center'><p>Even the most skilled pirate will not be able to rob EVERY ship.</p><p> Some ships will have very strong defenses against attacks.</p><p> For example, blue beard, here,  is very good at robbing ships.</p><p> You can press the <b>‘1’</b> button on the keyboard to choose him.</p><p> Try choosing him 10 times to see how often he is successful at robbing ships. </p><p><img src='run_exp/static/images/blue.png' height='500'></p></div>","49","","","","","","","","","","","","","","","",""
"","html-keyboard-response","6","50408","0.0-6.0","null","<br><br><br><br><p><img src='run_exp/static/images/blue_win.png' height='500'></p>","null","","","","","","","","","","","","","","","",""
"","html-keyboard-response","7","51979","0.0-7.0","1571","<br><br><br><br><p><img src='run_exp/static/images/blue.png' height='500'></p>","49","","","","","","","","","","","","","","","",""
"","html-keyboard-response","8","53488","0.0-8.0","null","<br><br><br><br><p><img src='run_exp/static/images/blue_win.png' height='500'></p>","null","","","","","","","","","","","","","","","",""
"","html-keyboard-response","9","54123","0.0-9.0","634.5","<br><br><br><br><p><img src='run_exp/static/images/blue.png' height='500'></p>","49","","","","","","","","","","","","","","","",""
"","html-keyboard-response","10","55632","0.0-10.0","null","<br><br><br><br><p><img src='run_exp/static/images/blue_win.png' height='500'></p>","null","","","","","","","","","","","","","","","",""
"","html-keyboard-response","11","56147","0.0-11.0","515.2000002861023","<br><br><br><br><p><img src='run_exp/static/images/blue.png' height='500'></p>","49","","","","","","","","","","","","","","","",""
"","html-keyboard-response","12","57657","0.0-12.0","null","<br><br><br><br><p><img src='run_exp/static/images/blue_no_win.png' height='500'></p>","null","","","","","","","","","","","","","","","",""
"","html-keyboard-response","13","58099","0.0-13.0","441.30000019073486","<br><br><br><br><p><img src='run_exp/static/images/blue.png' height='500'></p>","49","","","","","","","","","","","","","","","",""
"","html-keyboard-response","14","59604","0.0-14.0","null","<br><br><br><br><p><img src='run_exp/static/images/blue_win.png' height='500'></p>","null","","","","","","","","","","","","","","","",""
"","html-keyboard-response","15","60195","0.0-15.0","590.9000000953674","<br><br><br><br><p><img src='run_exp/static/images/blue.png' height='500'></p>","49","","","","","","","","","","","","","","","",""
"","html-keyboard-response","16","61711","0.0-16.0","null","<br><br><br><br><p><img src='run_exp/static/images/blue_win.png' height='500'></p>","null","","","","","","","","","","","","","","","",""
"","html-keyboard-response","17","62036","0.0-17.0","324.2000002861023","<br><br><br><br><p><img src='run_exp/static/images/blue.png' height='500'></p>","49","","","","","","","","","","","","","","","",""
"","html-keyboard-response","18","63551","0.0-18.0","null","<br><br><br><br><p><img src='run_exp/static/images/blue_win.png' height='500'></p>","null","","","","","","","","","","","","","","","",""
"","html-keyboard-response","19","63843","0.0-19.0","291.6000003814697","<br><br><br><br><p><img src='run_exp/static/images/blue.png' height='500'></p>","49","","","","","","","","","","","","","","","",""
"","html-keyboard-response","20","65355","0.0-20.0","null","<br><br><br><br><p><img src='run_exp/static/images/blue_no_win.png' height='500'></p>","null","","","","","","","","","","","","","","","",""
"","html-keyboard-response","21","66187","0.0-21.0","832.0999999046326","<br><br><br><br><p><img src='run_exp/static/images/blue.png' height='500'></p>","49","","","","","","","","","","","","","","","",""
"","html-keyboard-response","22","67700","0.0-22.0","null","<br><br><br><br><p><img src='run_exp/static/images/blue_win.png' height='500'></p>","null","","","","","","","","","","","","","","","",""
"","html-keyboard-response","23","68179","0.0-23.0","478.5","<br><br><br><br><p><img src='run_exp/static/images/blue.png' height='500'></p>","49","","","","","","","","","","","","","","","",""
"","html-keyboard-response","24","69695","0.0-24.0","null","<br><br><br><br><p><img src='run_exp/static/images/blue_win.png' height='500'></p>","null","","","","","","","","","","","","","","","",""
"","html-keyboard-response","25","72956","0.0-25.0","3259.7999997138977","<div class='center'><p> See, he was successful at robbing the ships most of the time but not every time. </p><p><b>[Press the space bar to continue]</b></p></div>","32","","","","","","","","","","","","","","","",""
"","html-keyboard-response","26","83132","0.0-26.0","10175.099999904633","<div class='center'><p>In the game, you will get to choose which of three pirates you want to rob the next ship. <p>Press the <b>‘1’</b> button on your keyboard to pick the pirate with the red beard.</p><p> Press <b>‘2’</b> to pick the pirate with the white beard.</p><p> Press <b>‘3’</b> to pick the pirate with the black beard.</p><p>Try picking a pirate now!</p><p><img src='run_exp/static/images/all_pirates.png' height='500'></p></div>","49","","","","","","","","","","","","","","","",""
"","html-keyboard-response","27","84923","0.0-27.0-0.0","1790.4000000953674","<div class='center'><p>This pirate was successful at robbing the ship!</p><p><img src='run_exp/static/images/red_win.png' height='500'></p><p><b>[Press the space bar to continue]</b></p></div>","32","","","","","","","","","","","","","","","",""
"","html-keyboard-response","28","86451","0.0-27.0-1.0","1527.4000000953674","<div class='center'><p>Now try choosing another</p><p><img src='run_exp/static/images/all_pirates.png' height='500'></p></div>","50","","","","","","","","","","","","","","","",""
"","html-keyboard-response","29","87611","0.0-28.0-0.0","1159.2000002861023","<div class='center'><p>This pirate was not successful at robbing the ship!</p><p><img src='run_exp/static/images/white_no_win.png' height='500'></p><p><b>[Press the space bar to continue]</b></p></div>","32","","","","","","","","","","","","","","","",""
"","html-keyboard-response","30","93596","0.0-29.0-0.0","5983.799999713898","<div class='center'><p>You’ll stop at these 6 places on your journey.</p><p><img src='run_exp/static/images/all_contexts.png' height='500'></p><p><b>[Press the space bar to continue]</b></p></div>","32","","","","","","","","","","","","","","","",""
"","html-keyboard-response","31","98963","0.0-29.0-1.0","5367.099999904633","<div class='center'><p>How good a pirate is at robbing ships will depend on the current place.</p><p> Some pirates will have been to the place before, and will have more experience robbing ships there.</p><p>So, they will be more successful at stealing gold and bringing it back to you.</p><p><b>[Press the space bar to continue]</b></p></div>","32","","","","","","","","","","","","","","","",""
"","html-keyboard-response","32","115468","0.0-29.0-2.0","16503.699999809265","<div class='center'><p>How successful a pirate is at robbing ships can also change in a place.<p> Ships may hear about the pirates coming and will improve their defenses. This may make it more difficult to rob them.</p><p> Ships may also grow lazy and lower their defenses. This may make it easier to rob them.</p><br><p>Things are always changing on the high seas! So, try your best to pay attention!</p><p><img src='run_exp/static/images/contingency.png' height='500'></p><p><b>[Press the space bar to continue]</b></p></div>","32","","","","","","","","","","","","","","","",""
"","html-keyboard-response","33","181972","0.0-29.0-3.0","66503.2000002861","<div class='center'><p>Once you choose a pirate to rob a ship, you’ll be shown the ship they are robbing.</p><p>The ship will have a picture of the item they sold at the marketplace.</p><p> Try your best to remember the ship and where you saw the ship.</p><p> You’ll have to remember this for later, and remembering this correctly will help you win more bonus money!</p><p>You can remember the ship by remembering the item they sold at the marketplace</p><p>A helpful strategy is to try to come up with a story of the chosen pirate and ship’s item interacting with the scene.</p><p> For example, a ship might have sold travel mugs and you could imagine red beard walking through the city with a travel mug. </p><p>Or imagine an apple falling from a tree into white beard's hands in the forest.</p><p><img src='run_exp/static/images/example_probe.png' height='500'></p><p><b>[Press the space bar to continue]</b></p></div>","32","","","","","","","","","","","","","","","",""
"","html-keyboard-response","34","189028","0.0-29.0-4.0","7054.900000095367","<div class='center'><p>If you don’t make your choice fast enough, you’ll have to wait a few seconds before you can make another one. </p><p>You can’t win more gold. You just have to sit and wait.</p><p><img src='run_exp/static/images/hurry_up.png' height='500'></p><p><b>[Press the space bar to continue]</b></p></div>","32","","","","","","","","","","","","","","","",""
"","html-keyboard-response","35","213836","0.0-29.0-5.0","24807.800000190735","<div class='center'><p>Again, you have two important things to do: </p><b><p> 1. Pick the pirate who you think will be most successful at robbing the next ship.</p></b><b><p> 2. Remember where a pirate robbed a ship.</p> </b><p>Both are important in determining how much bonus money you’ll win.</p><br><p>Let’s try a practice game. The game will start by showing you the pirates. First pick a pirate using the <b> 1, 2, 3 </b> buttons on your keyboard. When you are shown a ship, try to remember the place you’re in by making up a story.</p><p> You only have 3 seconds to pick a pirate, so please make a choice quickly! If you are too slow, you’ll have to wait a bit during the time out.</p><p> Don’t feel rushed, but please do try to make a choice every time.</p><p>How good a pirate is at robbing a ship will change depending on the place they are in and how good the defenses are of the ship.</p> <p>This is just a practice game, so you’re not playing for money. </p><p>You’ll receive a bag which may or may not contain gold coins.</p><p> In the real game, though, you’ll be able to see whether or not you received the gold coins.</p><p> Good luck, remember press <b>'1'</b> to choose red beard, <b>'2'</b> to choose white beard, and <b>'3'</b> to choose black beard</p><p><b>[Press the space bar to begin the practice game]</b></p></div>","32","","","","","","","","","","","","","","","",""
"","do_trial_prac","36","219756","0.0-29.0-6.0","1411.2000002861023","","","","49","","","","","","","","","","","","","",""
"","do_trial_prac","37","226572","0.0-29.0-7.0","2301.0999999046326","","","","49","","","","","","","","","","","","","",""
"","do_trial_prac","38","232519","0.0-29.0-8.0","1428.9000000953674","","","","51","","","","","","","","","","","","","",""
"","do_trial_prac","39","238421","0.0-29.0-9.0","1393.3000001907349","","","","51","","","","","","","","","","","","","",""
"","do_trial_prac","40","245495","0.0-29.0-10.0","2555.699999809265","","","","51","","","","","","","","","","","","","",""
"","html-keyboard-response","41","250027","0.0-29.0-11.0","4531.199999809265","<div class='center'><p>Great job on the practice game!</p><p> Now, you will be asked you some true or false questions to make sure you really understand the rules of the game.</p><p> Press <b>'1'</b> on the keyboard for true and press <b>'2'</b> for false.</p><p><b>[Press the space bar to begin the quiz]</b></p></div>","32","","","","","","","","","","","","","","","",""
"","html-keyboard-response","42","254443","0.0-29.0-12.0","4415.89999961853","<div class='center'><p>You win bonus money by making choices as fast as possible.</p><p>Press 1 for true and press  2 for false.</p></div>","50","","","","","","","","","","","","","","","",""
"","html-keyboard-response","43","255427","0.0-30.0-0.0","982.9000000953674","<br><br><br><br><p>That's correct!</p> <p><b>[press the space bar to continue with the quiz]</b></p>","32","","","","","","","","","","","","","","","",""
"","html-keyboard-response","44","258235","0.0-30.0-1.0","2807.4000000953674","<div class='center'><p>You press the <b>‘3’</b> button on the keyboard to choose the red bearded pirate? </p><p>Press 1 for true and press  2 for false.</p></div>","50","","","","","","","","","","","","","","","",""
"","html-keyboard-response","45","259059","0.0-31.0-0.0","823.3000001907349","<br><br><br><br><p>That's correct!</p> <p><b>[press the space bar to continue with the quiz]</b></p>","32","","","","","","","","","","","","","","","",""
"","html-keyboard-response","46","261051","0.0-31.0-1.0","1991.3999996185303","<div class='center'><p>A pirate will always be equally successful at robbing ships in each place</p><p>Press 1 for true and press  2 for false.</p></div>","50","","","","","","","","","","","","","","","",""
"","html-keyboard-response","47","261643","0.0-32.0-0.0","591.3999996185303","<br><br><br><br><p>That's correct!</p> <p><b>[press the space bar to continue with the quiz]</b></p>","32","","","","","","","","","","","","","","","",""
"","html-keyboard-response","48","262995","0.0-32.0-1.0","1351.5","<div class='center'><p>You should remember the place where a pirate robbed a ship.</p><p>Press 1 for true and press  2 for false.</p></div>","49","","","","","","","","","","","","","","","",""
"","html-keyboard-response","49","263699","0.0-33.0-0.0","698.8999996185303","<br><br><br><br><p>That's correct!</p> <p><b>[press the space bar to continue with the quiz]</b></p>","32","","","","","","","","","","","","","","","",""
"","html-keyboard-response","50","264660","0.0-34.0-0.0","959.6999998092651","<br><br><br><br><p>Good job! You’re now ready to move on to the real game!</p> <p><br>[press the space bar to begin!]</br></p>","32","","","","","","","","","","","","","","","",""
"","do_welcome","51","266174","0.0-35.0-0.0","null","","","","null","","","","","","","","","","","","","",""
"","do_trial","52","272239","0.0-36.0-0.0","null","","","","null","1,1,0","0","forest","0","probe-232","1","0.4","0.1","","","","","",""
"","do_trial","53","278382","0.0-37.0-0.0","598.1999998092651","","","","49","1,0,0","0","forest","1","probe-230","1","0.30559616301985887","0.1581039784239621","1","","","","",""
"","do_trial","54","284865","0.0-38.0-0.0","937","","","","49","1,0,0","0","forest","2","probe-140","1","0.29807566175375416","0.07312743403995828","1","","","","",""
"","do_trial","55","291138","0.0-39.0-0.0","733","","","","49","1,0,0","0","forest","3","probe-188","1","0.34418879550148646","0.058301359965408965","1","","","","",""
"","do_trial","56","297392","0.0-40.0-0.0","716.1999998092651","","","","49","1,0,0","0","forest","4","probe-59","0.9162985584440291","0.14645505793654742","0.09430661867470494","1","","","","",""
"","do_trial","57","304147","0.0-41.0-0.0","1213.5999999046326","","","","49","1,0,0","0","forest","5","probe-155","0.8563693522357161","0.12833900066804818","0.22117036528629158","1","","","","",""
"","do_trial","58","310628","0.0-42.0-0.0","939.9000000953674","","","","49","1,1,0","0","forest","6","probe-162","0.8375356600167269","0.17054655587768713","0.12649983172232238","1","","","","",""
"","do_trial","59","317425","0.0-43.0-0.0","1250.5","","","","49","1,0,0","0","forest","7","probe-27","0.7513868052364794","0.26811255009737134","0.10222769652412737","1","","","","",""
"","do_trial","60","323563","0.0-44.0-0.0","598.1999998092651","","","","49","1,0,0","0","forest","8","probe-228","0.8298740320397802","0.3301696454915443","0.15126082841520952","1","","","","",""
"","do_trial","61","330189","0.0-45.0-0.0","1080.4000000953674","","","","49","1,0,1","0","forest","9","probe-215","0.7775039469960601","0.5677905135668538","0.22887196976873736","1","","","","",""
"","do_trial","62","336578","0.0-46.0-0.0","841.9000000953674","","","","49","1,1,1","0","forest","10","probe-178","0.7984891770782485","0.7909215265870849","0.2691175577098241","1","","","","",""
"","do_trial","63","342668","0.0-47.0-0.0","548","","","","49","1,1,0","0","forest","11","probe-224","0.5397375785379985","0.8239036200654833","0.28321043803063645","1","","","","",""
"","do_trial","64","349037","0.0-48.0-0.0","826.5","","","","49","0,0,0","0","forest","12","probe-45","0.5266251018633468","0.7186859528210413","0.2572300803810381","0","","","","",""
"","do_trial","65","355429","0.0-49.0-0.0","849.5","","","","49","1,1,0","0","forest","13","probe-199","0.5120976864225951","0.6440516738018672","0.1621968562195336","1","","","","",""
"","do_trial","66","361383","0.0-50.0-0.0","409.09999990463257","","","","49","1,1,0","0","forest","14","probe-222","0.4735841201669087","0.8729170330557845","0.1822966826574932","1","","","","",""
"","do_trial","67","367300","0.0-51.0-0.0","375.90000009536743","","","","49","0,1,0","0","forest","15","probe-141","0.4683509301770089","0.9161233408324642","0.24190411919348176","0","","","","",""
"","do_trial","68","373399","0.0-52.0-0.0","547.0999999046326","","","","49","1,0,0","0","forest","16","probe-23","0.5713654577335975","0.8079437949989804","0.199317430172384","1","","","","",""
"","do_trial","69","379334","0.0-53.0-0.0","382.40000009536743","","","","49","1,0,1","0","forest","17","probe-09","0.5615580510532143","0.7364330840744385","0.1539303058249604","1","","","","",""
"","do_trial","70","385440","0.0-54.0-0.0","551.3999996185303","","","","49","1,1,0","0","forest","18","probe-48","0.2808315653427662","0.8091122362211617","0.3377491519007107","1","","","","",""
"","do_trial","71","392990","0.0-55.0-0.0","1998.8000001907349","","","","49","0,1,1","0","forest","19","probe-217","0.2831151294784885","0.8345774846213923","0.40680375358989024","0","","","","",""
"","do_trial","72","398828","0.0-56.0-0.0","296.59999990463257","","","","49","0,0,0","0","forest","20","probe-47","0.3566141497864582","0.7171611820799859","0.3266451285005036","0","","","","",""
"","do_trial","73","404985","0.0-57.0-0.0","610.4000000953674","","","","49","0,1,0","0","forest","21","probe-197","0.25637632308226915","0.6668707650077089","0.23859312720669199","0","","","","",""
"","do_trial","74","411622","0.0-58.0-0.0","1085.8000001907349","","","","50","0,1,0","0","forest","22","probe-165","0.38519011822975285","0.7018355978856962","0.23832222581602913","1","","","","",""
"","do_trial","75","417745","0.0-59.0-0.0","584","","","","50","0,1,0","0","forest","23","probe-112","0.3711023166278893","0.7152865691408862","0.2253259529310098","1","","","","",""
"","do_trial","76","423990","0.0-60.0-0.0","692.8000001907349","","","","50","1,1,0","0","forest","24","probe-206","0.38593211250997883","0.7436107373999099","0.1664816040241354","1","","","","",""
"","do_trial","77","430209","0.0-61.0-0.0","681","","","","50","0,1,1","0","forest","25","probe-28","0.3369463516946447","0.8097296282863765","0.20147861873584455","1","","","","",""
"","do_trial","78","436320","0.0-62.0-0.0","566.9000000953674","","","","50","0,1,0","0","forest","26","probe-75","0.3296286686271682","0.6805953657060277","0.33618966901610975","1","","","","",""
"","do_trial","79","442448","0.0-63.0-0.0","574.1999998092651","","","","50","0,1,0","0","forest","27","probe-05","0.31496030526271646","0.8616289593920435","0.37260214546545933","1","","","","",""
"","do_trial","80","448671","0.0-64.0-0.0","679.8000001907349","","","","50","0,1,0","0","forest","28","probe-152","0.35490410656206905","0.7981589323556249","0.22746116812508557","1","","","","",""
"","do_trial","81","455581","0.0-65.0-0.0","1368.0999999046326","","","","50","1,1,0","0","forest","29","probe-06","0.45154587628794196","0.8083302848679556","0.16008470791005133","1","","","","",""
"","do_trial","82","461667","0.0-66.0-0.0","546.2000002861023","","","","50","1,1,0","0","forest","30","probe-139","0.42796344965660993","0.7585468916346583","0.08033799543886502","1","","","","",""
"","do_trial","83","467785","0.0-67.0-0.0","572.1999998092651","","","","50","1,1,0","0","forest","31","probe-41","0.5220897612611849","0.7657869672773226","0.10217835521978731","1","","","","",""
"","do_trial","84","473897","0.0-68.0-0.0","558.6999998092651","","","","50","0,1,0","0","forest","32","probe-22","0.39871365128094893","0.7461898560938838","0.11330489789319176","1","","","","",""
"","do_trial","85","479816","0.0-69.0-0.0","374.59999990463257","","","","50","1,1,0","0","forest","33","probe-121","0.2587963782405053","0.9455539191125134","0.061691791624006766","1","","","","",""
"","do_trial","86","486315","0.0-70.0-0.0","951","","","","50","1,1,0","0","forest","34","probe-68","0.3830112047112994","0.7176691389936392","0.13320646538962266","1","","","","",""
"","do_trial","87","492311","0.0-71.0-0.0","443.40000009536743","","","","50","0,1,0","0","forest","35","probe-231","0.33450714560651207","0.644551661811774","0.12728305144373914","1","","","","",""
"","do_trial","88","498209","0.0-72.0-0.0","351.30000019073486","","","","50","1,0,0","0","forest","36","probe-43","0.34487950808187634","0.6461267354492333","0.060739877453511816","0","","","","",""
"","do_trial","89","504415","0.0-73.0-0.0","653.8000001907349","","","","50","0,0,0","0","forest","37","probe-151","0.23853791846831943","0.7180499116693508","0.14235717470403958","0","","","","",""
"","do_trial","90","510443","0.0-74.0-0.0","479.59999990463257","","","","51","1,1,1","0","forest","38","probe-196","0.39956262136965204","0.7628743833863475","0.1835539425227788","1","","","","",""
"","do_trial","91","516635","0.0-75.0-0.0","643.8000001907349","","","","51","1,1,0","0","forest","39","probe-100","0.42912390779592996","0.7188563042703039","0.2517401804315045","0","","","","",""
"","do_bye","92","518143","0.0-76.0-0.0","null","","","","null","","","","","","","","","","","","","",""
"","do_travel","93","524152","0.0-77.0-0.0","null","","","","null","","","","","","","","","","","","","",""
"","do_welcome","94","525655","0.0-77.0-1.0","null","","","","null","","","","","","","","","","","","","",""
"","do_trial","95","533523","0.0-78.0-0.0","2328.199999809265","","","","51","0,1,0","1","city","40","probe-54","0.6052904429537688","1","0.15523296707125003","0","","","","",""
"","do_trial","96","540005","0.0-79.0-0.0","932.0999999046326","","","","50","1,1,0","1","city","41","probe-87","0.6354585502487884","1","0.07805619226922846","1","","","","",""
"","do_trial","97","545951","0.0-80.0-0.0","401.09999990463257","","","","50","0,1,0","1","city","42","probe-185","0.4929026934618908","1","0.1038531843798874","1","","","","",""
"","do_trial","98","551819","0.0-81.0-0.0","320","","","","50","0,1,0","1","city","43","probe-200","0.35763972384437404","1","0.1757621294141916","1","","","","",""
"","do_trial","99","557712","0.0-82.0-0.0","347","","","","50","0,1,0","1","city","44","probe-90","0.37810167594342775","0.8810953527140537","0.23882978938847374","1","","","","",""
"","do_trial","100","563577","0.0-83.0-0.0","319","","","","50","1,1,0","1","city","45","probe-143","0.432673593259507","0.7806575855523574","0.18163392738519135","1","","","","",""
"","do_trial","101","570292","0.0-84.0-0.0","1174.6999998092651","","","","50","0,0,0","1","city","46","probe-186","0.34658827996912783","0.7791581799577735","0.056544409068434706","0","","","","",""
"","do_trial","102","576288","0.0-85.0-0.0","450.7999997138977","","","","50","0,1,0","1","city","47","probe-83","0.42601950591901483","0.7654648507089487","0.07041299011245128","1","","","","",""
"","do_trial","103","582317","0.0-86.0-0.0","479.40000009536743","","","","50","0,0,0","1","city","48","probe-12","0.33263068086531","0.8116324141120526","0.11438491243906622","0","","","","",""
"","do_trial","104","588304","0.0-87.0-0.0","434.2999997138977","","","","50","0,1,0","1","city","49","probe-117","0.334578020652704","0.9295399533561671","0.08510206879386695","1","","","","",""
"","do_trial","105","594460","0.0-88.0-0.0","599.3000001907349","","","","50","0,1,1","1","city","50","probe-189","0.39509781284184764","0.7299323961806118","0.45625517037076996","1","","","","",""
"","do_trial","106","600539","0.0-89.0-0.0","493.2999997138977","","","","50","0,0,1","1","city","51","probe-70","0.3629746208893577","0.36272587695241904","0.507791519776548","0","","","","",""
"","do_trial","107","606516","0.0-90.0-0.0","427.90000009536743","","","","50","1,0,1","1","city","52","probe-192","0.4102900821285062","0.3063364612690213","0.6259292504824692","0","","","","",""
"","do_trial","108","612446","0.0-91.0-0.0","387.09999990463257","","","","49","1,0,1","1","city","53","probe-110","0.5747324576679597","0.13274476854543832","0.7049676273813317","1","","","","",""
"","do_trial","109","618505","0.0-92.0-0.0","513.2000002861023","","","","49","0,0,1","1","city","54","probe-175","0.44068685783599143","0.0921405728125408","0.7453141319175905","0","","","","",""
"","do_trial","110","624335","0.0-93.0-0.0","285.40000009536743","","","","49","1,0,1","1","city","55","probe-58","0.497474001738647","0.12218101134335281","0.7286231791666663","1","","","","",""
"","do_trial","111","630380","0.0-94.0-0.0","496.40000009536743","","","","49","1,0,1","1","city","56","probe-223","0.4580113717278541","0.08401326347658478","0.8529769327196598","1","","","","",""
"","do_trial","112","636277","0.0-95.0-0.0","347","","","","49","0,0,1","1","city","57","probe-04","0.4040242611413288","0.11668062482967091","0.8531922288757352","0","","","","",""
"","do_trial","113","642231","0.0-96.0-0.0","409.80000019073486","","","","49","0,0,1","1","city","58","probe-150","0.3719821960552826","0.08881280675556733","0.9199306574475871","0","","","","",""
"","do_trial","114","648118","0.0-97.0-0.0","344.40000009536743","","","","50","0,0,1","1","city","59","probe-137","0.3429649794022495","0.1906343403000141","0.8249020162588238","0","","","","",""
"","do_trial","115","653936","0.0-98.0-0.0","273.30000019073486","","","","50","1,1,1","1","city","60","probe-125","0.5196581815296096","0.12731625456884943","0.6896726911950473","1","","","","",""
"","do_trial","116","659841","0.0-99.0-0.0","366.90000009536743","","","","50","0,0,1","1","city","61","probe-177","0.4559400183289221","0.14218144377757128","0.7236336324126666","0","","","","",""
"","do_trial","117","665685","0.0-100.0-0.0","302.5","","","","50","0,0,1","1","city","62","probe-160","0.4775279926733487","0.1037470394011987","0.885074450177213","0","","","","",""
"","do_trial","118","672024","0.0-101.0-0.0","786.2000002861023","","","","51","0,0,1","1","city","63","probe-109","0.3685635455421881","0.14250327954097097","0.8555765442078176","1","","","","",""
"","do_trial","119","677893","0.0-102.0-0.0","327.7000002861023","","","","51","0,0,1","1","city","64","probe-79","0.3051214489565752","0.17336159026135678","0.8255453714316763","1","","","","",""
"","do_trial","120","684090","0.0-103.0-0.0","658.1999998092651","","","","51","0,0,1","1","city","65","probe-187","0.34909684659835066","0.10524132187675578","0.7631459277286884","1","","","","",""
"","do_trial","121","689974","0.0-104.0-0.0","333.40000009536743","","","","51","0,0,1","1","city","66","probe-77","0.4097562001493632","0.2552908302259865","0.7830878200142906","1","","","","",""
"","do_trial","122","696048","0.0-105.0-0.0","528.6000003814697","","","","51","0,1,1","1","city","67","probe-18","0.5389918489312613","0.1544782109495102","0.7838111334606042","1","","","","",""
"","do_trial","123","702646","0.0-106.0-0.0","1046.2999997138977","","","","51","1,0,1","1","city","68","probe-216","0.5613668224301429","0.06565432249651232","0.8199328982471147","1","","","","",""
"","do_trial","124","708656","0.0-107.0-0.0","465.40000009536743","","","","51","0,0,1","1","city","69","probe-174","0.5015044800911297","0.08539869679250452","0.8105521900802747","1","","","","",""
"","do_trial","125","714801","0.0-108.0-0.0","607.5999999046326","","","","51","1,0,0","1","city","70","probe-101","0.514689918524324","0.08687494845124005","0.8873680456987725","0","","","","",""
"","do_trial","126","720817","0.0-109.0-0.0","477","","","","51","1,0,1","1","city","71","probe-134","0.37242593987787026","0.13615973222128783","0.9026206110533095","1","","","","",""
"","do_trial","127","726761","0.0-110.0-0.0","406.5","","","","51","1,0,1","1","city","72","probe-106","0.31243864955671624","0.13270834883554689","0.679810367214796","1","","","","",""
"","do_trial","128","732989","0.0-111.0-0.0","677.7000002861023","","","","51","1,0,0","1","city","73","probe-145","0.35159687689575125","0.1773246817310903","0.7387039287172616","0","","","","",""
"","do_trial","129","738992","0.0-112.0-0.0","449.5","","","","51","0,1,1","1","city","74","probe-40","0.31431499032288784","0.3403708121031898","0.7743018981579727","1","","","","",""
"","do_trial","130","745268","0.0-113.0-0.0","726.9000000953674","","","","51","1,1,0","1","city","75","probe-80","0.3002050467755097","0.3649281373348322","0.7190447849961952","0","","","","",""
"","do_trial","131","751330","0.0-114.0-0.0","514.8000001907349","","","","51","0,0,1","1","city","76","probe-71","0.27125906481731227","0.15614189799634995","0.7377103839530303","1","","","","",""
"","do_trial","132","757194","0.0-115.0-0.0","316.5","","","","51","1,0,1","1","city","77","probe-219","0.369200953072534","0.06297512055705225","0.8014828467685383","1","","","","",""
"","do_trial","133","763351","0.0-116.0-0.0","604.2000002861023","","","","51","1,0,1","1","city","78","probe-93","0.4132068501790963","0.13485436655266778","0.7531258716814644","1","","","","",""
"","do_trial","134","769337","0.0-117.0-0.0","446.69999980926514","","","","51","0,0,1","1","city","79","probe-64","0.3680048483775164","0.055357924050643964","0.8324510731452762","1","","","","",""
"","do_bye","135","770854","0.0-118.0-0.0","null","","","","null","","","","","","","","","","","","","",""
"","do_travel","136","776862","0.0-119.0-0.0","null","","","","null","","","","","","","","","","","","","",""
"","do_welcome","137","778377","0.0-119.0-1.0","null","","","","null","","","","","","","","","","","","","",""
"","do_trial","138","785289","0.0-120.0-0.0","1374","","","","50","0,0,1","2","mountain","80","probe-180","0.2802312788071452","0.10637719569855061","1","0","","","","",""
"","do_trial","139","791140","0.0-121.0-0.0","309.69999980926514","","","","50","0,0,1","2","mountain","81","probe-02","0.3287233484279646","0.05719585719490974","1","0","","","","",""
"","do_trial","140","796981","0.0-122.0-0.0","300","","","","50","1,0,1","2","mountain","82","probe-86","0.3047560429082974","0.1479219677669746","1","0","","","","",""
"","do_trial","141","802847","0.0-123.0-0.0","321.5","","","","49","1,0,1","2","mountain","83","probe-240","0.3178269118817014","0.11177046630491176","1","1","","","","",""
"","do_trial","142","808835","0.0-124.0-0.0","439.3999996185303","","","","49","0,1,1","2","mountain","84","probe-119","0.3524441935260235","0.15136903179564737","0.9296999036505942","0","","","","",""
"","do_trial","143","814744","0.0-125.0-0.0","364.40000009536743","","","","49","0,0,1","2","mountain","85","probe-210","0.31243218149205865","0.20131421466458382","0.9347921296085246","0","","","","",""
"","do_trial","144","820681","0.0-126.0-0.0","391.09999990463257","","","","49","1,1,0","2","mountain","86","probe-149","0.36316806468126656","0.17300392978046072","0.8006299472911786","1","","","","",""
"","do_trial","145","826677","0.0-127.0-0.0","445.80000019073486","","","","51","1,1,1","2","mountain","87","probe-179","0.3557925378676046","0.19974165732881047","0.7743865503844289","1","","","","",""
"","do_trial","146","832841","0.0-128.0-0.0","625.4000000953674","","","","51","1,0,0","2","mountain","88","probe-55","0.4408468339758771","0.05743380960408686","0.8561203019693197","0","","","","",""
"","do_trial","147","838777","0.0-129.0-0.0","397.5","","","","51","1,0,1","2","mountain","89","probe-120","0.40567147042179197","0.07543359743831797","0.8522052420493261","1","","","","",""
"","do_trial","148","845002","0.0-130.0-0.0","678.0999999046326","","","","51","0,0,1","2","mountain","90","probe-123","0.21764604200789056","0.37517869390825026","0.4939098180141134","1","","","","",""
"","do_trial","149","851255","0.0-131.0-0.0","701.2000002861023","","","","51","1,0,0","2","mountain","91","probe-14","0.21686624746895855","0.7408545858286014","0.4674641279657754","0","","","","",""
"","do_trial","150","857186","0.0-132.0-0.0","391.2999997138977","","","","51","0,1,1","2","mountain","92","probe-35","0.22514243046621843","0.8452657860732654","0.3817741008185119","1","","","","",""
"","do_trial","151","863383","0.0-133.0-0.0","644.9000000953674","","","","51","0,1,1","2","mountain","93","probe-191","0.17896903172907636","0.8364584471163928","0.351818323560699","1","","","","",""
"","do_trial","152","869415","0.0-134.0-0.0","480.69999980926514","","","","51","1,1,0","2","mountain","94","probe-132","0.292214533448213","0.7587651877771336","0.28305492061092824","0","","","","",""
"","do_trial","153","875664","0.0-135.0-0.0","703.1000003814697","","","","51","0,0,1","2","mountain","95","probe-97","0.4113204101595588","0.6878660541842634","0.3054144172644461","1","","","","",""
"","do_trial","154","881833","0.0-136.0-0.0","623.5","","","","51","0,0,0","2","mountain","96","probe-08","0.28218880683858244","0.6055701663880301","0.1358275046106571","0","","","","",""
"","do_trial","155","888220","0.0-137.0-0.0","846.1999998092651","","","","51","0,1,1","2","mountain","97","probe-99","0.31956330024165536","0.7334657788578588","0.11391973015547854","1","","","","",""
"","do_trial","156","894240","0.0-138.0-0.0","474.69999980926514","","","","51","0,1,0","2","mountain","98","probe-65","0.3844887131478382","0.7169462307007403","0.06791755020995031","0","","","","",""
"","do_trial","157","900104","0.0-139.0-0.0","318.2999997138977","","","","51","0,0,0","2","mountain","99","probe-233","0.23400905495093655","0.7446650614524625","0.11956154324646781","0","","","","",""
"","do_trial","158","906043","0.0-140.0-0.0","390.80000019073486","","","","51","1,1,0","2","mountain","100","probe-234","0.3600625075906848","0.800878082256604","0.07887994609440976","0","","","","",""
"","do_trial","159","912007","0.0-141.0-0.0","411.09999990463257","","","","51","0,1,0","2","mountain","101","probe-226","0.33972106026192833","0.9495489834879923","0.20328822755847006","0","","","","",""
"","do_trial","160","918493","0.0-142.0-0.0","935.9000000953674","","","","51","0,1,0","2","mountain","102","probe-26","0.2951020292055131","0.8668755033788853","0.10394111259261996","0","","","","",""
"","do_trial","161","924311","0.0-143.0-0.0","272.7999997138977","","","","49","0,1,0","2","mountain","103","probe-42","0.3431627646775924","0.8399283665420871","0.18852996808126718","0","","","","",""
"","do_trial","162","930209","0.0-144.0-0.0","351.09999990463257","","","","49","0,1,0","2","mountain","104","probe-74","0.47916542410662144","0.8577675523147494","0.12944386446811804","0","","","","",""
"","do_trial","163","936024","0.0-145.0-0.0","277.7999997138977","","","","49","1,1,0","2","mountain","105","probe-38","0.4080533934381451","0.8589031659810508","0.12548614316384465","1","","","","",""
"","do_trial","164","941981","0.0-146.0-0.0","405.80000019073486","","","","49","1,1,0","2","mountain","106","probe-25","0.556723493169509","0.8076041759562519","0.12264304457882698","1","","","","",""
"","do_trial","165","948253","0.0-147.0-0.0","729.6999998092651","","","","49","0,1,0","2","mountain","107","probe-142","0.4136973534540056","0.7375158007926947","0.05789425920487841","0","","","","",""
"","do_trial","166","954164","0.0-148.0-0.0","361.5","","","","49","0,1,1","2","mountain","108","probe-20","0.3678189595049581","0.7912157436231627","0.11145468127474882","0","","","","",""
"","do_trial","167","960353","0.0-149.0-0.0","650.4000000953674","","","","49","0,1,0","2","mountain","109","probe-60","0.3116305652818169","0.8415675932042794","0.1665749451328122","0","","","","",""
"","do_trial","168","966259","0.0-150.0-0.0","365.30000019073486","","","","50","1,1,1","2","mountain","110","probe-161","0.35717416502769633","0.602242610488925","0.19563754425943763","1","","","","",""
"","do_trial","169","972496","0.0-151.0-0.0","690.1999998092651","","","","50","1,1,0","2","mountain","111","probe-207","0.4357484157905696","0.7626185810108896","0.21255126915518788","1","","","","",""
"","do_trial","170","978930","0.0-152.0-0.0","894.6000003814697","","","","50","0,1,1","2","mountain","112","probe-130","0.49071566849178383","0.6585827825176845","0.31136226983154097","1","","","","",""
"","do_trial","171","984819","0.0-153.0-0.0","349.2000002861023","","","","50","1,1,1","2","mountain","113","probe-57","0.5503817924340163","0.5696646135378968","0.1864442456899079","1","","","","",""
"","do_trial","172","990789","0.0-154.0-0.0","419.40000009536743","","","","50","1,0,0","2","mountain","114","probe-46","0.4348123742719492","0.7149070434599772","0.16078378895637419","0","","","","",""
"","do_trial","173","997181","0.0-155.0-0.0","841.7000002861023","","","","50","1,1,0","2","mountain","115","probe-138","0.4028030474643453","0.8118117966314362","0.1977772922763072","1","","","","",""
"","do_trial","174","1003286","0.0-156.0-0.0","562.5999999046326","","","","50","1,1,1","2","mountain","116","probe-183","0.3350355595694364","0.7908397833304096","0.0983426807612222","1","","","","",""
"","do_trial","175","1009421","0.0-157.0-0.0","592.7000002861023","","","","50","0,1,0","2","mountain","117","probe-164","0.3012163380239068","0.8165079540446305","0.14763628792113723","1","","","","",""
"","do_trial","176","1015494","0.0-158.0-0.0","522.4000000953674","","","","50","1,1,1","2","mountain","118","probe-204","0.40740852530914345","0.7941800357264593","0.2159349902691639","1","","","","",""
"","do_trial","177","1021647","0.0-159.0-0.0","600.0999999046326","","","","50","0,1,0","2","mountain","119","probe-29","0.4391201941760312","0.7392913670604421","0.14185608109396822","1","","","","",""
"","do_bye","178","1023151","0.0-160.0-0.0","null","","","","null","","","","","","","","","","","","","",""
"","do_travel","179","1029155","0.0-161.0-0.0","null","","","","null","","","","","","","","","","","","","",""
"","do_welcome","180","1030666","0.0-161.0-1.0","null","","","","null","","","","","","","","","","","","","",""
"","do_trial","181","1038893","0.0-162.0-0.0","2676.800000190735","","","","49","1,1,0","3","coast","120","probe-52","0.5887038216651327","1","0.2368521744047512","1","","","","",""
"","do_trial","182","1045367","0.0-163.0-0.0","920.5","","","","49","1,1,0","3","coast","121","probe-16","0.4975409328073044","1","0.285862629822396","1","","","","",""
"","do_trial","183","1051942","0.0-164.0-0.0","1023.5","","","","49","0,1,1","3","coast","122","probe-102","0.47571163254231097","1","0.19708846225099558","0","","","","",""
"","do_trial","184","1058095","0.0-165.0-0.0","607.0999999046326","","","","49","0,1,0","3","coast","123","probe-176","0.49093537807107446","1","0.21045794658139372","0","","","","",""
"","do_trial","185","1064936","0.0-166.0-0.0","1295.8000001907349","","","","49","0,1,0","3","coast","124","probe-62","0.46657347466081006","0.8604661779183465","0.06396746317902376","0","","","","",""
"","do_trial","186","1071407","0.0-167.0-0.0","925.7999997138977","","","","50","0,1,0","3","coast","125","probe-67","0.38820598996502387","0.8300073844780433","0.08993137860512011","1","","","","",""
"","do_trial","187","1077285","0.0-168.0-0.0","327.09999990463257","","","","50","0,1,0","3","coast","126","probe-07","0.343522292877606","0.8332133805180928","0.14133049103676767","1","","","","",""
"","do_trial","188","1083153","0.0-169.0-0.0","320.59999990463257","","","","50","0,1,0","3","coast","127","probe-156","0.38119431811791016","0.7777364412393604","0.10717315778762164","1","","","","",""
"","do_trial","189","1088985","0.0-170.0-0.0","293.30000019073486","","","","50","1,1,0","3","coast","128","probe-173","0.3689902738041282","0.6501910397789239","0.1442350922790256","1","","","","",""
"","do_trial","190","1095008","0.0-171.0-0.0","474.69999980926514","","","","50","1,1,0","3","coast","129","probe-82","0.3066720992501523","0.5225353152148324","0.09875604470095523","1","","","","",""
"","do_trial","191","1101062","0.0-172.0-0.0","509.7000002861023","","","","50","1,0,0","3","coast","130","probe-17","0.5069752290219218","0.3538110143661543","0.28623507305161366","0","","","","",""
"","do_trial","192","1106919","0.0-173.0-0.0","320.19999980926514","","","","50","0,0,0","3","coast","131","probe-10","0.5107801054951707","0.42003418554556715","0.5108564563477326","0","","","","",""
"","do_trial","193","1113492","0.0-174.0-0.0","1031.2000002861023","","","","50","0,1,1","3","coast","132","probe-225","0.49907953497368573","0.4888548625626668","0.5323333370150999","1","","","","",""
"","do_trial","194","1119462","0.0-175.0-0.0","426.30000019073486","","","","50","1,0,0","3","coast","133","probe-158","0.5527145404622293","0.3784163635480458","0.5500043108194389","0","","","","",""
"","do_trial","195","1125608","0.0-176.0-0.0","600.3999996185303","","","","50","0,1,0","3","coast","134","probe-127","0.4082410200969521","0.3383258141592318","0.6061117212611579","1","","","","",""
"","do_trial","196","1131425","0.0-177.0-0.0","278.59999990463257","","","","50","1,0,0","3","coast","135","probe-15","0.3205805166281883","0.18656214245336675","0.6180918787702722","0","","","","",""
"","do_trial","197","1137264","0.0-178.0-0.0","301.69999980926514","","","","50","1,0,1","3","coast","136","probe-157","0.42437880340801715","0.0999239295464367","0.6986404639598515","0","","","","",""
"","do_trial","198","1143102","0.0-179.0-0.0","286.30000019073486","","","","51","0,0,1","3","coast","137","probe-236","0.40821512613807565","0.06558655899990705","0.766104334870892","1","","","","",""
"","do_trial","199","1149632","0.0-180.0-0.0","984.3999996185303","","","","51","0,0,0","3","coast","138","probe-56","0.47888388779748126","0.10834616511098925","0.6738217118302602","0","","","","",""
"","do_trial","200","1155659","0.0-181.0-0.0","485.7000002861023","","","","51","0,0,0","3","coast","139","probe-212","0.30630519174244547","0.11401175433022424","0.6291155320545402","0","","","","",""
"","do_trial","201","1161529","0.0-182.0-0.0","316.30000019073486","","","","50","0,0,1","3","coast","140","probe-184","0.3466979225916259","0.19050974327636702","0.570556819387098","0","","","","",""
"","do_trial","202","1167643","0.0-183.0-0.0","566.1000003814697","","","","49","1,0,1","3","coast","141","probe-94","0.4559538536851467","0.10491590763639036","0.7618828392158407","1","","","","",""
"","do_trial","203","1173577","0.0-184.0-0.0","396.09999990463257","","","","49","1,0,1","3","coast","142","probe-198","0.5817303196937239","0.11043693879325424","0.8931794650186803","1","","","","",""
"","do_trial","204","1180340","0.0-185.0-0.0","1221.8000001907349","","","","49","0,0,1","3","coast","143","probe-69","0.4997449950589976","0.13390062600528566","0.916121403693326","0","","","","",""
"","do_trial","205","1187084","0.0-186.0-0.0","1201.7999997138977","","","","49","1,0,1","3","coast","144","probe-84","0.45283902466799114","0.19129298288153368","0.8564375286880264","1","","","","",""
"","do_trial","206","1192995","0.0-187.0-0.0","370.69999980926514","","","","49","0,0,0","3","coast","145","probe-195","0.5510915946569517","0.11057800594235287","0.7472770462833888","0","","","","",""
"","do_trial","207","1198884","0.0-188.0-0.0","339.19999980926514","","","","49","0,0,1","3","coast","146","probe-148","0.42349520274661123","0.10353158801979814","0.7594257706685243","0","","","","",""
"","do_trial","208","1204760","0.0-189.0-0.0","338.09999990463257","","","","50","1,1,1","3","coast","147","probe-170","0.5214335228927129","0.08592820122892453","0.7862624947301184","1","","","","",""
"","do_trial","209","1210963","0.0-190.0-0.0","654.5","","","","50","0,0,1","3","coast","148","probe-89","0.46075454949821665","0.06275162983458793","0.8062215439567151","0","","","","",""
"","do_trial","210","1217858","0.0-191.0-0.0","1347.5","","","","50","1,0,0","3","coast","149","probe-53","0.5681917650352623","0.1266849583017849","0.7401065426767224","0","","","","",""
"","do_trial","211","1224379","0.0-192.0-0.0","980.7000002861023","","","","50","0,1,1","3","coast","150","probe-115","0.5219276832058396","0.1141700852894368","0.6794267722038354","1","","","","",""
"","do_trial","212","1230412","0.0-193.0-0.0","490.90000009536743","","","","50","1,1,1","3","coast","151","probe-95","0.5343851100974141","0.08654422761617321","0.6479623019671672","1","","","","",""
"","do_trial","213","1236442","0.0-194.0-0.0","481.90000009536743","","","","50","0,0,1","3","coast","152","probe-104","0.483700437988097","0.17908600851453643","0.7627848826699224","0","","","","",""
"","do_trial","214","1243866","0.0-195.0-0.0","1875.6999998092651","","","","50","1,0,1","3","coast","153","probe-129","0.3907592951089089","0.14227085493188651","0.7840166270776209","0","","","","",""
"","do_trial","215","1250938","0.0-196.0-0.0","1532.5","","","","50","0,0,1","3","coast","154","probe-208","0.48294903541442624","0.11367861593590427","0.8606220224845542","0","","","","",""
"","do_trial","216","1257345","0.0-197.0-0.0","860.0999999046326","","","","51","1,0,1","3","coast","155","probe-201","0.39954621887322106","0.05765196661507749","0.7803045388688727","1","","","","",""
"","do_trial","217","1263400","0.0-198.0-0.0","509.30000019073486","","","","50","0,0,1","3","coast","156","probe-34","0.3876674589751405","0.08048996795670574","0.8686546232207697","0","","","","",""
"","do_trial","218","1269435","0.0-199.0-0.0","486.30000019073486","","","","51","1,0,0","3","coast","157","probe-147","0.2763919293823494","0.18818857966436298","0.873721253588932","0","","","","",""
"","do_trial","219","1275360","0.0-200.0-0.0","379","","","","51","0,0,1","3","coast","158","probe-108","0.36369829555864075","0.05173700218400347","0.8630312907064189","1","","","","",""
"","do_trial","220","1281315","0.0-201.0-0.0","405.59999990463257","","","","51","0,1,1","3","coast","159","probe-122","0.355386057260807","0.12364611371733045","0.9452388729975123","1","","","","",""
"","do_bye","221","1282831","0.0-202.0-0.0","null","","","","null","","","","","","","","","","","","","",""
"","do_travel","222","1288838","0.0-203.0-0.0","null","","","","null","","","","","","","","","","","","","",""
"","do_welcome","223","1290351","0.0-203.0-1.0","null","","","","null","","","","","","","","","","","","","",""
"","do_trial","224","1297400","0.0-204.0-0.0","1511.6999998092651","","","","51","1,0,1","4","highway","160","probe-218","0.3425356678226246","0.21374582785072485","1","1","","","","",""
"","do_trial","225","1303364","0.0-205.0-0.0","413.80000019073486","","","","51","0,0,1","4","highway","161","probe-211","0.4241655728357395","0.1833178467220632","1","1","","","","",""
"","do_trial","226","1309427","0.0-206.0-0.0","513.9000000953674","","","","51","0,0,1","4","highway","162","probe-190","0.36555620699139874","0.09953774573472746","1","1","","","","",""
"","do_trial","227","1315681","0.0-207.0-0.0","714","","","","51","0,0,1","4","highway","163","probe-11","0.14447163987041545","0.10809642882403456","1","1","","","","",""
"","do_trial","228","1321985","0.0-208.0-0.0","765.1999998092651","","","","51","0,0,1","4","highway","164","probe-92","0.29962942584951746","0.1726146725167625","0.8671415101859282","1","","","","",""
"","do_trial","229","1328284","0.0-209.0-0.0","748.3999996185303","","","","51","1,0,1","4","highway","165","probe-126","0.267702634923804","0.18942234015916892","0.8999826491760734","1","","","","",""
"","do_trial","230","1334400","0.0-210.0-0.0","570.4000000953674","","","","51","0,0,1","4","highway","166","probe-32","0.3743891499513483","0.09928116775312976","0.7760209363069887","1","","","","",""
"","do_trial","231","1340566","0.0-211.0-0.0","614.3000001907349","","","","51","0,0,1","4","highway","167","probe-63","0.32308277208761754","0.09908723525163496","0.7626138444368877","1","","","","",""
"","do_trial","232","1347322","0.0-212.0-0.0","1215.5999999046326","","","","51","0,0,0","4","highway","168","probe-88","0.5446186169008843","0.12753584159903805","0.6772366015571737","0","","","","",""
"","do_trial","233","1354177","0.0-213.0-0.0","1315.5","","","","51","0,0,0","4","highway","169","probe-113","0.4849417341387802","0.05376714184929205","0.6701246063610864","0","","","","",""
"","do_trial","234","1360403","0.0-214.0-0.0","685.5","","","","51","1,0,0","4","highway","170","probe-76","0.7609782394280211","0.06255349253613898","0.5854643457612858","0","","","","",""
"","do_trial","235","1366532","0.0-215.0-0.0","586.8999996185303","","","","51","1,0,1","4","highway","171","probe-146","0.805286885985718","0.07658829309661934","0.5209455934311966","1","","","","",""
"","do_trial","236","1372872","0.0-216.0-0.0","793.9000000953674","","","","51","0,0,0","4","highway","172","probe-114","0.7414596158565112","0.06541478968330412","0.37366581451660635","0","","","","",""
"","do_trial","237","1379061","0.0-217.0-0.0","637.9000000953674","","","","51","1,1,0","4","highway","173","probe-168","0.9055907126453536","0.10756213796468625","0.2590229692840842","0","","","","",""
"","do_trial","238","1385227","0.0-218.0-0.0","616","","","","51","1,0,0","4","highway","174","probe-144","0.9345558647429597","0.1229271359323628","0.33773321602409434","0","","","","",""
"","do_trial","239","1392059","0.0-219.0-0.0","1282.2999997138977","","","","49","1,0,0","4","highway","175","probe-51","0.9439868522291556","0.09004858204803698","0.3682655771252525","1","","","","",""
"","do_trial","240","1398227","0.0-220.0-0.0","626.5999999046326","","","","49","1,0,1","4","highway","176","probe-202","0.8900836754246226","0.12473273698242697","0.21612828463380257","1","","","","",""
"","do_trial","241","1404198","0.0-221.0-0.0","418.69999980926514","","","","49","1,0,0","4","highway","177","probe-31","0.8741910557559178","0.18013466351695542","0.33740025558988346","1","","","","",""
"","do_trial","242","1410357","0.0-222.0-0.0","617.1000003814697","","","","49","1,0,1","4","highway","178","probe-203","0.8084356456561996","0.25621779719239746","0.3651713867065085","1","","","","",""
"","do_trial","243","1416404","0.0-223.0-0.0","496.69999980926514","","","","49","1,1,0","4","highway","179","probe-214","0.8584550125048617","0.3683842557438117","0.3772173479883679","1","","","","",""
"","do_trial","244","1422268","0.0-224.0-0.0","320.7000002861023","","","","49","1,0,0","4","highway","180","probe-73","0.9263711424244816","0.1475870475207748","0.4800765860795885","1","","","","",""
"","do_trial","245","1428419","0.0-225.0-0.0","609.8000001907349","","","","49","1,0,1","4","highway","181","probe-03","0.904193394781559","0.15622082788739294","0.45702941754067034","1","","","","",""
"","do_trial","246","1434445","0.0-226.0-0.0","484","","","","49","1,0,1","4","highway","182","probe-50","0.9416866484241464","0.10808403380192778","0.4554055499000779","1","","","","",""
"","do_trial","247","1440312","0.0-227.0-0.0","328.90000009536743","","","","49","0,1,0","4","highway","183","probe-78","0.8284687704746888","0.07285253496362717","0.46662261082945683","0","","","","",""
"","do_trial","248","1446620","0.0-228.0-0.0","766.9000000953674","","","","49","1,0,0","4","highway","184","probe-194","0.7596031565888116","0.06032662430324751","0.33533235251934895","1","","","","",""
"","do_trial","249","1453248","0.0-229.0-0.0","1082","","","","49","1,0,0","4","highway","185","probe-133","0.7804318069388421","0.13280300681112348","0.44756454695652037","1","","","","",""
"","do_trial","250","1459379","0.0-230.0-0.0","582.5","","","","49","1,1,0","4","highway","186","probe-193","0.7226091689742438","0.3325750134603061","0.4440459554934351","1","","","","",""
"","do_trial","251","1465364","0.0-231.0-0.0","443","","","","49","1,0,0","4","highway","187","probe-66","0.8318968655032748","0.23972383865791017","0.5122880980598569","1","","","","",""
"","do_trial","252","1471642","0.0-232.0-0.0","731.3000001907349","","","","49","1,0,0","4","highway","188","probe-159","0.872773373242663","0.2127847558601575","0.6262504416651392","1","","","","",""
"","do_trial","253","1477797","0.0-233.0-0.0","612.1000003814697","","","","49","1,0,0","4","highway","189","probe-229","0.894658221555679","0.1699320329310501","0.5542715297406275","1","","","","",""
"","do_trial","254","1484369","0.0-234.0-0.0","1026","","","","49","0,0,0","4","highway","190","probe-37","0.8445559100101201","0.20068572045149025","0.5096843620081833","0","","","","",""
"","do_trial","255","1490324","0.0-235.0-0.0","413.19999980926514","","","","49","1,0,1","4","highway","191","probe-181","0.8127350298887775","0.22196789869933298","0.5022864580639336","1","","","","",""
"","do_trial","256","1496294","0.0-236.0-0.0","426.09999990463257","","","","49","1,0,0","4","highway","192","probe-72","0.8335279174578305","0.25955623081644336","0.48440685337531186","1","","","","",""
"","do_trial","257","1503064","0.0-237.0-0.0","1228.1999998092651","","","","49","1,0,1","4","highway","193","probe-21","0.7857596250501736","0.21456898863517854","0.46329896460686376","1","","","","",""
"","do_trial","258","1508986","0.0-238.0-0.0","374.40000009536743","","","","49","0,0,1","4","highway","194","probe-235","0.6906361363971393","0.060610796150695756","0.5347598719272152","0","","","","",""
"","do_trial","259","1514789","0.0-239.0-0.0","251.59999990463257","","","","50","1,0,1","4","highway","195","probe-239","0.9042255465541869","0.06432654789390074","0.5168546085384114","0","","","","",""
"","do_trial","260","1520668","0.0-240.0-0.0","330.19999980926514","","","","50","0,0,1","4","highway","196","probe-19","0.9313156656975232","0.058688910928885306","0.496770617790039","0","","","","",""
"","do_trial","261","1526689","0.0-241.0-0.0","474.09999990463257","","","","50","0,0,1","4","highway","197","probe-171","0.902267756282975","0.05626550550432409","0.3362119569159295","0","","","","",""
"","do_trial","262","1532776","0.0-242.0-0.0","533.5","","","","51","1,0,0","4","highway","198","probe-81","0.7485133769671045","0.1129642557965831","0.3566349816152551","0","","","","",""
"","do_trial","263","1538929","0.0-243.0-0.0","614.0999999046326","","","","51","0,0,1","4","highway","199","probe-61","0.6733059120204888","0.08160109437525317","0.47217723824497937","1","","","","",""
"","do_bye","264","1540447","0.0-244.0-0.0","null","","","","null","","","","","","","","","","","","","",""
"","do_travel","265","1546452","0.0-245.0-0.0","null","","","","null","","","","","","","","","","","","","",""
"","do_welcome","266","1547960","0.0-245.0-1.0","null","","","","null","","","","","","","","","","","","","",""
"","do_trial","267","1554790","0.0-246.0-0.0","1286.6000003814697","","","","49","1,0,0","5","countryside","200","probe-44","1","0.05287280332882329","0.5865538704936808","1","","","","",""
"","do_trial","268","1560651","0.0-247.0-0.0","312.5","","","","49","1,0,0","5","countryside","201","probe-227","1","0.1084910910882617","0.5094313255948224","1","","","","",""
"","do_trial","269","1566536","0.0-248.0-0.0","338.69999980926514","","","","49","1,0,0","5","countryside","202","probe-213","1","0.05862480194646926","0.44070907071176313","1","","","","",""
"","do_trial","270","1572609","0.0-249.0-0.0","526.5999999046326","","","","49","1,0,0","5","countryside","203","probe-111","1","0.15820098160243665","0.5463901362934793","1","","","","",""
"","do_trial","271","1578727","0.0-250.0-0.0","572.5999999046326","","","","49","0,0,1","5","countryside","204","probe-209","0.9096433378909214","0.14634250153937525","0.545815031011838","0","","","","",""
"","do_trial","272","1584819","0.0-251.0-0.0","550.8000001907349","","","","49","1,0,0","5","countryside","205","probe-124","0.8767877813613548","0.16663180655667467","0.4985955769129485","1","","","","",""
"","do_trial","273","1590774","0.0-252.0-0.0","402.8999996185303","","","","49","1,0,0","5","countryside","206","probe-166","0.7363164720058797","0.16451308000626713","0.5387829994651537","1","","","","",""
"","do_trial","274","1596828","0.0-253.0-0.0","511.09999990463257","","","","49","1,0,1","5","countryside","207","probe-13","0.8400445094486259","0.18772935257763204","0.6029145439993727","1","","","","",""
"","do_trial","275","1602718","0.0-254.0-0.0","345.2000002861023","","","","49","1,0,1","5","countryside","208","probe-118","0.7891135569349946","0.22660898015080105","0.5602410884490759","1","","","","",""
"","do_trial","276","1608669","0.0-255.0-0.0","407.5","","","","49","1,1,1","5","countryside","209","probe-39","0.7090715871180286","0.08301104482660053","0.7010712954265961","1","","","","",""
"","do_trial","277","1614625","0.0-256.0-0.0","409.19999980926514","","","","49","0,1,0","5","countryside","210","probe-96","0.6535432097767866","0.3789556274765724","0.44988351124238907","0","","","","",""
"","do_trial","278","1620738","0.0-257.0-0.0","564.3000001907349","","","","49","0,0,1","5","countryside","211","probe-205","0.4735196042673711","0.5305668814456345","0.2102499432871228","0","","","","",""
"","do_trial","279","1626606","0.0-258.0-0.0","323.59999990463257","","","","49","0,1,0","5","countryside","212","probe-98","0.48458375909560597","0.6031991700984484","0.13408821951269898","0","","","","",""
"","do_trial","280","1632761","0.0-259.0-0.0","615.3000001907349","","","","49","1,1,0","5","countryside","213","probe-49","0.3267259471936809","0.6586989648309188","0.07265117579003767","1","","","","",""
"","do_trial","281","1638710","0.0-260.0-0.0","404.19999980926514","","","","49","1,0,0","5","countryside","214","probe-220","0.4992027589487868","0.729787880210125","0.22656224280676854","1","","","","",""
"","do_trial","282","1645799","0.0-261.0-0.0","1534.6999998092651","","","","49","0,1,0","5","countryside","215","probe-103","0.5113066939755369","0.8469997462036625","0.20094631683640998","0","","","","",""
"","do_trial","283","1653156","0.0-262.0-0.0","1814.5999999046326","","","","49","0,1,0","5","countryside","216","probe-36","0.32704674510369147","0.7840944088849305","0.17664110846743034","0","","","","",""
"","do_trial","284","1659361","0.0-263.0-0.0","657.6999998092651","","","","49","0,1,0","5","countryside","217","probe-153","0.28694950504771594","0.7367813967850243","0.23436794972704392","0","","","","",""
"","do_trial","285","1666030","0.0-264.0-0.0","1125.0999999046326","","","","51","1,1,0","5","countryside","218","probe-135","0.2415454315954028","0.8122024876891828","0.18889457115741376","0","","","","",""
"","do_trial","286","1672239","0.0-265.0-0.0","655.4000000953674","","","","50","0,1,0","5","countryside","219","probe-167","0.36262651046420197","0.945282416440558","0.15869218785644154","1","","","","",""
"","do_trial","287","1678077","0.0-266.0-0.0","295.59999990463257","","","","50","0,1,1","5","countryside","220","probe-91","0.43673884098163795","0.8610549219479746","0.25197355771193475","1","","","","",""
"","do_trial","288","1684132","0.0-267.0-0.0","504.7999997138977","","","","50","1,1,0","5","countryside","221","probe-237","0.42114163229884094","0.7752282384484045","0.22112312967803685","1","","","","",""
"","do_trial","289","1690274","0.0-268.0-0.0","594.5","","","","50","1,1,1","5","countryside","222","probe-107","0.4044851501662436","0.8267236045355268","0.24526127156830524","1","","","","",""
"","do_trial","290","1696120","0.0-269.0-0.0","300","","","","50","0,1,0","5","countryside","223","probe-131","0.506156427650134","0.642460041780304","0.23063080328128205","1","","","","",""
"","do_trial","291","1702516","0.0-270.0-0.0","853.4000000953674","","","","50","0,0,0","5","countryside","224","probe-221","0.5423397382589482","0.7200832778124487","0.1964440840469095","0","","","","",""
"","do_trial","292","1708803","0.0-271.0-0.0","746.5","","","","50","1,1,1","5","countryside","225","probe-128","0.48163088030348383","0.9116224043893331","0.23421818581615014","1","","","","",""
"","do_trial","293","1714731","0.0-272.0-0.0","386.90000009536743","","","","50","1,1,1","5","countryside","226","probe-116","0.3821023664095813","0.879716429290229","0.30308899440245746","1","","","","",""
"","do_trial","294","1720721","0.0-273.0-0.0","449.90000009536743","","","","50","0,1,1","5","countryside","227","probe-163","0.38355556753466574","0.8651985258226779","0.26126629399826806","1","","","","",""
"","do_trial","295","1727319","0.0-274.0-0.0","1053.1000003814697","","","","50","1,1,0","5","countryside","228","probe-105","0.3790250920167704","0.8942705454516278","0.09663532249857129","1","","","","",""
"","do_trial","296","1733323","0.0-275.0-0.0","454.90000009536743","","","","50","0,0,0","5","countryside","229","probe-30","0.2965708534859996","0.8571346104782681","0.14730655861967878","0","","","","",""
"","do_trial","297","1739622","0.0-276.0-0.0","746.2999997138977","","","","50","1,1,0","5","countryside","230","probe-238","0.4369804271400321","0.7546520681914075","0.1827263682896725","1","","","","",""
"","do_trial","298","1745452","0.0-277.0-0.0","279.59999990463257","","","","50","0,0,0","5","countryside","231","probe-172","0.45314452571852903","0.7670624850870772","0.21782599796794785","0","","","","",""
"","do_trial","299","1751507","0.0-278.0-0.0","505.2999997138977","","","","50","0,1,0","5","countryside","232","probe-01","0.35637222051308703","0.9306042289592286","0.13637382829620218","1","","","","",""
"","do_trial","300","1757977","0.0-279.0-0.0","930.0999999046326","","","","50","1,1,0","5","countryside","233","probe-136","0.3112403477943359","0.9494018797144328","0.1944537016270645","1","","","","",""
"","do_trial","301","1764319","0.0-280.0-0.0","797.3999996185303","","","","50","1,1,0","5","countryside","234","probe-182","0.3332119798506561","0.9490993097059235","0.3151119697687602","1","","","","",""
"","do_trial","302","1770590","0.0-281.0-0.0","726.5999999046326","","","","50","0,1,0","5","countryside","235","probe-154","0.404176311180091","0.8882670596930956","0.10371250882085764","1","","","","",""
"","do_trial","303","1776763","0.0-282.0-0.0","631.6999998092651","","","","50","0,1,0","5","countryside","236","probe-33","0.34754399025847865","0.9325457288486433","0.08326162360887757","1","","","","",""
"","do_trial","304","1782817","0.0-283.0-0.0","506.90000009536743","","","","50","0,1,0","5","countryside","237","probe-24","0.27118247269100487","0.8856001930262698","0.09875157919081788","1","","","","",""
"","do_trial","305","1789221","0.0-284.0-0.0","853.2000002861023","","","","50","0,1,0","5","countryside","238","probe-85","0.45038666929148174","0.8808481449044099","0.10068711908227561","1","","","","",""
"","do_trial","306","1795275","0.0-285.0-0.0","null","","","","null","0,1,0","5","countryside","239","probe-169","0.31664686675027315","0.7803965655118401","0.0768160296008528","","","","","",""
"","do_bye","307","1796794","0.0-286.0-0.0","null","","","","null","","","","","","","","","","","","","",""
"","html-keyboard-response","308","1824371","0.0-286.0-1.0","27576.400000095367","<div class='center'><p>You may take a break now!</p><p> Stretch for a little bit. Get a glass of water.</p><p> You have two minutes to rest. Then, the game will automatically move on.</p><p>If you’d like to get started on the second half of the experiment sooner, then press the <b>space bar</b></p></div>","32","","","","","","","","","","","","","","","",""
"","html-keyboard-response","309","1831707","0.0-286.0-2.0","7334.900000095367","<div class='center'><p>You’ve arrived at the final destination of your journey! Unfortunately, it’s very foggy out, so you won’t be able to see it in the distance like in previous places you've visited.</p><p>You’ll still be deciding which pirates you want to rob ships. However, because of the fog you also won’t be able to see the ship in the distance. </p><p><b>[Press the space bar to continue]</b></p></div>","32","","","","","","","","","","","","","","","",""
"","html-keyboard-response","310","1856955","0.0-286.0-3.0","25247.300000190735","<div class='center'><p> Sometimes you’ll be asked if you’ve seen a ship before (see the example below). You will use the 5, 6, 7, 8 buttons on your keyboard to respond. </p><p> If you definitely did not the ship, pick the the big red thumbs down by pressing <b>5</b>.</p><p> If you don’t think you saw it but aren’t sure, then pick the small red thumbs down by pressing <b>6</b>.</p><p> If you think you might have seen it, then pick the small green thumbs up by pressing <b>7</b>.</p><p> If you definitely did see this ship before, then pick the big thumb green thumbs up by pressing <b>8</b>.</p><p> If you remember correctly, then you’ll get a gold coin!</p><p><b>[Press the space bar to begin the next phase of the experiment]</b></p><p><img src='run_exp/static/images/example_recog_trial.png' height='500'></p></div>","32","","","","","","","","","","","","","","","",""
"","do_welcome","311","1858468","0.0-286.0-4.0","null","","","","null","","","","","","","","","","","","","",""
"","do_trial","312","1864099","0.0-287.0-0.0","2089.199999809265","","","","49","0,1,0","6","blank","240","null","0.4307585758343588","1","0.22301315448386141","0","","","","",""
"","do_trial","313","1868623","0.0-288.0-0.0","977.9000000953674","","","","50","1,1,0","6","blank","241","null","0.4610033304987631","0.8715756572843568","0.2904418283960596","1","","","","",""
"","do_trial","314","1872774","0.0-289.0-0.0","599.1000003814697","","","","50","1,1,0","6","blank","242","null","0.3565241001382392","0.7616220872891333","0.09406022517485015","1","","","","",""
"","do_trial","315","1876878","0.0-290.0-0.0","559.9000000953674","","","","50","0,1,0","6","blank","243","null","0.4078603715211299","0.8773190927892976","0.05694334163122563","1","","","","",""
"","do_recog","316","1881090","0.0-291.0-0.0","2705","","","","56","","","","244","probe-176","","","","","1","[object Object]","123","3","1"
"","do_trial","317","1886191","0.0-292.0-0.0","1556.5","","","","50","1,1,0","6","blank","245","null","0.5438728602427334","0.7840716097799164","0.12324994746312357","1","","","","",""
"","do_trial","318","1891891","0.0-293.0-0.0","2149.4000000953674","","","","50","0,1,0","6","blank","246","null","0.4666308085547941","0.7720621474292164","0.15511898384317185","1","","","","",""
"","do_recog","319","1895229","0.0-294.0-0.0","1828.2000002861023","","","","56","","","","247","probe-52","","","","","1","[object Object]","120","3","1"
"","html-keyboard-response","320","1899138","0.0-295.0-0.0","3908.7000002861023","<div class='center'>You are all done with the experiment! You made $15 plus $3 in bonus payment!! Thank you for participating. You will recieve your payment within 3 days<p><b>[Press the space bar to end the experiment]</b></p></div>","32","","","","","","","","","","","","","","","",""
