"success","trial_type","trial_index","time_elapsed","internal_node_id","rt","stimulus","key_press","response","choice_outcomes","context_n","context_img_id","trial_n","probe_img_id","pR_red","pR_white","pR_black","outcome","contextArray_ind","validImageProbes","invalidImageProbes","pRew_Red","pRew_White","pRew_Black","availableForMemProbe","invalidProbeTrials","invalidProbeTrials_copy","mem_probe_trials","choice_blocks"
"true","fullscreen","0","6372","0.0-0.0","","","","","","","","","","","","","","","","","","","","","","","",""
"","pavlovia","1","6377","0.0-1.0","","","","","","","","","","","","","","","","","","","","","","","",""
"","html-keyboard-response","2","8323","0.0-2.0","1945.1050000207033","<div class='center'><p>In the game, you will get to choose which of three pirates you want to rob the next ship. <p>Press the <b>‘1’</b> button on your keyboard to pick the pirate with the red beard.</p><p> Press <b>‘2’</b> to pick the pirate with the white beard.</p><p> Press <b>‘3’</b> to pick the pirate with the black beard.</p><p>Try picking a pirate now!</p><p><img src='run_exp/static/images/all_pirates.png' height='500'></p></div>","49","","","","","","","","","","","","","","","","","","","","",""
"","html-keyboard-response","3","8867","0.0-3.0-0.0","542.4049999855924","<div class='center'><p>This pirate was successful at robbing the ship!</p><p><img src='run_exp/static/images/red_win.png' height='500'></p><p><b>[Press the space bar to continue]</b></p></div>","32","","","","","","","","","","","","","","","","","","","","",""
"","html-keyboard-response","4","9461","0.0-3.0-1.0","592.8249999997206","<div class='center'><p>Now try choosing another</p><p><img src='run_exp/static/images/all_pirates.png' height='500'></p></div>","49","","","","","","","","","","","","","","","","","","","","",""
"","html-keyboard-response","5","10401","0.0-4.0-0.0","939.459999994142","<div class='center'><p>This pirate was not successful at robbing the ship!</p><p><img src='run_exp/static/images/red_no_win.png' height='500'></p><p><b>[Press the space bar to continue]</b></p></div>","32","","","","","","","","","","","","","","","","","","","","",""
"","html-keyboard-response","6","11047","0.0-5.0-0.0","644.4900000060443","<div class='center'><p>You’ll stop at these 6 places on your journey.</p><p><img src='run_exp/static/images/all_contexts.png' height='500'></p><p><b>[Press the space bar to continue]</b></p></div>","32","","","","","","","","","","","","","","","","","","","","",""
"","html-keyboard-response","7","11439","0.0-5.0-1.0","391.2799999816343","<div class='center'><p>How good a pirate is at robbing ships will depend on the current place.</p><p> Some pirates will have been to the place before, and will have more experience robbing ships there.</p><p>So, they will be more successful at stealing gold and bringing it back to you.</p><p><b>[Press the space bar to continue]</b></p></div>","32","","","","","","","","","","","","","","","","","","","","",""
"","html-keyboard-response","8","11876","0.0-5.0-2.0","436.1800000187941","<div class='center'><p>How successful a pirate is at robbing ships can also change in a place.<p> Ships may hear about the pirates coming and will improve their defenses. This may make it more difficult to rob them.</p><p> Ships may also grow lazy and lower their defenses. This may make it easier to rob them.</p><br><p>Things are always changing on the high seas! So, try your best to pay attention!</p><p><img src='run_exp/static/images/contingency.png' height='500'></p><p><b>[Press the space bar to continue]</b></p></div>","32","","","","","","","","","","","","","","","","","","","","",""
"","html-keyboard-response","9","12372","0.0-5.0-3.0","495.2000000048429","<div class='center'><p>Once you choose a pirate to rob a ship, you’ll be shown the ship they are robbing.</p><p>The ship will have a picture of the item they sold at the marketplace.</p><p> Try your best to remember the ship and where you saw the ship.</p><p> You’ll have to remember this for later, and remembering this correctly will help you win more bonus money!</p><p>You can remember the ship by remembering the item they sold at the marketplace</p><p>A helpful strategy is to try to come up with a story of the chosen pirate and ship’s item interacting with the scene.</p><p> For example, a ship might have sold travel mugs and you could imagine red beard walking through the city with a travel mug. </p><p>Or imagine an apple falling from a tree into white beard's hands in the forest.</p><p><img src='run_exp/static/images/example_probe.png' height='500'></p><p><b>[Press the space bar to continue]</b></p></div>","32","","","","","","","","","","","","","","","","","","","","",""
"","html-keyboard-response","10","12971","0.0-5.0-4.0","598.0449999915436","<div class='center'><p>If you don’t make your choice fast enough, you’ll have to wait a few seconds before you can make another one. </p><p>You can’t win more gold. You just have to sit and wait.</p><p><img src='run_exp/static/images/hurry_up.png' height='500'></p><p><b>[Press the space bar to continue]</b></p></div>","32","","","","","","","","","","","","","","","","","","","","",""
"","html-keyboard-response","11","13673","0.0-5.0-5.0","701.489999977639","<div class='center'><p>Again, you have two important things to do: </p><b><p> 1. Pick the pirate who you think will be most successful at robbing the next ship.</p></b><b><p> 2. Remember where a pirate robbed a ship.</p> </b><p>Both are important in determining how much bonus money you’ll win.</p><br><p>Let’s try a practice game. The game will start by showing you the pirates. First pick a pirate using the <b> 1, 2, 3 </b> buttons on your keyboard. When you are shown a ship, try to remember the place you’re in by making up a story.</p><p> You only have 3 seconds to pick a pirate, so please make a choice quickly! If you are too slow, you’ll have to wait a bit during the time out.</p><p> Don’t feel rushed, but please do try to make a choice every time.</p><p>How good a pirate is at robbing a ship will change depending on the place they are in and how good the defenses are of the ship.</p> <p>This is just a practice game, so you’re not playing for money. </p><p>You’ll receive a bag which may or may not contain gold coins.</p><p> In the real game, though, you’ll be able to see whether or not you received the gold coins.</p><p> Good luck, remember press <b>'1'</b> to choose red beard, <b>'2'</b> to choose white beard, and <b>'3'</b> to choose black beard</p><p><b>[Press the space bar to begin the practice game]</b></p></div>","32","","","","","","","","","","","","","","","","","","","","",""
"","do_trial_prac","12","18728","0.0-5.0-6.0","543.390000006184","","","49","","","","","","","","","","","","","","","","","","","",""
"","do_trial_prac","13","23552","0.0-5.0-7.0","313.5300000139978","","","49","","","","","","","","","","","","","","","","","","","",""
"","do_trial_prac","14","28508","0.0-5.0-8.0","449.06000001356006","","","49","","","","","","","","","","","","","","","","","","","",""
"","do_trial_prac","15","33469","0.0-5.0-9.0","455.98500000778586","","","50","","","","","","","","","","","","","","","","","","","",""
"","do_trial_prac","16","38404","0.0-5.0-10.0","427.0200000028126","","","51","","","","","","","","","","","","","","","","","","","",""
"","html-keyboard-response","17","39113","0.0-5.0-11.0","707.9649999795947","<div class='center'><p>Great job on the practice game!</p><p> Now, you will be asked you some true or false questions to make sure you really understand the rules of the game.</p><p> Press <b>'1'</b> on the keyboard for true and press <b>'2'</b> for false.</p><p><b>[Press the space bar to begin the quiz]</b></p></div>","32","","","","","","","","","","","","","","","","","","","","",""
"","html-keyboard-response","18","39749","0.0-5.0-12.0","634.8450000223238","<div class='center'><p>You win bonus money by making choices as fast as possible.</p><p>Press 1 for true and press  2 for false.</p></div>","50","","","","","","","","","","","","","","","","","","","","",""
"","html-keyboard-response","19","40236","0.0-6.0-0.0","486.3699999987148","<br><br><br><br><p>That's correct!</p> <p><b>[press the space bar to continue with the quiz]</b></p>","32","","","","","","","","","","","","","","","","","","","","",""
"","html-keyboard-response","20","40776","0.0-6.0-1.0","539.439999993192","<div class='center'><p>You press the <b>‘3’</b> button on the keyboard to choose the red bearded pirate? </p><p>Press 1 for true and press  2 for false.</p></div>","50","","","","","","","","","","","","","","","","","","","","",""
"","html-keyboard-response","21","41157","0.0-7.0-0.0","380.1800000073854","<br><br><br><br><p>That's correct!</p> <p><b>[press the space bar to continue with the quiz]</b></p>","32","","","","","","","","","","","","","","","","","","","","",""
"","html-keyboard-response","22","41464","0.0-7.0-1.0","306.93000002065673","<div class='center'><p>A pirate will always be equally successful at robbing ships in each place</p><p>Press 1 for true and press  2 for false.</p></div>","50","","","","","","","","","","","","","","","","","","","","",""
"","html-keyboard-response","23","41818","0.0-8.0-0.0","352.79000000446104","<br><br><br><br><p>That's correct!</p> <p><b>[press the space bar to continue with the quiz]</b></p>","32","","","","","","","","","","","","","","","","","","","","",""
"","html-keyboard-response","24","42516","0.0-8.0-1.0","697.2599999862723","<div class='center'><p>You should remember the place where a pirate robbed a ship.</p><p>Press 1 for true and press  2 for false.</p></div>","50","","","","","","","","","","","","","","","","","","","","",""
"","html-keyboard-response","25","43096","0.0-9.0-0.0","579.7400000155903","<br><br><br><br><p>That’s incorrect! You should remember the place where a pirate robbed a ship. You can try associating the ship’s item with the place to better remember.</p><p><b>[press the space bar to continue with the quiz]</b></p>","32","","","","","","","","","","","","","","","","","","","","",""
"","html-keyboard-response","26","43527","0.0-10.0-0.0","429.95499999960884","<br><br><br><br><p>Oops, you missed some questions. Now that you’ve heard the correct answers. Try the quiz again! If you fail the quiz too many times, you won’t be able to do the experiment. </p> <p><br>[press the space bar to repeat the quiz]</br></p>","32","","","","","","","","","","","","","","","","","","","","",""
"","html-keyboard-response","27","44950","0.0-10.0-1.0","1423.2049999991432","<div class='center'><p>You win bonus money by making choices as fast as possible.</p><p>Press 1 for true and press  2 for false.</p></div>","50","","","","","","","","","","","","","","","","","","","","",""
"","html-keyboard-response","28","45452","0.0-11.0-0.0","501.1649999942165","<br><br><br><br><p>That's correct!</p> <p><b>[press the space bar to continue with the quiz]</b></p>","32","","","","","","","","","","","","","","","","","","","","",""
"","html-keyboard-response","29","45704","0.0-11.0-1.0","251.46999998833053","<div class='center'><p>You press the <b>‘3’</b> button on the keyboard to choose the red bearded pirate? </p><p>Press 1 for true and press  2 for false.</p></div>","50","","","","","","","","","","","","","","","","","","","","",""
"","html-keyboard-response","30","46040","0.0-12.0-0.0","335.24499999475665","<br><br><br><br><p>That's correct!</p> <p><b>[press the space bar to continue with the quiz]</b></p>","32","","","","","","","","","","","","","","","","","","","","",""
"","html-keyboard-response","31","46343","0.0-12.0-1.0","302.65500000678","<div class='center'><p>A pirate will always be equally successful at robbing ships in each place</p><p>Press 1 for true and press  2 for false.</p></div>","50","","","","","","","","","","","","","","","","","","","","",""
"","html-keyboard-response","32","46574","0.0-13.0-0.0","229.6199999982491","<br><br><br><br><p>That's correct!</p> <p><b>[press the space bar to continue with the quiz]</b></p>","32","","","","","","","","","","","","","","","","","","","","",""
"","html-keyboard-response","33","46896","0.0-13.0-1.0","321.6750000137836","<div class='center'><p>You should remember the place where a pirate robbed a ship.</p><p>Press 1 for true and press  2 for false.</p></div>","49","","","","","","","","","","","","","","","","","","","","",""
"","html-keyboard-response","34","47069","0.0-14.0-0.0","171.57000000588596","<br><br><br><br><p>That's correct!</p> <p><b>[press the space bar to continue with the quiz]</b></p>","32","","","","","","","","","","","","","","","","","","","","",""
"","html-keyboard-response","35","47485","0.0-15.0-0.0","414.59000000031665","<br><br><br><br><p>Good job! You’re now ready to move on to the real game!</p> <p><br>[press the space bar to begin!]</br></p>","32","","","","","","","","","","","","","","","","","","","","",""
"","do_welcome","36","48993","0.0-16.0-0.0","null","","","null","","","","","","","","","","","","","","","","","","","",""
"","do_trial","37","57297","0.0-17.0-0.0","null","","","null","1,0,0","0","mountain","0","probe-06","1","0.4","0.1","","","","","","","","","","","",""
"","do_trial","38","65408","0.0-18.0-0.0","null","","","null","1,0,0","0","mountain","1","probe-143","1","0.48705509972749644","0.16399326638690845","","","","","","","","","","","",""
"","do_bye","39","68407","0.0-19.0-0.0","null","","","null","","","","","","","","","","","","","","","","","","","",""
"","do_travel","40","75065","0.0-20.0-0.0","null","","","null","","","","","","","","","","","","","","","","","","","",""
"","do_welcome","41","77467","0.0-20.0-1.0","null","","","null","","","","","","","","","","","","","","","","","","","",""
"","do_trial","42","84928","0.0-21.0-0.0","null","","","null","1,1,0","1","forest","2","probe-133","1","0.40650789273697113","0.19675392183034215","","","","","","","","","","","",""
"","do_trial","43","93419","0.0-22.0-0.0","null","","","null","1,1,0","1","forest","3","probe-42","1","0.46099732169709257","0.09826890926473325","","","","","","","","","","","",""
"","do_bye","44","96422","0.0-23.0-0.0","null","","","null","","","","","","","","","","","","","","","","","","","",""
"","do_travel","45","102864","0.0-24.0-0.0","null","","","null","","","","","","","","","","","","","","","","","","","",""
"","do_welcome","46","104679","0.0-24.0-1.0","null","","","null","","","","","","","","","","","","","","","","","","","",""
"","do_trial","47","114340","0.0-25.0-0.0","null","","","null","1,0,0","2","city","4","probe-70","0.9223477171607104","0.4663313965148601","0.07322723022297126","","","","","","","","","","","",""
"","do_trial","48","122445","0.0-26.0-0.0","null","","","null","0,1,0","2","city","5","probe-231","0.9329445776207207","0.45052268008568613","0.06560522985908229","","","","","","","","","","","",""
"","do_bye","49","125447","0.0-27.0-0.0","null","","","null","","","","","","","","","","","","","","","","","","","",""
"","do_travel","50","131916","0.0-28.0-0.0","null","","","null","","","","","","","","","","","","","","","","","","","",""
"","do_welcome","51","134556","0.0-28.0-1.0","null","","","null","","","","","","","","","","","","","","","","","","","",""
"","do_trial","52","142107","0.0-29.0-0.0","null","","","null","1,0,0","3","coast","6","probe-130","0.7919415546856456","0.5359010769118716","0.15209650133524516","","","","","","","","","","","",""
"","do_trial","53","149797","0.0-30.0-0.0","null","","","null","1,0,0","3","coast","7","probe-200","0.7344061806842345","0.42003809710008105","0.11063708784298885","","","","","","","","","","","",""
"","do_bye","54","152607","0.0-31.0-0.0","null","","","null","","","","","","","","","","","","","","","","","","","",""
"","do_travel","55","158998","0.0-32.0-0.0","null","","","null","","","","","","","","","","","","","","","","","","","",""
"","do_welcome","56","161512","0.0-32.0-1.0","null","","","null","","","","","","","","","","","","","","","","","","","",""
"","do_trial","57","169027","0.0-33.0-0.0","null","","","null","1,1,1","4","highway","8","probe-35","0.6958436724897757","0.495545479163077","0.13129987576838117","","","","","","","","","","","",""
"","do_trial","58","177605","0.0-34.0-0.0","null","","","null","0,0,0","4","highway","9","probe-180","0.8379427866532757","0.4741702805054288","0.15289039245696712","","","","","","","","","","","",""
"","do_bye","59","180607","0.0-35.0-0.0","null","","","null","","","","","","","","","","","","","","","","","","","",""
"","do_travel","60","186969","0.0-36.0-0.0","null","","","null","","","","","","","","","","","","","","","","","","","",""
"","do_welcome","61","189522","0.0-36.0-1.0","null","","","null","","","","","","","","","","","","","","","","","","","",""
"","do_trial","62","197105","0.0-37.0-0.0","null","","","null","1,0,1","5","countryside","10","probe-237","0.7222784796996956","0.5972341053106112","0.1821720997166034","","","","","","","","","","","",""
"","do_trial","63","205643","0.0-38.0-0.0","null","","","null","0,1,0","5","countryside","11","probe-28","0.6815016080672334","0.7871052729169615","0.0513254655335146","","","","","","","","","","","",""
"","do_bye","64","207690","0.0-39.0-0.0","null","","","null","","","","","","","","","","","","","","","","","","","",""
"","html-keyboard-response","65","209333","0.0-39.0-1.0","1641.970000026049","<div class='center'>You are all done with the first part of the experiment! Thank you for participating. Tomorrow, you will recieve an invite to participate in the next phase of the experiment which you must complete by the end of the day. <p><b>[Press the space bar to end the experiment]</b></p></div>","32","","","","","","","","","","","2,3,5,0,4,1","5,142,132,41,69,230,129,199,34,179,236,27,64,160,235,82,158,95,186,85,44,216,128,215,121,78,79,140,209,62,81,8,7,30,231,134,66,119,109,131,167,149,118,26,53,55,94,67,147,96,86,32,114,10,239,87,116,31,174,233,22,145,19,202,178,232,166,181,210,205,99,162,143,60,84,195,155,169,92,65,173,15,6,18,177,153,185,125,228,136,2,176,180,29,170,146,157,201,148,221,219,1,214,83,226,75,203,25,106,58,152,28,217,107,238,211,183,197,117,14,122,57,172,48,13,123,12,103,165,234,151,111,224,101,135,33,222,46,90,49,70,130,71,208,141,73,40,193,159,38,190,138,184,74,223,161,11,133,213,200,80,68,0,42,52,229,204,97,120,164,212,187,16,39,93,88,45,105,36,124,115,100,76,188,61,21,91,102,72,35,206,127,54,104,4,189,17,168,198,218,110,191,9,63,47,225,194,89,237,192,163,171,154,24,139,175,182,207,220,150,59,108,227,144,43,113,77,126,196,50,51,137,3,20,156,112,23,56,37,98","10,2,0,15,17,18,1,4,16,3,7,14,9,8,11,5,6,13,12","0.5941783873591524,0.44954426581999224,0.4210487409185838,0.30465457879065583,0.18578677982950303,0.1797182186715881,0.2725593402921726,0.33687430167557353,0.21704633699004397,0.41126799800387,0.3411163161295025,0.3699235195396106,0.3738023832439168,0.23559828891534484,0.3759841023603538,0.42031334286201005,0.4989991520413964,0.41806558958677104,0.3456077192828323,0.27898527987740535,0.32093206447433253,0.43242553065677647,0.34496680138696795,0.4447626146941777,0.3073523355958606,0.3897698083764175,0.40749727696315885,0.39064220969174474,0.17405299194226725,0.05067338975106228,0.18167937024742284,0.22969775117092683,0.12029919837232353,0.27370679038706314,0.2560583702182779,0.44960784604795373,0.4345341746970262,0.5040420303059086,0.3339966516333675,0.26076646019564437,0.17786983235244197,0.22697555742065792,0.22678788983640993,0.13406460449304616,0.08017584008071023,0.05881294637104311,0.05573084502699393,0.06239577502890782,0.13422457445551725,0.1045031076812366,0.12392191928577463,0.35488259275037415,0.15858400922764668,0.2068337232565771,0.0765961818901502,0.21838865200812002,0.14013725166343086,0.14063370690489685,0.06204376612130929,0.1056454319371608,0.10476627707539685,0.051208547960803444,0.09719704140744286,0.08388806033331352,0.1363996897333126,0.102026255960433,0.1330452827414093,0.1214689562003887,0.1564139556920415,0.062040536916395335,0.06956638270453873,0.09604458889808337,0.10680303228564747,0.05328884358280704,0.07017688466738449,0.0774224311844964,0.06963518309073735,0.10644354212635948,0.41747634166581804,0.7161304162585796,0.8523321222425583,0.7871195882277785,0.8628588621122094,0.860456630404882,0.8081452577699096,0.7598694542694773,0.6621917063710703,0.8803265666146426,0.8087533586865423,0.8607136802888309,0.887961259224575,0.9324158103251711,0.850131549184623,0.723794832675829,0.7212036156932712,0.8839571489343235,0.8802210396162923,0.8652460929382036,0.8255444303157816,0.7934420317135021,0.7911093334873276,0.654070329383259,0.6914286634218347,0.6777997834640185,0.8013111929785935,0.8348581214075084,0.864499575954871,0.7418189458569378,1,1,1,1,0.9314930588000211,0.9100209974484507,0.8466997343936419,0.8547619166179763,0.9269821766052527,0.8211094053795058,0.591450333793521,0.4018712334937947,0.29955460390176264,0.13082793841560753,0.13316795109415797,0.16801657184138877,0.20036445458647095,0.1006058399302555,0.11922868695091321,0.09613951701422548,0.1505375127655911,0.1737420927902577,0.09044984795509738,0.08548030041416356,0.23568035518921648,0.18938587506507346,0.09192823684340938,0.05797908571847213,0.05830681943840247,0.20084193408492684,0.1770746368836006,0.13355928373632805,0.10382684072804862,0.234450044621695,0.19937963150362673,0.2897797023296112,0.21207860208533724,0.13351802627855605,0.2459372297421537,0.2656679413042742,0.2154241806155092,0.17292854753295586,0.08850174233512774,0.06055201364880727,0.24035197662717525,0.10798194926947229,0.09194585395099968,0.10679707945962416,0.1429531424892093,0.05431699178215792,0.1363167940703782,0.14687904667580717,0.2593964995603448,0.3030570465783375,0.36326198994622466,0.20030846395645693,0.06347671636553916,0.08307914014992315,0.061814012762766206,0.10364052568385632,0.058880164264015995,0.060381132904342286,0.10669043677319907,0.08625254310444636,0.1531909077570401,0.08000103538586072,0.14389624198017284,0.1520742143790951,0.21533355493948894,0.21126526651493685,0.3535866146174121,0.333094613947509,0.2521292578935672,0.23065103773160317,0.20102338201556919,0.06136431589294967,0.08965933883827365,0.07165381900465712,0.08438061982633585,0.15497386170942382,0.22150478782254385,0.3306950188665232,0.2641732339182664,0.12267377540748452,0.08597950850708058,0.0658867451886884,0.1676555356637584,0.24397708811797397,0.052205852713624275,0.1391254809599261,0.2685616579301699,0.383338488443174,0.3043931318082867,0.3197264123347582,0.39678169802752555,0.4107639286107374,0.31094284556391244,0.28032366428767536,0.3526762863216466,0.3769431114059229,0.210900583175733,0.18688566462765685,0.2332564029051552,0.49925234415676695,0.41388774510628035,0.40507749358469747,0.5787894992880916,0.5968022089464564,0.5194092900853429,0.39489845755652114,0.4304207700693104,0.38195228546555193,0.39326493825510545,0.39370954681299614,0.27600065284966424,0.34998792237718657,0.3540236379107437,0.38624220738071946,0.32238123090111914,0.3069539115543071,0.24016225687401016,0.18126698054706392,0.2268611647189298,0.26019944092361696,0.33317454115213113,0.4319418119277568,0.4273785668946616,0.3729704137856841,0.43940011354657593,0.352127802947,0.2847885285138757,0.23376505716546198,0.22940624382012673,0.14833941736467396,0.16604603046593622,0.1271245748045191,0.07928145316537451,0.17675408399866427,0.10500547181594921,0.10625525990054646,0.18328900444951415,0.0776079193910718,0.15283832413423626,0.1199090919119713,0.10090677090847938,0.1600615308351695,0.171337780904376,0.19603710055065765,0.20612481032922866,0.23607319195321544,0.2211351900721322,0.19009744821581886,0.07771246327902297,0.13353389592530124,0.13064787257889765,0.07524212775278062,0.11604197214324156,0.14229332364011352,0.08067607613017556,0.13131020673543922,0.25785890044682236,0.324384197548238,0.5583073928551499,0.6222813108624974,0.6404189579515038,0.7182293077862812,0.7373719689798149,0.810294025314948,0.7525201524729498,0.8231212546201406,0.8179320161236412,0.8708695775552413,0.8239267736310351,0.8671194228902388,0.9329353218476236,0.8912194276294152,0.9042868028027656,0.9263032255702885,0.9048606092032165,0.8502756556933351,1,0.9336765943224928,0.7676571626938704,0.8148646166700175,0.8372288194388895,0.9023902713153777,0.8105149545405115,0.843740694510772,0.7063343100571123,0.7164360768822614,0.6615596988855772,0.6676046140494113,0.5628451922462868,0.4324805907156209,0.2686868682323442,0.27384919782298206,0.31339861862983187,0.20125945641118137,0.2517660441621322,0.38314777912067904,0.3962909386230464,0.4826448685937892,0.4831781072732838,0.2793622188716554,0.37707832386039597,0.33968604246098577,0.36797311673220984,0.44638465844172964,0.4341105450950613,0.44352808585794434,0.28335951736601334,0.251311410870047,0.343545757037504,0.3803208995442563,0.44337444291662303,0.5299130935085666,0.45394844176805926,0.38328341882658423,0.40795926190403137,0.388946354520537,0.5283919523431245,0.7674700181387023,0.9246012612920268,0.7949070851127295,0.826254336730685,0.8508404832534939,0.924486629970356,0.8528830761289123,0.761355592696709,0.8627109120180834,0.9199649091744339,0.8952556575242169,0.8328403385404767,0.8444460031025848,0.8690427414294135,0.8043055877270681,0.8187778248349344,0.6667718493894986,0.7151983374236179,0.6260972605365963,1,0.9052262848360184,0.8356021216947574,0.9026348552972614,0.814248198964359,0.79302988712214,0.6847012161979208,0.6276321689715263,0.7137898758577857,0.7473096567538288,0.6755670371224278,0.8706818163604028,0.6734501957146575,0.6474923343459454,0.7928303929523296,0.894594958175544,0.6607781689252766,0.6613200468064336,0.6341884928113276,0.38457199651677465,0.37769571927903356,0.24330190565534487,0.16119448909501696,0.2133197628066381,0.10785444250718061,0.11144553229005802,0.15060572042002718,0.1294678955510496,0.07337636275448915,0.08750032285096943,0.07943618954766635,0.06211788988541481,0.1661635791245353,0.13290069442853347,0.142230405131717,0.12432568759624697,0.20745173183874857,0.2432037705373878,0.1579792888047138,0.2046214494516288,0.20111922892221415,0.22238373246687704,0.4808118839964148,0.6553985580124118,0.617443827832655,0.6251317670932515,0.6119542534702688,0.7026913607501138,0.7637436593891371,0.8376581527058766,0.943375669524031,0.860531030324891,0.9442284860002131,0.8896443585289092,0.9017153480804052,0.8981244723579963,0.9302904210080293,0.8904993130657745,0.8285839269549652,0.8222376795188258","0.7945552415608955,0.7113388981202043,0.6804192683462209,0.729280568508443,0.7261875055475685,0.8774193780501826,0.8290757016303647,0.8330364124437797,0.7709534426206822,0.9036491457707692,0.8651411902811533,0.8850471416367951,0.941962296504368,0.8394529337033351,0.7917559427810105,0.8194692238101474,0.6560333893871055,0.6676107917922223,0.8618766901975741,0.84220586396151,0.8840546224537452,0.8762212013024576,0.8367335974363678,0.9289895938266289,0.8097709315552685,0.7621674937979194,0.9060098574501596,0.8713765179763472,1,1,1,1,0.9454982337455304,0.8954700172433618,0.7593798486345275,0.7952571631125089,0.7660668215293673,0.6809205017063127,0.5543508846872843,0.5915178453571455,0.5149472918262088,0.42242599086028015,0.4667192848874015,0.46618141255748285,0.44443488643602336,0.4153245890800525,0.32874977326256605,0.5093202544833377,0.4092043179305744,0.4487102649699884,0.521688482639808,0.46482064809409224,0.38931514486567503,0.2885285913874655,0.38100606939870746,0.4118429889877387,0.539923493363175,0.4429884334834461,0.4362085292101921,0.403601165513879,0.49138849430080833,0.5898928468143609,0.5114915829777614,0.5465105823968169,0.5456355639047795,0.42612498506521485,0.3411254743199465,0.3270210821095275,0.3061368824503132,0.3891262713775309,0.43564503072674293,0.45395725030074263,0.4461182192834754,0.4940663708744065,0.44301180990637434,0.4308413474110229,0.4105676740458389,0.23579952185704223,0.3166092230431085,0.3200063075049733,0.4492281231277709,0.5860298722032575,0.5064272721242531,0.5615012996522764,0.41527580153886895,0.4206079257144791,0.44406955695886685,0.3883219232093771,0.551597248590913,0.5183707344330324,0.4407583804676584,0.3660418765434851,0.3404467161734434,0.2769737299037314,0.17370423454413966,0.24760459757650416,0.23186165020948582,0.4444540538452999,0.3047967232163308,0.4216400510971811,0.36270625111389493,0.29850869499704336,0.35315767243579227,0.35081658042983516,0.3569811081121171,0.540033634713454,0.6214212171609375,0.5550009055488276,0.523331516295499,0.5438464409195729,0.43129107660241667,0.4461311693731819,0.46592402914368114,0.5799829697425634,0.43463723723065545,0.45629848858888883,0.453073397335333,0.41913149233425245,0.4340906589722322,0.4882231255750281,0.48432737423765687,0.49202842178259276,0.44821058955134646,0.3405726114399703,0.4298136684258613,0.4900884724182998,0.4381617154852958,0.33951301283205865,0.37224058761931117,0.4357677479223269,0.3358996166435687,0.48531622904853594,0.37470074599418807,0.2941634834711858,0.3158329415595624,0.41517549505240126,0.4097554295508212,0.35277819302149305,0.3239170135915024,0.26460071548251834,0.39881648015720467,0.374000242875044,0.41077457659290245,0.3863928019475759,0.3360562003014097,0.2696701225532063,0.2750447891854364,0.21791395510126912,0.17708879260339258,0.21697371798566603,0.19664505794964512,0.2049613677311794,0.4394002462965847,0.4268883644990651,0.565320095615376,0.4924256896438766,0.20614730444647592,0.16736528309736018,0.3926679122163625,0.5469566964430733,0.5805852132948031,0.7196697378555669,0.7963871309505768,0.8293113187535281,0.776773970106524,0.7394281177143652,0.7845360933505594,0.6166738827408802,0.7803686282206935,0.8168791125003945,0.7783562380942265,0.914037553044042,0.916621697942562,0.9113494654744174,0.7110783327809063,0.8114393117870315,0.8888419170604795,0.8194122729421541,0.7780262023918958,0.7719375333816989,0.7621803667539583,0.7560202912995638,0.85185965031905,0.929019351210489,0.9262936667980195,0.9272385147749728,0.779149542422275,0.8158486326185077,1,1,1,1,0.8865822683976443,0.9004376652714723,0.7853451237367667,0.7440070406814899,0.7113971255338528,0.851373221604726,0.5064654254551388,0.2926009646953198,0.271503490715204,0.2879530992864083,0.12583946844878235,0.14048458780389203,0.242607863395722,0.2622981982705374,0.19744950092221955,0.16449663786605073,0.15996717638315588,0.13752814429295027,0.12564359716144408,0.0744592759208293,0.064852736596761,0.1986857001326227,0.13658154342116582,0.05920984544280458,0.07869540380156678,0.21157838354626543,0.17615198480635483,0.128518963401235,0.23438444347990633,0.24603522474756226,0.2921223609282237,0.20651766538565702,0.08582403566719808,0.14570318145212713,0.12881986106623614,0.2521698476893199,0.22248057575566127,0.18238097884412371,0.2546212066858808,0.1026992027980381,0.1708045885797252,0.130296367614265,0.1833246037440319,0.21394000695291282,0.26233239436300504,0.17383416825623155,0.22588071158396425,0.45003969836541446,0.5081160515558193,0.6420916722444611,0.8289727381818377,0.8243170915481923,0.7714130944990167,0.9309657963897345,0.9273523009501508,0.8322982763903335,0.8713721087464734,0.9013408680028687,0.9105623754127722,0.8178318927715678,0.6837678590015973,0.7335025824635664,0.6028073163260877,0.6942493948882261,0.7659784882409106,0.8717335443498442,1,0.9274389148135002,0.8658552560334102,0.7991947258399982,0.8027875169705417,0.7204605630859251,0.7934261333908156,0.7322376456109939,0.7249387354552453,0.5812074330539501,0.4265732702998358,0.5081539553506329,0.3345371958053391,0.07012897854619726,0.13149542872797107,0.12191372031854196,0.13172349769745917,0.14756943527009916,0.0995316549511665,0.25536156436033897,0.2700589926642425,0.3031591972205372,0.2617512683633159,0.20526779053989633,0.2314374015448809,0.0981321270965541,0.06306279835234892,0.18896172916942405,0.20845456943023152,0.2496557407322061,0.20163855465285807,0.14559991197335567,0.14856253558232954,0.1526875483020213,0.07049451483072501,0.0676298830395172,0.061093590215734316,0.1977865247194462,0.12391320736382698,0.11263578153586258,0.10434055514932522,0.19422732983153823,0.062021552127016016,0.09360657956654946,0.09331040969950447,0.0769854850349207,0.3289672775210737,0.24644842894580382,0.196359176261925,0.24527774718321302,0.2393887160314613,0.2109503061129936,0.20804175319992382,0.13109295033124452,0.10847653838178563,0.05902899033083923,0.11852462149688973,0.21912032572843884,0.09290751957293629,0.07380110470617987,0.18395157258395237,0.25576918727739806,0.1956419499374697,0.07792888849156576,0.16680683921524497,0.11161918661951611,0.0833373060197075,0.1438596576587433,0.19507633388589327,0.07830512225613127,0.17051362436466086,0.3594125153268754,0.3146717509696801,0.42264859216986794,0.4135063751395019,0.5723222857902853,0.6045393958348667,0.7244480801945136,0.6387140420396615,0.520509618140385,0.5160474395080263,0.7461193168584196,0.6862782277728018,0.5098592019877056,0.4827182084909519,0.38082579924598897,0.5075980854374597,0.4733412163702751,0.44448499914596773,0.43960670650472544,0.4948113893048175,0.6807213006871801,0.48004213452628336,0.450937295688081,0.5563582741557018,0.4130004026211866,0.4930995738035181,0.44509202594827507,0.41602723837399164,0.4513691583220678,0.4063454124152286,0.46846798844946846,0.45027887723180227,0.1771187938372447,0.24959665230660225,0.21247489940647107,0.28013321913620925,0.3009896685299193,0.3776629124263801,0.5411004130183377,0.5730342829813972,0.6710156848223671,0.7375061237879282,0.6271739522939909,0.7390034814498234,0.7388264899387194,0.7428824871212355,0.8173153490188242,0.9420619760093746,0.8021755748036875,1,0.9289346024659689,0.808667078688995,0.7567235090362886,0.7552802010111833,0.9074022240878543,0.7706510581232301,0.828996641229399,0.9048946012515733,0.870161307662772,0.9045572840989605,0.9047013382004001,0.4759092919285148,0.29415951785026034,0.23201226128907437,0.15808684131909698,0.05539577387003803,0.21615633065522574,0.2393337341168472,0.13382980622674864,0.20359459096335783,0.26214116598280723,0.16069504992063277,0.18864948756893404,0.06950766552070739,0.20223136628891497,0.06033891230699792,0.0796669485484182,0.1600413528278232,0.17677174127463274","0.0978508278161214,0.1487007900332671,0.05644027111896735,0.10654407365838708,0.09907785134706062,0.06268275852582958,0.13836133489185068,0.2352698547828813,0.06377833075546932,0.1421502227282945,0.053070691488111596,0.1869074481320226,0.13887723327187826,0.15541968831109482,0.10118990707531764,0.08702783960411052,0.2479306897891847,0.12088276883629462,0.08590875041820306,0.15347079098053265,0.1259819357269093,0.068371374412625,0.09862043148409874,0.11322041726680145,0.13068642942365824,0.1537115328711853,0.12606735688263365,0.06112603681431202,0.0689396869738009,0.20280540620700138,0.2140746881210574,0.09799645243505321,0.10006801295789755,0.10426937949805737,0.22396415933369113,0.14060849228179284,0.13721384379529425,0.13511132195375095,0.2913680701291524,0.4369101793955021,0.667454113712455,0.7891587548334562,0.8056215771014017,0.8204868134513198,0.8862056237215036,0.868756469604963,0.8112348508779621,0.7083257562630658,0.7562788466812538,0.7996223476403073,0.8283158103934204,0.810567402405366,0.7927032748981102,0.7693815858395398,0.7536478236651343,0.8665373925690955,0.8642170028670378,0.767746230982874,0.73342346002019,0.8745897887305535,0.7008538467909428,0.8201654286900805,0.6916916616868461,0.6400009823576257,0.6357605027617619,0.6676229005187203,0.7563544529276767,0.8861972164943467,1,1,1,1,0.9048450405201467,0.9417190692094224,0.87590089756623,0.9234015798516804,0.8900235216495292,0.8703121540185397,0.6007827742452543,0.4530178987449601,0.3730907708802923,0.27207907445253887,0.1363368441190583,0.07048719522144606,0.07978372023253373,0.12068069439889219,0.1703246846585916,0.10093243315285781,0.14319808469107065,0.21621862219854696,0.25854146782041426,0.29468728005130407,0.21904618225558659,0.09503981569309783,0.15134188202128399,0.07486980202553126,0.15128227552910986,0.05451200637211825,0.10260112798024469,0.14762960648468965,0.11747630317221865,0.09853362308638994,0.07148525147943635,0.2182519328790256,0.2271360331155237,0.22636624273913314,0.19738031906604073,0.12332445017944212,0.18667731608514493,0.22205259180521894,0.20343111383640136,0.17841611831979992,0.09649894320237744,0.13219950969680455,0.15625912355833033,0.05438451747201283,0.234715686035742,0.24258486532313495,0.489625486657625,0.5278190163614745,0.6302209286207004,0.8390813282082681,0.872327907850986,0.8989412346208306,0.8904795843961987,0.8796958205165538,0.8655244778357768,0.8757896172157483,0.9237822033433105,0.8450754916932011,0.6323042678503025,0.6405862304897137,0.625335648050798,0.7446291614805247,0.7880364796688273,0.7215158070042756,0.7790205872339171,0.9173863034174644,0.9394580754067419,0.8671111109330416,0.7162395982640948,0.8309934053260328,0.8761649951198723,0.7837959020318174,0.7629962212543869,0.7839611581147263,0.8034116709608565,0.9317131708528907,1,1,1,1,0.8010532342515657,0.8037048681352991,0.8511547248865999,0.9411426183521642,0.9480478290471481,0.9002054682387521,0.7251988256952681,0.5022076270532772,0.5218515852518635,0.6007028825880297,0.4585530301987432,0.5623408802598927,0.49925279797898237,0.5012332909226626,0.3811003543286991,0.3834997496124219,0.28393473998039886,0.3616512987920925,0.1922235630627375,0.38316979120679845,0.3005880371198157,0.3328451157611275,0.3989720937725035,0.40087847126233733,0.42428769326141097,0.5245357951878391,0.4579499310655926,0.43962713902415795,0.5035073856676158,0.4332324787012452,0.30443412489739835,0.3515113031091963,0.3442037402934291,0.3752142010730989,0.32256281158513234,0.15412291634497893,0.24087704937006174,0.2986048885255239,0.3159743152441902,0.3242051928071805,0.4201938412714529,0.5948214818947389,0.47997480630434863,0.4219764700339338,0.41219960936354993,0.5412992122833162,0.6935910729935506,0.8106042949835096,0.8364915782206019,0.9261964478947412,0.8515316392163819,0.8986760476723175,0.9276982035484841,0.7292159337033115,0.753073047146525,0.8587226573604356,0.8526561201969977,0.6920356187924392,0.6487926111168753,0.616578185554364,0.7441647208255988,0.8487623874988032,0.8984427497000806,0.827541350867592,0.819948354979723,0.7339077606425956,0.84753597186845,0.7613739954958376,0.8730029504714741,0.9000923734651629,0.923807634969277,0.9405796868504763,0.8613670820853385,0.7737011716912728,0.9291646658496495,0.7337320758186064,1,0.9222982267246925,0.9048419000596671,0.7038367042016079,0.8839503802850688,0.8681990518925585,0.7315656652712289,0.7959259873678924,0.8106050897899991,0.7687079157713307,0.6679480717749476,0.5604136174095387,0.4862603076083113,0.31260036264363755,0.46262203963647097,0.41173571495262606,0.5127195947513206,0.5923195960060068,0.43429087669334066,0.41904293229142153,0.31891757229806655,0.48985750391751937,0.4916923346551334,0.6236386352771548,0.47327336711722856,0.4680270344061059,0.37692667743131475,0.5081211087206432,0.5468818739431748,0.36780414865523314,0.4584344630778573,0.5811475928410896,0.4196386061545879,0.4851962694456192,0.5491191974947027,0.536823704458331,0.6548741097158205,0.6400831027108305,0.4162940671490769,0.4046137483010272,0.33725887038262137,0.26101079304015534,0.26458745547528234,0.30440827935561554,0.2668387056853176,0.35081619897627386,0.38148152333668317,0.44724153347010714,0.4350996337816923,0.4230064086125138,0.4935275930824315,0.4337592537146098,0.35445980758454665,0.30849806656186296,0.41866579006771437,0.2734893796403581,0.3112243104534316,0.3022959351876567,0.32627993810623823,0.24381704944983376,0.21352470468723503,0.24256363955140303,0.19644582707163388,0.41069116558024127,0.49558380581864825,0.546917169973957,0.3925232537433799,0.37737989411433837,0.303276923760822,0.4275159055385383,0.6280572022826104,0.6895278870632234,0.7101921905067216,0.7013404567851739,0.7167764658029069,0.6382363026954624,0.8277819673487744,0.7573910790170614,0.7352864208396075,0.7072259357144529,0.6945444946149655,0.7236424160062517,0.8344777405336246,0.8635979109205164,0.8124748035893075,0.8535858187591085,0.8310401781575327,0.7848369017430069,0.9483794508691337,0.8600218855643859,1,0.884270848647899,0.9200513652960681,0.8810555847738779,0.8509454121411308,0.7441699075688629,0.9017957074885127,0.7897357879834281,0.8033253090794764,0.818237969906844,0.5127535008572702,0.3254867571044624,0.28402831068704265,0.18262208134609378,0.14755719110280593,0.206315863377698,0.2094100827886343,0.1055354178136232,0.16325212208293066,0.12097927300187614,0.10405582470853246,0.1880873852977517,0.16292859326149206,0.13831594552552487,0.08293282622495894,0.16214234145428763,0.21398773629350093,0.14860598011863407,0.12387972414438178,0.1049624025093413,0.09584230946499238,0.250995566558602,0.2538326217848661,0.11977737914814011,0.05540994063865081,0.07471224407744947,0.1611676468048014,0.16149036460930974,0.20393268610436954,0.21549792934498654,0.17479261338827423,0.14605742215185108,0.10381320695316251,0.1048589641337523,0.06708991151023637,0.13690917866702723,0.05285421201740621,0.10983657879776555,0.1436468285194833,0.19229460206803364,0.14717571668068408,0.14681058801638946,0.25766240281647,0.30309822641831735,0.3932805277403803,0.39711644784405936,0.39214117914109464,0.36688942586968204,0.3590281790762789,0.31038179223076123,0.4736634531371534,0.45019265094399524,0.4211166468616483,0.5118903611606467,0.38108120448803096,0.44802915770912444,0.5028406905747778,0.4504955455886065,0.3715641746925265,0.4393532266033319,0.488506717590463,0.5374183470502673,0.3965516908021462,0.19308167757638192,0.31095930056576965,0.4008342963215137,0.18548505464109366,0.36067276877608206,0.3852954265520883,0.4673246569873068,0.4219512632698212,0.4619603494748695,0.3607193086116604,0.4175552995506079,0.39837304628881365,0.316500220286292,0.3058485030667361,0.28859345956445764,0.3994067667344892,0.34352564893326426","120,168,86,85,87,204,200,84,166,121,169,128,206,42,47,167,46,129,209,161,123,80,162,122,203,205,201,48,126,41,45,44,88,207,125,163,40,208,83,89,164,81,82,49,127,124,43,202,165,160","247,302,395,241,419,358,383,342,305,249","247,302,395,241,419,358,383,342,305,249","393,320,257,376,344,410,401,269,307,406,249,291,385,331,263,302,279,346,419,241,322,352,362,391,284,354,318,259,267,358,243,349,261,367,305,271,383,295,374,337,327,311,293,298,360,335,251,300,412,387,313,342,372,277,395,370,365,399,247,381","1,1,3,1,1,5,1,1,1,3,1,1,5,1,4,6,1,1,2,1,1,2,1,3,1,4,1,1,4,3,3,1,4,1,1,2,2,1,3,1,1,2,1,2,1,1,1,4,1,1,1,3,1,1,3,1,4,3,1,6"
