"success","trial_type","trial_index","time_elapsed","internal_node_id","rt","stimulus","key_press","subject_id","participant_id","age","gender","prompt","response","choice_outcomes"
"true","fullscreen","0","2993","0.0-0.0","","","","","","","","","",""
"","pavlovia","1","2998","0.0-1.0","","","","","","","","","",""
"","instruc1","2","54417","0.0-2.0","null","run_exp/static/audio/clip_1_welcome.m4a","null","000","000","10","female","<div class='center'><p>Welcome! This is the first part of the experiment. It will last ~30 minutes. In this experiment, you are the head captain of a pirate ship traveling around the world to different islands. You will play a few different games during this experiment. Here is an overview of these games:</p><br><p>Part 1 (today)</p><p>1. Instructions, practice game, and quiz</p><p>2. Pick a pirate game on 6 different islands</p><br><p>Part 2 (1 day later)</p><p>3. Pick a pirate game and memory game</p><p>4. Where did I see this ship? game</p><p>5. Which pirate was the best? game</p><br><p>Part 3 (1 week later)</p><p>6. Memory game</p></div>","",""
"","html-keyboard-response","3","71779","0.0-3.0","17360.819999943487","<div class='center'><p>Welcome! This is the first part of the experiment. It will last ~30 minutes. In this experiment, you are the head captain of a pirate ship traveling around the world to different islands. You will play a few different games during this experiment. Here is an overview of these games:</p><br><p>Part 1 (today)</p><p>1. Instructions, practice game, and quiz</p><p>2. Pick a pirate game on 6 different islands</p><br><p>Part 2 (1 day later)</p><p>3. Pick a pirate game and memory game</p><p>4. Where did I see this ship? game</p><p>5. Which pirate was the best? game</p><br><p>Part 3 (1 week later)</p><p>6. Memory game</p><p><b>[Press the space bar to continue]</b></p></div>","32","","","","","","",""
"","instruc2","4","79749","0.0-4.0","null","run_exp/static/audio/clip_2_different_places.m4a","null","","","","","<div class='center'><p>Today, you’ll visit these 6 islands on your journey. You'll be able to see these islands from your ship.</p><p><img src='run_exp/static/images/contexts/all_contexts.png' height='500'></p></div>","",""
"","html-keyboard-response","5","118289","0.0-5.0","38538.41999999713","<div class='center'><p>Today, you’ll visit these 6 islands on your journey. You'll be able to see these islands from your ship.</p><p><img src='run_exp/static/images/contexts/all_contexts.png' height='500'></p><p><b>[Press the space bar to continue]</b></p></div>","32","","","","","","",""
"","instruc3","6","130823","0.0-6.0","null","run_exp/static/audio/clip_3_goal_of_game_1.m4a","null","","","","","<div class='center'><p> The pirates on your ship will rob other ships as they leave the island</p> These ships have just sold their things to people on the island, so they will be filled with lots and lots of gold.</p><p><img src='run_exp/static/images/tutorial/ship_center.png' height='400'></p></div>","",""
"","html-keyboard-response","7","207151","0.0-7.0","76327.56000000518","<div class='center'><p> The pirates on your ship will rob other ships as they leave the island</p> These ships have just sold their things to people on the island, so they will be filled with lots and lots of gold.</p><p><img src='run_exp/static/images/tutorial/ship_center.png' height='400'></p><p><b>[Press the space bar to continue]</b></p></div>","32","","","","","","",""
"","instruc4","8","240469","0.0-8.0","null","run_exp/static/audio/clip_4_goal_of_game_2.m4a","null","","","","","<div class='center'><p>As the head captain, you do not have to rob any ships yourself.</p><p>Another pirate will be doing the robbing for you. </p><p>First, you will  choose a pirate to rob the next ship.</p><p><img src='run_exp/static/images/tutorial/pirates_all_crop.png' height='200'></p><p>Then, you'll see if the pirate successfully robbed the ship of their gold. If they were successful, then you'll  get a stack of gold coins like this:</p><p><img src='run_exp/static/images/tutorial/reward.png' height='150'></p><p> If they were <b>not</b> successful, then you'll get no gold coins, and you'll see a big red x like this: </p><p><img src='run_exp/static/images/tutorial/reward_no.png' height='150'></p><p> How much bonus money you make is based on how many gold coins you collect.</p><div>","",""
"","html-keyboard-response","9","288659","0.0-9.0","48189.28000004962","<div class='center'><p>As the head captain, you do not have to rob any ships yourself.</p><p>Another pirate will be doing the robbing for you. </p><p>First, you will  choose a pirate to rob the next ship.</p><p><img src='run_exp/static/images/tutorial/pirates_all_crop.png' height='200'></p><p>Then, you'll see if the pirate successfully robbed the ship of their gold. If they were successful, then you'll  get a stack of gold coins like this:</p><p><img src='run_exp/static/images/tutorial/reward.png' height='150'></p><p> If they were <b>not</b> successful, then you'll get no gold coins, and you'll see a big red x like this: </p><p><img src='run_exp/static/images/tutorial/reward_no.png' height='150'></p><p> How much bonus money you make is based on how many gold coins you collect.</p<p><b>[Press the space bar to continue]</b></p></div>","32","","","","","","",""
"","instruc5","10","351491","0.0-10.0","62831.004999927245","run_exp/static/audio/clip_5_probabilistic.m4a","49","","","","","<div class='center'><p>Even the most skilled pirate can not rob EVERY ship.</p><p> Some ships will have very strong protections against pirate attacks.</p><p> Blue beard, here, is very, very good at robbing ships, but he won't be successful every time he tries to rob one.</p><p> You can press the <b>‘1’</b> key on the keyboard to choose him.</p><p> Try choosing him 10 times to see how often he succeeds at robbing a ship. </p><p><img src='run_exp/static/images/tutorial/blue.png' height='500'></p></div>","",""
"","html-keyboard-response","11","352994","0.0-11.0","null","<div class='center'><p><img src='run_exp/static/images/tutorial/blue_win.png' height='500'></p></div>","null","","","","","","",""
"","html-keyboard-response","12","353278","0.0-12.0","282.71000005770475","<div class='center'><img src='run_exp/static/images/tutorial/blue.png' height='500'></p></div>","49","","","","","","",""
"","html-keyboard-response","13","354781","0.0-13.0","null","<div class='center'><p><img src='run_exp/static/images/tutorial/blue_win.png' height='500'></p></div>","null","","","","","","",""
"","html-keyboard-response","14","355021","0.0-14.0","238.63999999593943","<div class='center'><img src='run_exp/static/images/tutorial/blue.png' height='500'></p></div>","49","","","","","","",""
"","html-keyboard-response","15","356526","0.0-15.0","null","<div class='center'><p><img src='run_exp/static/images/tutorial/blue_win.png' height='500'></p></div>","null","","","","","","",""
"","html-keyboard-response","16","356783","0.0-16.0","256.67000003159046","<div class='center'><img src='run_exp/static/images/tutorial/blue.png' height='500'></p></div>","49","","","","","","",""
"","html-keyboard-response","17","358286","0.0-17.0","null","<div class='center'><p><img src='run_exp/static/images/tutorial/blue_no_win.png' height='500'></p></div>","null","","","","","","",""
"","html-keyboard-response","18","358505","0.0-18.0","217.98499999567866","<div class='center'><img src='run_exp/static/images/tutorial/blue.png' height='500'></p></div>","49","","","","","","",""
"","html-keyboard-response","19","360007","0.0-19.0","null","<div class='center'><p><img src='run_exp/static/images/tutorial/blue_win.png' height='500'></p></div>","null","","","","","","",""
"","html-keyboard-response","20","360259","0.0-20.0","251.079999958165","<div class='center'><img src='run_exp/static/images/tutorial/blue.png' height='500'></p></div>","49","","","","","","",""
"","html-keyboard-response","21","361762","0.0-21.0","null","<div class='center'><p><img src='run_exp/static/images/tutorial/blue_win.png' height='500'></p></div>","null","","","","","","",""
"","html-keyboard-response","22","362359","0.0-22.0","596.7099999543279","<div class='center'><img src='run_exp/static/images/tutorial/blue.png' height='500'></p></div>","49","","","","","","",""
"","html-keyboard-response","23","363865","0.0-23.0","null","<div class='center'><p><img src='run_exp/static/images/tutorial/blue_win.png' height='500'></p></div>","null","","","","","","",""
"","html-keyboard-response","24","364689","0.0-24.0","823.0899999616668","<div class='center'><img src='run_exp/static/images/tutorial/blue.png' height='500'></p></div>","49","","","","","","",""
"","html-keyboard-response","25","366193","0.0-25.0","null","<div class='center'><p><img src='run_exp/static/images/tutorial/blue_no_win.png' height='500'></p></div>","null","","","","","","",""
"","html-keyboard-response","26","367989","0.0-26.0","1795.4850000096485","<div class='center'><img src='run_exp/static/images/tutorial/blue.png' height='500'></p></div>","49","","","","","","",""
"","html-keyboard-response","27","369491","0.0-27.0","null","<div class='center'><p><img src='run_exp/static/images/tutorial/blue_win.png' height='500'></p></div>","null","","","","","","",""
"","html-keyboard-response","28","371213","0.0-28.0","1720.894999918528","<div class='center'><img src='run_exp/static/images/tutorial/blue.png' height='500'></p></div>","49","","","","","","",""
"","html-keyboard-response","29","372716","0.0-29.0","null","<div class='center'><p><img src='run_exp/static/images/tutorial/blue_win.png' height='500'></p></div>","null","","","","","","",""
"","instruc6","30","379319","0.0-30.0","null","run_exp/static/audio/clip_6_blue_beard_outcome.m4a","null","","","","","<div class='center'><p> See, he succeeded in robbing the ships most of the time but not every time. </p></div>","",""
"","html-keyboard-response","31","384471","0.0-31.0","5151.584999985062","<div class='center'><p> See, he succeeded in robbing the ships most of the time but not every time. </p><p><b>[Press the space bar to continue]</b></p></div>","32","","","","","","",""
"","audio-keyboard-response","32","385174","0.0-32.0","702.1800000220537","run_exp/static/audio/clip_7_pick_pirate.m4a","49","","","","","","",""
"","audio-keyboard-response","33","385893","0.0-33.0-0.0","717.6600000821054","run_exp/static/audio/clip_8_chosen_pirate_win.m4a","32","","","","","","",""
"","audio-keyboard-response","34","386374","0.0-33.0-1.0","478.9149999851361","run_exp/static/audio/clip_9_pick_a_pirate_again.m4a","49","","","","","","",""
"","audio-keyboard-response","35","386860","0.0-34.0-0.0","485.3649999713525","run_exp/static/audio/clip_10_chosen_pirate_loss.m4a","32","","","","","","",""
"","instruc9","36","393995","0.0-35.0-0.0","null","run_exp/static/audio/clip_11_time_out.m4a","null","","","","","<div class='center'><p>If you don’t make your choice fast enough, you’ll have to wait a few seconds before you can make another one. </p><p><img src='run_exp/static/images/miscellaneous/hurry_up.png' height='500'></p></div>","",""
"","html-keyboard-response","37","394615","0.0-35.0-1.0","619.0949999727309","<div class='center'><p>If you don’t make your choice fast enough, you’ll have to wait a few seconds before you can make another one. </p><p><img src='run_exp/static/images/miscellaneous/hurry_up.png' height='500'></p><p><b>[Press the space bar to continue]</b></p></div>","32","","","","","","",""
"","instruc10","38","443233","0.0-35.0-2.0","null","run_exp/static/audio/clip_12_probe.m4a","null","","","","","<div class='center'><p>Once you've choose a pirate, you’ll be shown the ship they are robbing.</p><p>You will never rob the same ship twice. After all, ships that have already been robbed won’t have gold on them. </p><p>Ships can be told apart from one another by the image on them. See, this one has a travel mug on it. </p><p> You’ll have to remember which island you saw each ship on.You will win more bonus money if you remember correctly! To help you remember, you can imagine a story. For example, here, you could imagine a mug full of water in the desert. Or, as another example, if on the forest island, your pirate robbed a ship with an apple on it, you could imagine an apple falling from a tree in the forest. </p><p><img src='run_exp/static/images/tutorial/example_probe.png' height='500'></p></div>","",""
"","html-keyboard-response","39","445488","0.0-35.0-3.0","2254.399999976158","<div class='center'><p>Once you've choose a pirate, you’ll be shown the ship they are robbing.</p><p>You will never rob the same ship twice. After all, ships that have already been robbed won’t have gold on them. </p><p>Ships can be told apart from one another by the image on them. See, this one has a travel mug on it. </p><p> You’ll have to remember which island you saw each ship on.You will win more bonus money if you remember correctly! To help you remember, you can imagine a story. For example, here, you could imagine a mug full of water in the desert. Or, as another example, if on the forest island, your pirate robbed a ship with an apple on it, you could imagine an apple falling from a tree in the forest. </p><p><img src='run_exp/static/images/tutorial/example_probe.png' height='500'></p><p><b>[Press the space bar to continue]</b></p></div>","32","","","","","","",""
"","instruc11","40","466379","0.0-35.0-4.0","null","run_exp/static/audio/clip_13_changepoint.m4a","null","","","","","<div class='center'><p>How successful a pirate is at robbing ships will depend on the island you’re on.</p><p> A pirate may have visited this island many times before and gained a lot of practice robbing ships there.</p><p>So, they’re more likely to be successful than a pirate who has never visited the island before.</p></div>","",""
"","html-keyboard-response","41","479161","0.0-35.0-5.0","12781.579999951646","<div class='center'><p>How successful a pirate is at robbing ships will depend on the island you’re on.</p><p> A pirate may have visited this island many times before and gained a lot of practice robbing ships there.</p><p>So, they’re more likely to be successful than a pirate who has never visited the island before.</p><p><b>[Press the space bar to continue]</b></p></div>","32","","","","","","",""
"","instruc12","42","507137","0.0-35.0-6.0","null","run_exp/static/audio/clip_14_drift.m4a","null","","","","","<div class='center'><p>How successful a pirate is at robbing ships can also change over the time spent on the island. </p><p> Ships may hear from islanders about the pirates coming and will improve their protections against the attack. This may make it harder to rob them.</p><p> Ships may also become lazy and weaken the strength of their protections. This may make it easier to rob them.</p><br><p>Things are always changing on the high seas! So, try your best to pay attention!</p><p><img src='run_exp/static/images/tutorial/contingency.png' height='500'></p></div>","",""
"","html-keyboard-response","43","517984","0.0-35.0-7.0","10846.600000048056","<div class='center'><p>How successful a pirate is at robbing ships can also change over the time spent on the island. </p><p> Ships may hear from islanders about the pirates coming and will improve their protections against the attack. This may make it harder to rob them.</p><p> Ships may also become lazy and weaken the strength of their protections. This may make it easier to rob them.</p><br><p>Things are always changing on the high seas! So, try your best to pay attention!</p><p><img src='run_exp/static/images/tutorial/contingency.png' height='500'></p><p><b>[Press the space bar to continue]</b></p></div>","32","","","","","","",""
"","instruc13","44","563176","0.0-35.0-8.0","null","run_exp/static/audio/clip_15_summary.m4a","null","","","","","<div class='center'><p>Let's go over the instructions quickly again. You have two important things to do: </p><b><p> 1. Pick the pirate who is the best at robbing ships on the current island. This way you'll collect more gold coins!</p></b><b><p> 2. Remember on which island a ship was robbed.</p> </b><p>The amount of bonus money you can win depends on both.</p><p><br><p>Let’s try a practice game. The game will start by showing you the pirates. First, pick a pirate using the <b> 1, 2, 3 </b> keys on your keyboard. When you are shown a ship, try to remember which island you’re on by making up a story.</p><p>This is just a practice game, so you’re not playing for money. </p><p> Good luck! This game will be very difficult but try your best!</p></div>","",""
"","html-keyboard-response","45","582503","0.0-35.0-9.0","19325.844999984838","<div class='center'><p>Let's go over the instructions quickly again. You have two important things to do: </p><b><p> 1. Pick the pirate who is the best at robbing ships on the current island. This way you'll collect more gold coins!</p></b><b><p> 2. Remember on which island a ship was robbed.</p> </b><p>The amount of bonus money you can win depends on both.</p><p><br><p>Let’s try a practice game. The game will start by showing you the pirates. First, pick a pirate using the <b> 1, 2, 3 </b> keys on your keyboard. When you are shown a ship, try to remember which island you’re on by making up a story.</p><p>This is just a practice game, so you’re not playing for money. </p><p> Good luck! This game will be very difficult but try your best!</p><p><b>[Press the space bar to continue]</b></p></div>","32","","","","","","",""
"","do_welcome","46","584012","0.0-35.0-10.0","null","","","","","","","","null",""
"","do_trial","47","589500","0.0-35.0-11.0","975.8799999253824","","","","","","","","49","1,0,0"
"","html-keyboard-response","48","590505","0.0-36.0-0.0","null","<p></p>","null","","","","","","",""
"","do_trial","49","595332","0.0-36.0-1.0","317.6149999490008","","","","","","","","49","1,1,0"
"","html-keyboard-response","50","596336","0.0-37.0-0.0","null","<p></p>","null","","","","","","",""
"","do_trial","51","601151","0.0-37.0-1.0","303.44499996863306","","","","","","","","49","1,0,1"
"","html-keyboard-response","52","602154","0.0-38.0-0.0","null","<p></p>","null","","","","","","",""
"","do_trial","53","607050","0.0-38.0-1.0","388.6399999028072","","","","","","","","49","0,1,0"
"","html-keyboard-response","54","608052","0.0-39.0-0.0","null","<p></p>","null","","","","","","",""
"","do_trial","55","612969","0.0-39.0-1.0","407.96999994199723","","","","","","","","49","1,0,0"
"","do_bye","56","614478","0.0-40.0-0.0","null","","","","","","","","null",""
"","do_travel","57","620481","0.0-40.0-1.0","null","","","","","","","","null",""
"","do_welcome","58","621989","0.0-40.0-2.0","null","","","","","","","","null",""
"","do_trial","59","626936","0.0-40.0-3.0","438.689999980852","","","","","","","","49","1,0,0"
"","html-keyboard-response","60","627939","0.0-41.0-0.0","null","<p></p>","null","","","","","","",""
"","do_trial","61","632756","0.0-41.0-1.0","308.725000009872","","","","","","","","49","1,0,1"
"","html-keyboard-response","62","633758","0.0-42.0-0.0","null","<p></p>","null","","","","","","",""
"","do_trial","63","638563","0.0-42.0-1.0","297.6699999999255","","","","","","","","49","1,1,0"
"","html-keyboard-response","64","639566","0.0-43.0-0.0","null","<p></p>","null","","","","","","",""
"","do_trial","65","644411","0.0-43.0-1.0","334.65000009164214","","","","","","","","49","0,0,1"
"","html-keyboard-response","66","645414","0.0-44.0-0.0","null","<p></p>","null","","","","","","",""
"","do_trial","67","650042","0.0-44.0-1.0","116.2999999942258","","","","","","","","49","1,0,1"
